Time,AccX,AccY,AccZ,GyroX,GyroY,GyroZ,Pitch,Roll,Yaw
1747510048.61,0.020,0.051,-0.062,-0.080,-0.128,-0.045,29.655,20.230,-49.936
1747510048.63,-0.021,0.074,-0.027,-0.143,0.172,-0.007,29.511,20.242,-49.939
1747510048.65,-0.005,0.044,-0.006,-0.074,0.308,0.086,29.398,20.481,-49.861
1747510048.67,0.004,0.040,-0.014,0.036,0.225,0.105,29.427,20.733,-49.752
1747510048.69,0.003,0.055,-0.017,0.038,0.157,0.088,29.518,20.892,-49.678
1747510048.71,0.001,0.042,-0.003,-0.083,0.147,0.084,29.524,21.009,-49.590
1747510048.73,0.018,0.033,0.001,-0.132,0.155,0.105,29.420,21.077,-49.433
1747510048.75,-0.003,0.028,-0.041,-0.046,0.232,0.099,29.348,21.220,-49.287
1747510048.77,0.001,0.024,-0.048,-0.010,0.257,0.088,29.347,21.435,-49.186
1747510048.79,-0.005,0.027,-0.010,-0.072,0.206,0.063,29.325,21.654,-49.102
1747510048.81,0.004,0.023,0.012,-0.141,0.052,0.080,29.222,21.745,-48.994
1747510048.83,0.003,0.013,0.005,-0.139,-0.063,0.091,29.092,21.633,-48.839
1747510048.85,0.008,0.013,-0.004,-0.096,-0.110,0.060,28.982,21.450,-48.710
1747510048.87,0.017,0.014,-0.029,-0.070,-0.332,-0.000,28.899,21.177,-48.661
1747510048.89,0.010,0.018,-0.012,0.038,-0.484,-0.066,28.853,20.731,-48.720
1747510048.91,0.004,0.023,-0.013,0.270,-0.764,-0.066,28.984,20.114,-48.893
1747510048.93,0.010,0.026,-0.008,0.404,-1.016,-0.107,29.335,19.222,-49.162
1747510048.95,0.026,0.048,0.048,0.360,-1.388,-0.169,29.707,18.010,-49.502
1747510048.97,0.062,0.063,0.117,0.312,-1.490,-0.257,29.987,16.529,-49.905
1747510048.99,0.036,0.067,0.034,0.459,-1.444,-0.350,30.301,15.134,-50.428
1747510049.01,0.006,0.078,-0.050,0.897,-1.971,-0.394,30.910,13.608,-51.129
1747510049.03,0.041,0.105,-0.024,1.487,-2.802,-0.360,32.152,11.280,-51.991
1747510049.05,0.136,0.167,0.101,1.517,-2.908,-0.269,33.854,8.404,-52.780
1747510049.07,0.091,0.204,0.177,0.819,-2.710,-0.176,35.180,5.491,-53.288
1747510049.09,0.053,0.211,0.191,0.064,-2.681,-0.079,35.658,2.558,-53.495
1747510049.11,0.003,0.125,0.103,-0.293,-2.358,-0.112,35.480,-0.325,-53.594
1747510049.13,-0.084,0.102,0.065,-0.216,-1.925,-0.153,35.159,-2.620,-53.786
1747510049.15,-0.048,0.085,-0.086,-0.038,-2.039,-0.234,35.037,-4.697,-54.016
1747510049.17,0.053,0.182,-0.067,-0.119,-2.294,-0.372,35.013,-6.900,-54.424
1747510049.19,0.047,0.213,0.029,-0.345,-2.455,-0.211,34.797,-9.380,-54.856
1747510049.21,0.007,0.104,0.072,-0.433,-2.090,0.071,34.364,-11.900,-55.011
1747510049.23,-0.023,0.025,0.084,-0.459,-1.808,0.290,33.822,-14.127,-54.860
1747510049.25,-0.007,0.062,0.025,-0.513,-2.037,0.221,33.200,-16.431,-54.596
1747510049.27,0.004,0.084,0.023,-0.489,-2.067,0.106,32.608,-18.778,-54.546
1747510049.29,0.046,0.089,-0.020,-0.421,-2.310,0.188,32.061,-21.254,-54.527
1747510049.31,0.091,0.111,-0.059,-0.285,-2.543,0.399,31.554,-24.118,-54.287
1747510049.33,0.055,0.105,-0.026,-0.093,-2.473,0.618,31.103,-27.272,-53.704
1747510049.35,0.026,0.083,0.025,-0.039,-2.146,0.607,30.708,-30.273,-52.914
1747510049.37,0.011,0.011,0.057,0.479,-1.139,0.217,30.599,-32.549,-52.213
1747510049.39,-0.062,-0.117,0.102,0.666,-1.149,0.149,31.151,-34.022,-51.484
1747510049.41,-0.050,-0.054,0.068,0.149,-1.295,0.311,31.409,-35.685,-50.839
1747510049.43,0.059,-0.021,0.021,0.142,-1.439,0.349,31.195,-37.530,-50.296
1747510049.45,0.019,0.015,0.008,0.369,-1.250,0.178,31.294,-39.340,-49.692
1747510049.47,0.176,0.092,0.095,0.360,-1.019,0.163,31.486,-40.877,-49.088
1747510049.49,0.127,0.062,0.147,0.334,-1.106,0.221,31.656,-42.334,-48.486
1747510049.51,0.124,-0.025,0.153,0.052,-0.673,0.434,31.583,-43.766,-47.960
1747510049.53,0.636,0.164,0.279,-0.468,0.281,0.586,30.999,-44.146,-47.661
1747510049.55,0.774,0.246,0.217,-0.732,1.226,0.495,30.054,-43.250,-47.661
1747510049.57,0.497,0.261,0.188,-1.176,0.931,0.022,29.016,-41.626,-48.287
1747510049.59,0.385,0.089,0.070,-0.887,0.351,0.029,28.145,-40.434,-49.205
1747510049.61,0.516,-0.089,0.167,-1.063,-0.059,0.709,27.067,-40.115,-49.683
1747510049.63,0.588,-0.048,0.167,-1.211,0.087,1.426,25.204,-40.108,-49.592
1747510049.65,0.387,-0.022,-0.071,-0.751,0.050,1.830,23.162,-40.383,-48.802
1747510049.67,0.302,-0.195,-0.028,-0.609,0.360,1.673,21.227,-40.627,-47.605
1747510049.69,0.143,-0.209,0.002,-0.697,0.698,0.773,19.721,-40.285,-46.964
1747510049.71,0.039,-0.233,0.015,-0.698,1.035,-0.155,18.906,-39.141,-47.256
1747510049.73,0.120,-0.220,-0.074,-0.569,1.014,-0.216,18.530,-37.748,-47.978
1747510049.75,0.221,-0.227,0.062,-0.715,0.881,0.136,17.993,-36.496,-48.460
1747510049.77,0.163,-0.182,0.040,-0.880,0.885,0.302,17.053,-35.409,-48.788
1747510049.79,-0.022,-0.304,-0.161,-0.622,1.030,0.143,16.186,-34.226,-49.104
1747510049.81,-0.054,-0.359,-0.242,-0.208,1.079,0.211,15.685,-32.962,-49.220
1747510049.83,-0.016,-0.260,-0.221,-0.066,0.941,0.316,15.416,-31.884,-49.023
1747510049.85,-0.066,-0.057,-0.124,-0.107,0.950,0.223,15.170,-30.860,-48.765
1747510049.87,-0.088,0.051,-0.037,-0.387,0.949,-0.042,14.883,-29.755,-48.831
1747510049.89,-0.151,0.006,-0.051,-0.511,0.767,0.057,14.427,-28.689,-49.111
1747510049.91,-0.202,-0.100,-0.149,-0.353,0.619,0.360,13.859,-27.924,-49.159
1747510049.93,-0.260,0.051,-0.228,-0.244,0.600,0.342,13.393,-27.309,-48.875
1747510049.95,-0.295,0.107,-0.113,-0.571,0.736,-0.212,12.929,-26.509,-49.011
1747510049.97,-0.283,0.070,-0.261,-0.546,0.718,-0.433,12.528,-25.502,-49.698
1747510049.98,-0.266,0.051,-0.265,-0.547,0.425,-0.171,12.123,-24.694,-50.316
1747510050.00,-0.190,0.077,-0.240,-0.589,0.336,0.214,11.523,-24.250,-50.556
1747510050.02,-0.321,0.144,-0.300,-0.438,0.367,0.404,10.806,-23.868,-50.469
1747510050.05,-0.312,0.050,-0.353,-0.196,0.359,0.412,10.287,-23.506,-50.157
1747510050.07,-0.301,0.095,-0.351,-0.003,0.386,0.171,10.044,-23.147,-49.883
1747510050.08,-0.350,0.209,-0.250,-0.102,0.357,-0.276,10.037,-22.685,-49.925
1747510050.10,-0.401,0.163,-0.207,-0.333,0.240,-0.593,10.010,-22.266,-50.526
1747510050.12,-0.253,0.063,-0.280,-0.263,0.169,-0.533,9.915,-21.886,-51.302
1747510050.14,-0.148,0.008,-0.315,-0.069,0.139,-0.355,9.931,-21.660,-51.829
1747510050.16,-0.199,0.024,-0.197,0.074,0.319,-0.486,10.107,-21.308,-52.272
1747510050.18,-0.221,0.157,-0.194,0.233,0.171,-0.438,10.476,-20.952,-52.725
1747510050.20,-0.236,0.171,-0.023,0.143,0.154,-0.530,10.888,-20.691,-53.124
1747510050.22,-0.194,0.147,0.049,-0.130,0.308,-0.845,11.167,-20.313,-53.867
1747510050.24,-0.082,0.132,0.027,-0.256,0.566,-1.054,11.322,-19.582,-55.010
1747510050.26,-0.078,0.056,-0.038,-0.244,0.678,-1.085,11.443,-18.619,-56.288
1747510050.28,-0.025,0.014,-0.044,-0.143,0.646,-1.062,11.604,-17.563,-57.574
1747510050.30,0.025,0.114,-0.079,0.027,0.604,-0.628,11.857,-16.634,-58.558
1747510050.32,0.099,0.005,-0.010,0.027,0.502,-0.132,12.005,-15.938,-58.966
1747510050.34,0.119,-0.116,-0.002,0.047,0.619,0.157,12.042,-15.330,-58.901
1747510050.36,0.089,0.011,0.001,-0.142,0.852,0.056,11.973,-14.498,-58.768
1747510050.38,0.028,0.017,-0.033,-0.344,0.613,0.007,11.680,-13.602,-58.835
1747510050.40,0.038,-0.074,-0.088,-0.170,0.247,0.174,11.370,-13.137,-58.817
1747510050.42,0.037,-0.085,-0.220,0.169,0.197,0.211,11.293,-12.962,-58.567
1747510050.44,0.059,-0.033,-0.186,0.309,0.249,0.071,11.563,-12.770,-58.366
1747510050.46,-0.143,0.011,-0.110,0.143,-0.453,-0.009,11.811,-12.800,-58.256
1747510050.48,-0.072,-0.119,-0.360,0.314,-0.460,-0.264,12.088,-13.517,-58.327
1747510050.50,0.141,0.193,0.020,-0.300,0.179,-0.414,12.289,-13.690,-58.713
1747510050.52,0.108,0.136,0.092,-0.594,0.089,-0.360,11.817,-13.304,-59.336
1747510050.54,-0.060,0.071,-0.008,-0.527,-0.985,0.197,11.230,-13.723,-59.644
1747510050.56,-0.032,0.036,-0.112,-0.039,-2.135,0.785,10.741,-15.615,-59.120
1747510050.58,-0.081,0.074,-0.054,0.134,-1.716,0.691,10.603,-18.169,-58.210
1747510050.60,0.126,0.194,0.134,-0.717,0.084,-0.597,10.358,-19.340,-58.104
1747510050.62,0.166,-0.009,0.134,-0.716,0.851,-0.271,9.597,-18.317,-59.171
1747510050.64,0.083,-0.498,-0.276,-0.145,0.576,0.328,9.116,-17.589,-59.124
1747510050.66,-0.107,0.100,-0.061,-0.245,0.465,-0.073,8.923,-16.949,-59.021
1747510050.68,-0.135,0.042,0.119,-0.813,0.391,-0.497,8.464,-16.416,-59.537
1747510050.70,-0.065,0.065,0.142,-1.092,0.674,-0.461,7.522,-15.739,-60.433
1747510050.72,0.101,-0.013,-0.222,-0.487,0.316,0.074,6.708,-15.152,-60.932
1747510050.74,0.137,-0.091,-0.211,-0.098,0.024,0.441,6.291,-15.008,-60.669
1747510050.76,-0.067,0.052,-0.024,-0.105,0.001,0.306,6.100,-15.021,-60.245
1747510050.78,-0.162,0.093,0.064,-0.357,0.070,0.061,5.800,-14.995,-60.177
1747510050.80,0.016,-0.103,-0.083,-0.095,-0.057,0.100,5.475,-14.942,-60.153
1747510050.82,0.031,0.006,-0.025,-0.067,0.125,-0.020,5.421,-14.961,-60.103
1747510050.84,0.068,0.006,0.022,-0.032,0.304,-0.027,5.354,-14.748,-60.142
1747510050.86,0.044,0.037,-0.008,0.026,0.345,0.161,5.331,-14.387,-60.091
1747510050.88,-0.056,0.084,0.108,0.173,1.426,0.131,5.394,-13.538,-59.927
1747510050.90,-0.152,0.004,0.501,0.156,3.915,0.158,5.540,-10.685,-59.743
1747510050.92,0.044,-0.202,0.881,-3.750,7.156,0.172,3.300,-5.264,-59.791
1747510050.94,0.096,-0.135,-1.451,1.761,-0.321,-0.082,3.284,-1.179,-59.990
1747510050.96,0.056,-0.060,0.897,0.439,0.015,-0.234,4.330,-2.458,-60.154
1747510050.98,0.305,-0.282,-0.800,1.339,0.768,-0.009,6.145,-0.986,-60.372
1747510051.00,-0.088,0.308,-0.424,0.004,-0.057,0.009,6.787,-0.499,-60.259
1747510051.02,0.046,0.024,0.019,0.003,-0.111,0.006,6.797,-0.598,-60.253
1747510051.04,-0.006,-0.003,-0.025,0.007,-0.087,-0.004,6.802,-0.698,-60.251
1747510051.06,0.002,0.031,-0.008,0.013,-0.074,-0.001,6.817,-0.823,-60.251
1747510051.08,0.022,-0.014,-0.026,0.078,-0.575,-0.096,6.846,-1.018,-60.266
1747510051.10,-0.202,-0.013,0.007,0.042,-0.386,-0.406,6.950,-1.729,-60.595
1747510051.12,0.050,0.002,-0.017,0.211,-0.205,-0.307,7.049,-2.208,-61.013
1747510051.14,0.099,-0.022,0.070,0.244,0.027,-0.177,7.302,-2.138,-61.285
1747510051.16,0.073,0.028,-0.050,0.101,0.011,-0.032,7.531,-2.121,-61.379
1747510051.18,0.008,0.041,-0.051,0.005,-0.030,-0.000,7.562,-2.124,-61.387
1747510051.20,0.005,0.004,-0.013,0.007,-0.020,0.003,7.568,-2.146,-61.387
1747510051.22,0.014,-0.003,-0.038,0.003,-0.009,0.001,7.580,-2.183,-61.384
1747510051.24,-0.001,0.011,0.008,-0.004,-0.004,-0.117,7.575,-2.162,-61.407
1747510051.26,-0.230,-0.034,-0.021,0.054,-0.162,-0.494,7.612,-2.188,-61.791
1747510051.28,0.016,0.007,-0.026,0.077,-0.218,-0.381,7.711,-2.357,-62.333
1747510051.30,0.183,0.035,-0.032,0.190,-0.428,-0.019,7.847,-2.635,-62.558
1747510051.32,0.049,0.012,-0.058,0.202,-0.452,0.013,8.103,-3.212,-62.531
1747510051.34,-0.006,0.005,0.048,0.022,-0.047,0.000,8.233,-3.505,-62.515
1747510051.36,0.003,0.003,0.016,-0.069,0.160,-0.008,8.196,-3.420,-62.521
1747510051.38,-0.002,0.001,0.028,-0.286,0.826,-0.078,8.018,-2.985,-62.553
1747510051.40,-0.107,-0.168,0.353,1.194,1.603,-0.801,8.371,-1.015,-63.077
1747510051.42,-0.111,-0.080,0.010,1.293,0.530,-0.449,9.922,0.418,-63.850
1747510051.44,-0.048,0.041,-0.449,0.618,-2.296,-0.224,11.154,-0.353,-64.147
1747510051.46,0.217,0.221,-0.341,-0.032,0.062,-0.329,11.690,-1.110,-64.403
1747510051.48,0.135,0.022,-0.080,0.042,-0.073,-0.045,11.722,-1.135,-64.630
1747510051.50,0.055,0.010,0.007,0.020,-0.027,0.002,11.763,-1.211,-64.634
1747510051.52,-0.000,0.012,-0.020,0.020,-0.044,-0.002,11.788,-1.262,-64.632
1747510051.54,0.010,0.001,-0.015,0.005,-0.003,0.002,11.805,-1.299,-64.630
1747510051.56,0.007,0.006,-0.010,0.004,-0.013,0.005,11.808,-1.300,-64.628
1747510051.58,-0.003,0.004,-0.015,-0.011,0.029,-0.003,11.808,-1.299,-64.629
1747510051.60,0.004,0.005,-0.018,0.010,-0.017,0.000,11.807,-1.293,-64.631
1747510051.62,0.018,0.006,-0.018,-0.005,0.004,0.005,11.808,-1.297,-64.629
1747510051.64,-0.001,0.002,-0.005,0.006,-0.018,-0.002,11.803,-1.297,-64.628
1747510051.66,0.001,0.005,-0.004,-0.002,0.007,0.001,11.801,-1.302,-64.629
1747510051.68,0.017,0.005,-0.024,-0.003,0.001,0.001,11.799,-1.305,-64.628
1747510051.70,-0.010,0.011,-0.011,-0.004,0.011,-0.004,11.790,-1.292,-64.630
1747510051.72,0.007,-0.003,-0.011,-0.004,0.015,0.002,11.782,-1.272,-64.632
1747510051.74,0.024,0.011,-0.024,-0.006,0.013,0.003,11.772,-1.261,-64.630
1747510051.76,-0.012,0.005,-0.018,-0.003,0.007,-0.003,11.764,-1.248,-64.630
1747510051.78,-0.002,0.004,-0.007,-0.006,0.007,-0.003,11.756,-1.238,-64.633
1747510051.80,0.024,0.007,-0.015,-0.004,0.010,0.002,11.747,-1.225,-64.633
1747510051.82,-0.005,0.001,-0.016,-0.011,0.023,-0.002,11.738,-1.202,-64.634
1747510051.84,-0.012,0.026,-0.027,-0.007,0.015,-0.002,11.729,-1.197,-64.637
1747510051.86,0.023,-0.003,-0.026,0.002,-0.015,0.004,11.725,-1.203,-64.637
1747510051.88,0.029,0.018,0.008,-0.002,0.003,0.005,11.715,-1.185,-64.636
1747510051.90,-0.016,0.020,0.005,-0.013,0.017,-0.005,11.705,-1.168,-64.635
1747510051.92,-0.020,0.023,-0.021,-0.024,0.049,-0.006,11.679,-1.145,-64.641
1747510051.94,0.020,0.010,-0.020,-0.044,0.086,-0.006,11.633,-1.055,-64.648
1747510051.96,0.018,0.025,0.018,-0.050,0.093,-0.003,11.573,-0.925,-64.654
1747510051.98,-0.017,0.028,-0.038,0.109,-0.215,0.006,11.580,-0.961,-64.653
1747510052.00,0.011,0.019,-0.068,-0.053,0.106,-0.009,11.671,-1.176,-64.645
1747510052.02,0.035,0.029,-0.093,-0.022,0.029,0.001,11.670,-1.192,-64.646
1747510052.04,0.012,0.023,-0.030,-0.013,0.006,-0.001,11.660,-1.191,-64.647
1747510052.06,-0.001,0.036,-0.009,-0.032,0.056,-0.003,11.642,-1.178,-64.647
1747510052.08,-0.000,0.021,-0.016,-0.092,0.175,-0.009,11.587,-1.084,-64.653
1747510052.10,-0.026,0.029,0.069,-0.242,0.541,-0.038,11.361,-0.608,-64.684
1747510052.12,0.038,0.036,-0.128,-0.021,0.034,-0.002,11.331,-0.541,-64.694
1747510052.14,0.019,0.038,-0.014,-0.003,-0.023,0.006,11.320,-0.533,-64.693
1747510052.16,-0.000,0.021,-0.039,-0.008,-0.018,0.001,11.334,-0.609,-64.689
1747510052.18,0.009,0.035,-0.027,0.071,-0.178,0.008,11.367,-0.722,-64.683
1747510052.20,0.017,0.048,0.011,0.025,-0.080,0.009,11.425,-0.886,-64.673
1747510052.22,-0.015,0.028,-0.000,-0.011,-0.008,-0.000,11.423,-0.927,-64.669
1747510052.24,-0.007,0.026,-0.008,-0.043,0.052,-0.005,11.395,-0.912,-64.674
1747510052.26,0.022,0.044,0.015,-0.056,0.074,-0.001,11.321,-0.809,-64.680
1747510052.28,0.016,0.042,-0.054,0.102,-0.256,0.012,11.328,-0.890,-64.674
1747510052.30,0.006,0.027,-0.093,-0.059,0.080,-0.002,11.462,-1.232,-64.654
1747510052.32,0.017,0.045,-0.071,-0.030,0.015,0.001,11.465,-1.296,-64.649
1747510052.34,0.000,0.045,-0.006,-0.034,0.018,-0.003,11.438,-1.303,-64.649
1747510052.36,-0.001,0.030,-0.019,-0.035,0.003,-0.002,11.401,-1.295,-64.653
1747510052.38,0.019,0.023,-0.015,-0.044,0.018,0.005,11.352,-1.275,-64.654
1747510052.40,-0.002,0.045,-0.007,-0.050,0.018,-0.003,11.296,-1.250,-64.655
1747510052.42,0.001,0.031,-0.018,-0.036,-0.016,0.002,11.247,-1.249,-64.656
1747510052.44,0.021,0.022,-0.011,-0.049,0.012,0.005,11.195,-1.248,-64.653
1747510052.46,-0.012,0.030,-0.011,-0.049,0.011,-0.001,11.139,-1.235,-64.653
1747510052.48,-0.008,0.033,-0.016,-0.030,-0.040,-0.001,11.074,-1.238,-64.656
1747510052.50,0.028,0.041,-0.023,-0.042,-0.031,0.008,11.026,-1.299,-64.652
1747510052.52,0.003,0.014,-0.021,-0.059,-0.001,-0.001,10.959,-1.311,-64.651
1747510052.54,-0.009,0.020,-0.014,-0.059,-0.012,-0.000,10.875,-1.310,-64.653
1747510052.56,0.027,0.033,-0.023,-0.051,-0.035,0.006,10.806,-1.350,-64.648
1747510052.58,-0.011,0.024,-0.006,-0.075,0.008,0.000,10.720,-1.354,-64.645
1747510052.60,-0.026,0.014,-0.012,-0.080,0.010,-0.004,10.623,-1.331,-64.651
1747510052.62,0.039,0.019,-0.038,-0.071,-0.024,0.007,10.539,-1.352,-64.652
1747510052.64,0.026,0.021,-0.018,-0.086,0.007,0.006,10.443,-1.362,-64.647
1747510052.66,-0.025,0.009,-0.012,-0.101,0.025,-0.001,10.325,-1.334,-64.646
1747510052.68,-0.005,0.018,-0.025,-0.091,-0.012,0.000,10.212,-1.337,-64.648
1747510052.70,0.013,0.015,-0.028,-0.085,-0.033,0.003,10.109,-1.367,-64.650
1747510052.72,0.004,0.007,-0.016,-0.104,-0.004,0.001,9.996,-1.374,-64.652
1747510052.74,0.013,0.013,-0.023,-0.109,-0.001,0.007,9.874,-1.375,-64.650
1747510052.76,0.009,0.008,-0.025,-0.111,-0.020,0.006,9.746,-1.392,-64.647
1747510052.78,-0.018,0.001,-0.017,-0.109,-0.044,0.004,9.614,-1.408,-64.646
1747510052.80,0.014,0.015,-0.006,-0.136,0.033,0.002,9.478,-1.415,-64.647
1747510052.82,0.006,0.006,-0.063,-0.131,0.006,0.003,9.328,-1.405,-64.649
1747510052.84,0.006,-0.000,-0.027,-0.126,-0.027,0.004,9.180,-1.413,-64.648
1747510052.86,0.006,0.002,-0.017,-0.132,-0.021,0.005,9.027,-1.427,-64.645
1747510052.88,-0.003,0.003,-0.007,-0.148,0.004,0.002,8.863,-1.432,-64.646
1747510052.90,0.005,-0.000,-0.036,-0.152,-0.002,0.001,8.696,-1.442,-64.648
1747510052.92,0.007,-0.004,-0.035,-0.150,-0.012,0.004,8.531,-1.456,-64.647
1747510052.94,0.003,0.000,-0.029,-0.157,-0.009,0.004,8.353,-1.463,-64.647
1747510052.96,-0.001,-0.004,-0.027,-0.157,-0.029,0.004,8.172,-1.479,-64.647
1747510052.98,0.014,-0.003,-0.022,-0.166,-0.011,0.008,7.988,-1.500,-64.647
1747510053.00,0.004,-0.004,-0.027,-0.175,0.002,0.006,7.796,-1.508,-64.644
1747510053.01,-0.005,-0.008,-0.026,-0.180,-0.004,0.005,7.595,-1.508,-64.644
1747510053.04,-0.000,-0.001,-0.026,-0.189,0.010,0.004,7.387,-1.507,-64.644
1747510053.05,0.010,-0.007,-0.043,-0.190,-0.004,0.006,7.172,-1.505,-64.645
1747510053.07,0.011,-0.009,-0.019,-0.192,-0.012,0.005,6.952,-1.503,-64.644
1747510053.09,-0.000,-0.006,-0.023,-0.199,-0.006,0.002,6.730,-1.513,-64.644
1747510053.11,-0.003,-0.011,-0.035,-0.203,-0.011,0.003,6.502,-1.525,-64.646
1747510053.13,0.004,-0.008,-0.023,-0.209,-0.007,0.006,6.268,-1.535,-64.648
1747510053.15,0.012,-0.015,-0.032,-0.213,-0.002,0.008,6.031,-1.541,-64.647
1747510053.17,-0.000,-0.008,-0.033,-0.220,-0.006,0.005,5.787,-1.547,-64.647
1747510053.19,-0.005,-0.011,-0.030,-0.224,-0.008,0.003,5.537,-1.554,-64.649
1747510053.21,0.012,-0.016,-0.031,-0.227,-0.007,0.008,5.280,-1.562,-64.650
1747510053.23,0.014,-0.011,-0.027,-0.233,-0.015,0.010,5.019,-1.572,-64.649
1747510053.25,-0.002,-0.016,-0.028,-0.234,-0.011,0.006,4.755,-1.586,-64.646
1747510053.27,-0.011,-0.010,-0.030,-0.243,-0.007,0.003,4.484,-1.596,-64.648
1747510053.29,0.007,-0.021,-0.035,-0.249,-0.006,0.005,4.206,-1.605,-64.651
1747510053.31,0.019,-0.015,-0.029,-0.250,-0.007,0.008,3.922,-1.606,-64.651
1747510053.33,0.010,-0.017,-0.033,-0.256,-0.002,0.007,3.633,-1.610,-64.650
1747510053.35,-0.011,-0.019,-0.033,-0.263,-0.004,0.007,3.338,-1.614,-64.651
1747510053.37,-0.005,-0.014,-0.026,-0.264,-0.012,0.004,3.038,-1.621,-64.653
1747510053.39,0.013,-0.018,-0.033,-0.269,-0.010,0.008,2.737,-1.633,-64.655
1747510053.41,0.010,-0.022,-0.037,-0.276,-0.017,0.010,2.431,-1.650,-64.654
1747510053.43,0.002,-0.019,-0.030,-0.280,-0.013,0.007,2.118,-1.664,-64.655
1747510053.45,-0.000,-0.021,-0.031,-0.287,-0.010,0.010,1.794,-1.676,-64.656
1747510053.47,0.010,-0.023,-0.034,-0.293,0.006,0.009,1.464,-1.680,-64.656
1747510053.49,0.004,-0.018,-0.030,-0.300,0.002,0.008,1.124,-1.673,-64.657
1747510053.51,-0.008,-0.028,-0.034,-0.298,-0.012,0.006,0.785,-1.681,-64.661
1747510053.53,0.004,-0.021,-0.036,-0.304,-0.004,0.006,0.442,-1.694,-64.664
1747510053.55,0.016,-0.024,-0.037,-0.309,-0.007,0.009,0.089,-1.700,-64.665
1747510053.57,-0.005,-0.026,-0.034,-0.314,-0.010,0.006,-0.267,-1.707,-64.667
1747510053.59,-0.008,-0.027,-0.038,-0.319,-0.018,0.005,-0.629,-1.723,-64.671
1747510053.61,0.014,-0.027,-0.035,-0.319,-0.012,0.010,-0.994,-1.739,-64.674
1747510053.63,0.023,-0.031,-0.046,-0.327,-0.004,0.013,-1.364,-1.753,-64.672
1747510053.65,-0.000,-0.028,-0.042,-0.331,-0.008,0.010,-1.737,-1.764,-64.671
1747510053.67,-0.021,-0.038,-0.036,-0.337,-0.019,0.005,-2.119,-1.776,-64.675
1747510053.69,0.006,-0.032,-0.035,-0.345,-0.003,0.009,-2.509,-1.787,-64.681
1747510053.71,0.025,-0.040,-0.050,-0.353,0.023,0.011,-2.907,-1.777,-64.682
1747510053.73,0.007,-0.042,-0.027,-0.369,0.044,0.008,-3.322,-1.735,-64.682
1747510053.75,-0.016,-0.041,-0.050,-0.370,0.036,0.004,-3.744,-1.692,-64.688
1747510053.77,-0.004,-0.037,-0.053,-0.331,-0.053,0.008,-4.145,-1.700,-64.694
1747510053.79,0.015,-0.044,-0.039,-0.334,-0.046,0.012,-4.518,-1.765,-64.694
1747510053.81,0.015,-0.049,-0.044,-0.334,-0.036,0.010,-4.901,-1.814,-64.692
1747510053.83,0.008,-0.044,-0.027,-0.342,-0.021,0.010,-5.289,-1.844,-64.691
1747510053.85,-0.005,-0.046,-0.040,-0.340,-0.019,0.008,-5.678,-1.868,-64.692
1747510053.87,-0.008,-0.051,-0.038,-0.346,-0.012,0.012,-6.072,-1.888,-64.694
1747510053.89,0.015,-0.050,-0.028,-0.342,-0.002,0.008,-6.468,-1.894,-64.697
1747510053.91,0.023,-0.053,-0.028,-0.345,0.008,0.014,-6.861,-1.888,-64.696
1747510053.93,0.002,-0.043,-0.019,-0.337,0.005,0.011,-7.249,-1.872,-64.692
1747510053.95,-0.028,-0.054,-0.049,-0.324,-0.015,0.007,-7.626,-1.885,-64.696
1747510053.97,0.014,-0.044,-0.024,-0.314,-0.018,0.010,-7.994,-1.905,-64.700
1747510053.99,0.039,-0.047,-0.023,-0.311,-0.002,0.016,-8.349,-1.919,-64.697
1747510054.01,-0.006,-0.049,-0.035,-0.299,-0.025,0.013,-8.694,-1.939,-64.693
1747510054.03,-0.028,-0.041,-0.017,-0.289,-0.024,0.004,-9.030,-1.966,-64.695
1747510054.05,0.006,-0.043,-0.023,-0.289,0.002,0.010,-9.363,-1.980,-64.701
1747510054.07,0.041,-0.038,-0.012,-0.295,0.047,0.012,-9.693,-1.958,-64.700
1747510054.09,-0.013,-0.044,-0.007,-0.327,0.115,0.000,-10.043,-1.875,-64.704
1747510054.11,-0.032,-0.048,0.019,-0.571,0.638,-0.035,-10.518,-1.539,-64.734
1747510054.13,-0.113,-0.057,-0.149,-0.245,0.113,-0.506,-10.976,-1.174,-65.020
1747510054.15,-0.203,-0.063,-0.026,-0.242,-0.025,-0.921,-11.204,-1.421,-65.890
1747510054.17,-0.085,-0.041,0.027,-0.187,-0.092,-0.952,-11.416,-1.696,-67.020
1747510054.19,0.144,0.005,-0.037,-0.137,-0.170,-0.573,-11.576,-2.030,-67.940
1747510054.21,0.272,0.022,-0.060,0.062,-0.539,0.001,-11.601,-2.493,-68.291
1747510054.23,0.025,-0.029,0.238,-0.128,-0.157,0.016,-11.763,-2.638,-68.283
1747510054.25,0.004,-0.026,0.009,-0.190,-0.021,0.007,-11.959,-2.715,-68.280
1747510054.27,-0.028,-0.017,0.067,-0.176,-0.035,0.000,-12.168,-2.740,-68.288
1747510054.29,0.007,-0.016,-0.045,-0.170,-0.021,0.002,-12.366,-2.774,-68.296
1747510054.31,0.033,-0.023,-0.001,-0.166,-0.009,0.015,-12.563,-2.777,-68.297
1747510054.33,0.041,-0.017,0.003,-0.161,0.018,0.015,-12.751,-2.772,-68.287
1747510054.35,-0.022,-0.019,-0.027,-0.150,-0.005,0.010,-12.930,-2.772,-68.279
1747510054.37,-0.022,-0.019,-0.016,-0.143,-0.022,0.004,-13.098,-2.790,-68.280
1747510054.39,0.013,-0.021,-0.017,-0.145,-0.008,0.005,-13.260,-2.809,-68.281
1747510054.41,0.012,-0.011,0.001,-0.142,0.003,0.007,-13.417,-2.800,-68.281
1747510054.43,0.010,-0.024,-0.015,-0.136,0.004,0.009,-13.566,-2.799,-68.281
1747510054.45,0.014,-0.037,-0.045,-0.132,0.003,0.013,-13.707,-2.798,-68.277
1747510054.47,0.004,-0.013,-0.012,-0.124,0.011,0.010,-13.844,-2.788,-68.271
1747510054.49,-0.019,-0.014,-0.016,-0.119,-0.007,-0.002,-13.978,-2.781,-68.272
1747510054.51,-0.016,-0.035,-0.038,-0.109,-0.027,-0.000,-14.101,-2.797,-68.280
1747510054.53,0.024,-0.024,-0.026,-0.114,0.004,0.005,-14.218,-2.816,-68.284
1747510054.55,0.038,-0.026,-0.029,-0.109,0.009,0.011,-14.341,-2.803,-68.279
1747510054.57,0.000,-0.027,-0.001,-0.105,0.008,0.006,-14.464,-2.780,-68.272
1747510054.59,-0.025,-0.025,-0.053,-0.093,-0.017,0.000,-14.564,-2.800,-68.274
1747510054.61,-0.029,-0.027,-0.018,-0.093,-0.008,-0.006,-14.660,-2.815,-68.285
1747510054.63,0.041,-0.019,-0.010,-0.098,0.020,0.003,-14.764,-2.795,-68.291
1747510054.65,0.045,-0.037,-0.051,-0.097,0.035,0.009,-14.867,-2.762,-68.288
1747510054.67,-0.025,-0.025,0.000,-0.097,0.049,0.004,-14.975,-2.705,-68.287
1747510054.69,-0.028,-0.017,-0.015,-0.135,0.118,-0.011,-15.093,-2.635,-68.298
1747510054.71,0.006,-0.026,-0.027,-0.031,-0.060,0.003,-15.210,-2.553,-68.310
1747510054.73,0.056,-0.028,-0.123,-0.084,0.062,0.007,-15.164,-2.735,-68.290
1747510054.75,0.029,-0.022,-0.042,-0.062,0.035,0.008,-15.216,-2.731,-68.281
1747510054.77,-0.029,-0.021,-0.025,-0.042,-0.005,0.000,-15.258,-2.742,-68.279
1747510054.79,-0.021,-0.027,-0.027,-0.023,-0.025,-0.003,-15.291,-2.764,-68.283
1747510054.81,0.027,-0.027,-0.025,-0.021,-0.007,0.002,-15.312,-2.781,-68.285
1747510054.83,0.023,-0.025,-0.027,-0.017,0.003,0.004,-15.331,-2.781,-68.281
1747510054.85,0.001,-0.024,-0.021,-0.018,0.011,-0.001,-15.348,-2.773,-68.280
1747510054.87,-0.003,-0.038,-0.028,-0.010,0.017,0.001,-15.360,-2.759,-68.281
1747510054.89,0.012,-0.020,-0.018,0.002,0.021,0.001,-15.357,-2.739,-68.280
1747510054.91,0.006,-0.023,-0.025,0.016,0.007,0.003,-15.339,-2.716,-68.274
1747510054.93,-0.009,-0.036,-0.039,0.029,-0.007,-0.002,-15.306,-2.718,-68.271
1747510054.95,0.007,-0.019,-0.026,0.041,-0.018,-0.003,-15.258,-2.738,-68.272
1747510054.97,0.023,-0.027,-0.027,0.049,-0.005,0.004,-15.201,-2.753,-68.267
1747510054.99,0.007,-0.031,-0.018,0.054,0.009,0.001,-15.140,-2.746,-68.260
1747510055.01,-0.011,-0.031,-0.021,0.057,0.025,-0.001,-15.069,-2.727,-68.257
1747510055.03,-0.008,-0.021,-0.016,0.064,0.022,-0.003,-14.997,-2.698,-68.258
1747510055.05,0.016,-0.018,-0.024,0.081,0.012,-0.003,-14.908,-2.674,-68.259
1747510055.07,0.023,-0.032,-0.036,0.096,0.009,0.001,-14.798,-2.664,-68.254
1747510055.09,0.004,-0.022,-0.018,0.104,0.007,-0.000,-14.678,-2.654,-68.248
1747510055.11,-0.011,-0.020,-0.007,0.110,0.020,-0.005,-14.550,-2.638,-68.245
1747510055.13,0.000,-0.017,-0.010,0.122,0.014,-0.006,-14.414,-2.614,-68.244
1747510055.15,0.009,-0.014,-0.007,0.127,0.025,0.001,-14.260,-2.584,-68.240
1747510055.17,0.013,-0.022,-0.024,0.143,0.018,-0.003,-14.098,-2.555,-68.235
1747510055.19,0.009,-0.013,-0.013,0.161,0.007,-0.003,-13.921,-2.542,-68.230
1747510055.21,0.002,-0.009,-0.007,0.170,0.002,-0.003,-13.729,-2.538,-68.224
1747510055.23,-0.007,-0.008,0.004,0.175,0.013,-0.005,-13.532,-2.525,-68.219
1747510055.25,0.007,-0.008,-0.002,0.187,0.014,-0.005,-13.322,-2.503,-68.215
1747510055.27,0.012,-0.015,-0.017,0.196,0.023,-0.005,-13.101,-2.478,-68.210
1747510055.29,-0.000,0.004,0.009,0.204,0.020,-0.004,-12.874,-2.450,-68.206
1747510055.31,-0.001,0.000,0.003,0.211,0.026,-0.004,-12.640,-2.423,-68.202
1747510055.33,0.008,-0.004,-0.008,0.224,0.022,-0.004,-12.395,-2.397,-68.196
1747510055.35,0.005,0.008,0.009,0.232,0.025,-0.005,-12.134,-2.365,-68.191
1747510055.37,-0.002,0.008,0.009,0.236,0.027,-0.006,-11.871,-2.335,-68.185
1747510055.39,-0.002,0.011,0.013,0.246,0.027,-0.008,-11.603,-2.304,-68.182
1747510055.41,0.012,0.007,0.004,0.254,0.032,-0.006,-11.322,-2.268,-68.175
1747510055.43,0.008,0.013,0.011,0.258,0.027,-0.006,-11.038,-2.230,-68.167
1747510055.45,-0.006,0.022,0.023,0.267,0.027,-0.006,-10.746,-2.199,-68.162
1747510055.47,-0.004,0.016,0.014,0.274,0.021,-0.008,-10.446,-2.174,-68.159
1747510055.49,0.008,0.019,0.016,0.280,0.027,-0.008,-10.139,-2.143,-68.154
1747510055.51,0.007,0.018,0.016,0.287,0.027,-0.009,-9.824,-2.108,-68.147
1747510055.53,-0.005,0.025,0.018,0.288,0.023,-0.007,-9.499,-2.077,-68.142
1747510055.55,0.002,0.026,0.023,0.294,0.035,-0.007,-9.166,-2.046,-68.138
1747510055.57,0.008,0.020,0.018,0.299,0.034,-0.006,-8.829,-2.007,-68.132
1747510055.59,-0.004,0.032,0.025,0.304,0.034,-0.006,-8.484,-1.967,-68.126
1747510055.61,-0.003,0.032,0.021,0.309,0.028,-0.008,-8.132,-1.931,-68.122
1747510055.63,0.008,0.034,0.023,0.316,0.034,-0.005,-7.776,-1.897,-68.117
1747510055.65,0.003,0.036,0.021,0.316,0.031,-0.006,-7.417,-1.860,-68.112
1747510055.67,-0.004,0.041,0.024,0.319,0.033,-0.007,-7.055,-1.824,-68.108
1747510055.69,0.001,0.044,0.024,0.323,0.033,-0.007,-6.689,-1.784,-68.104
1747510055.71,-0.004,0.040,0.024,0.324,0.031,-0.007,-6.320,-1.746,-68.101
1747510055.73,0.003,0.047,0.024,0.327,0.028,-0.006,-5.949,-1.710,-68.098
1747510055.75,0.006,0.044,0.020,0.333,0.026,-0.004,-5.573,-1.681,-68.094
1747510055.77,-0.001,0.045,0.021,0.334,0.025,-0.007,-5.192,-1.651,-68.089
1747510055.79,-0.005,0.052,0.026,0.335,0.024,-0.005,-4.810,-1.622,-68.086
1747510055.81,-0.001,0.051,0.020,0.340,0.020,-0.007,-4.426,-1.596,-68.083
1747510055.83,0.004,0.054,0.020,0.335,0.027,-0.007,-4.042,-1.568,-68.081
1747510055.85,0.001,0.056,0.019,0.334,0.024,-0.005,-3.658,-1.537,-68.077
1747510055.87,-0.006,0.059,0.017,0.337,0.022,-0.004,-3.274,-1.510,-68.072
1747510055.89,-0.001,0.058,0.019,0.337,0.019,-0.005,-2.889,-1.485,-68.067
1747510055.91,0.001,0.063,0.011,0.339,0.017,-0.004,-2.504,-1.463,-68.063
1747510055.93,-0.002,0.063,0.015,0.334,0.022,-0.006,-2.121,-1.442,-68.059
1747510055.95,-0.000,0.063,0.016,0.332,0.027,-0.004,-1.740,-1.414,-68.055
1747510055.97,0.003,0.062,0.007,0.332,0.022,-0.007,-1.361,-1.386,-68.050
1747510055.98,-0.012,0.067,0.010,0.330,0.021,-0.006,-0.984,-1.361,-68.047
1747510056.01,-0.001,0.060,0.011,0.327,0.026,-0.003,-0.610,-1.332,-68.043
1747510056.03,0.017,0.073,0.015,0.318,0.047,-0.004,-0.234,-1.307,-68.037
1747510056.05,-0.010,0.060,0.007,0.328,-0.004,-0.003,0.133,-1.286,-68.032
1747510056.06,-0.008,0.071,0.013,0.321,0.022,-0.004,0.499,-1.263,-68.028
1747510056.08,0.003,0.058,0.006,0.311,0.034,-0.003,0.865,-1.236,-68.024
1747510056.10,-0.001,0.067,0.001,0.312,0.025,-0.003,1.225,-1.210,-68.020
1747510056.12,-0.003,0.060,0.003,0.312,0.029,-0.004,1.583,-1.189,-68.015
1747510056.14,-0.003,0.064,-0.000,0.313,0.021,-0.002,1.937,-1.156,-68.011
1747510056.16,0.001,0.059,0.007,0.307,0.026,0.001,2.288,-1.122,-68.005
1747510056.18,-0.009,0.061,-0.004,0.303,0.027,-0.007,2.637,-1.094,-68.003
1747510056.20,-0.003,0.060,-0.001,0.297,0.026,-0.005,2.981,-1.066,-68.000
1747510056.22,0.015,0.060,-0.009,0.299,0.011,-0.001,3.322,-1.043,-67.996
1747510056.24,-0.004,0.059,-0.009,0.295,0.019,-0.001,3.659,-1.023,-67.991
1747510056.26,-0.014,0.058,-0.002,0.292,0.013,-0.002,3.992,-1.002,-67.988
1747510056.28,0.001,0.057,-0.004,0.282,0.027,-0.005,4.318,-0.976,-67.986
1747510056.31,0.011,0.056,-0.008,0.280,0.021,-0.002,4.642,-0.951,-67.982
1747510056.32,-0.010,0.057,-0.006,0.281,0.017,-0.004,4.964,-0.929,-67.978
1747510056.34,-0.009,0.057,-0.003,0.277,0.015,-0.001,5.281,-0.909,-67.976
1747510056.36,0.007,0.055,-0.013,0.269,0.021,-0.003,5.594,-0.889,-67.973
1747510056.38,0.006,0.055,-0.007,0.268,0.012,0.001,5.902,-0.868,-67.970
1747510056.40,-0.004,0.058,-0.006,0.265,0.017,0.001,6.207,-0.850,-67.966
1747510056.42,-0.011,0.056,-0.005,0.256,0.028,-0.004,6.505,-0.823,-67.963
1747510056.44,0.004,0.054,-0.013,0.253,0.024,-0.001,6.796,-0.795,-67.961
1747510056.46,-0.003,0.056,-0.007,0.249,0.018,-0.000,7.083,-0.771,-67.960
1747510056.48,0.000,0.055,-0.007,0.248,0.014,-0.000,7.369,-0.751,-67.958
1747510056.50,0.016,0.056,-0.019,0.245,0.007,0.001,7.641,-0.742,-67.952
1747510056.52,-0.018,0.057,-0.002,0.231,0.020,-0.005,7.894,-0.728,-67.950
1747510056.54,-0.018,0.056,-0.004,0.230,0.017,-0.006,8.135,-0.707,-67.951
1747510056.56,0.026,0.050,-0.021,0.223,0.018,0.002,8.369,-0.690,-67.949
1747510056.58,0.005,0.056,-0.004,0.221,0.022,-0.001,8.597,-0.664,-67.946
1747510056.60,-0.029,0.054,-0.006,0.214,0.013,-0.003,8.818,-0.645,-67.945
1747510056.62,-0.002,0.054,-0.011,0.206,0.018,-0.003,9.036,-0.638,-67.945
1747510056.64,0.012,0.046,-0.016,0.199,0.015,-0.001,9.245,-0.614,-67.945
1747510056.66,-0.001,0.058,-0.007,0.194,0.022,0.000,9.445,-0.589,-67.944
1747510056.68,-0.003,0.062,-0.011,0.185,0.008,-0.001,9.640,-0.587,-67.942
1747510056.70,-0.001,0.052,-0.011,0.181,0.001,-0.001,9.827,-0.582,-67.940
1747510056.72,0.004,0.053,-0.006,0.172,0.008,-0.002,10.007,-0.569,-67.940
1747510056.74,-0.002,0.060,-0.006,0.164,0.017,0.001,10.175,-0.555,-67.938
1747510056.76,-0.012,0.061,-0.010,0.153,0.020,0.000,10.332,-0.540,-67.934
1747510056.78,-0.005,0.049,-0.017,0.146,0.008,0.002,10.481,-0.522,-67.932
1747510056.80,0.007,0.048,-0.012,0.136,0.011,-0.000,10.620,-0.510,-67.931
1747510056.82,0.005,0.059,-0.013,0.129,0.005,0.003,10.749,-0.503,-67.926
1747510056.84,-0.008,0.059,-0.011,0.114,0.003,0.000,10.864,-0.496,-67.922
1747510056.86,-0.002,0.043,-0.022,0.103,0.012,0.000,10.970,-0.492,-67.921
1747510056.88,0.004,0.003,-0.045,0.096,-0.009,0.003,11.063,-0.490,-67.919
1747510056.90,0.002,0.069,-0.001,0.076,0.011,0.003,11.142,-0.487,-67.915
1747510056.92,-0.002,0.050,-0.024,0.068,-0.001,0.004,11.204,-0.488,-67.910
1747510056.94,-0.011,0.047,-0.015,0.049,0.015,0.000,11.255,-0.481,-67.907
1747510056.96,-0.002,0.047,-0.013,0.045,0.000,0.005,11.299,-0.466,-67.905
1747510056.98,0.004,0.029,-0.034,0.030,-0.005,0.000,11.327,-0.469,-67.902
1747510057.00,0.006,0.062,-0.019,0.020,-0.003,0.004,11.339,-0.472,-67.899
1747510057.02,0.006,0.021,-0.039,-0.001,-0.010,0.006,11.342,-0.488,-67.892
1747510057.04,-0.015,0.034,-0.032,-0.016,-0.004,0.005,11.325,-0.501,-67.887
1747510057.06,-0.006,0.038,-0.019,-0.032,0.004,0.003,11.289,-0.498,-67.882
1747510057.08,0.009,0.031,-0.041,-0.049,-0.001,0.007,11.233,-0.499,-67.877
1747510057.10,-0.001,0.013,-0.038,-0.062,-0.002,0.006,11.164,-0.498,-67.873
1747510057.12,0.007,0.019,-0.035,-0.082,0.000,0.005,11.078,-0.500,-67.866
1747510057.14,-0.003,0.027,-0.039,-0.091,-0.014,0.007,10.976,-0.511,-67.860
1747510057.16,-0.010,0.003,-0.048,-0.107,-0.019,0.004,10.861,-0.530,-67.856
1747510057.18,0.005,0.002,-0.042,-0.121,-0.022,0.006,10.729,-0.557,-67.851
1747510057.20,0.014,0.005,-0.057,-0.137,-0.027,0.009,10.582,-0.591,-67.845
1747510057.22,-0.003,0.009,-0.036,-0.155,-0.027,0.009,10.412,-0.617,-67.836
1747510057.24,-0.003,-0.008,-0.042,-0.180,-0.001,0.005,10.222,-0.637,-67.830
1747510057.26,0.007,-0.002,-0.052,-0.196,0.001,0.008,10.008,-0.643,-67.824
1747510057.28,-0.005,-0.009,-0.044,-0.211,-0.005,0.006,9.772,-0.635,-67.819
1747510057.30,0.011,-0.018,-0.056,-0.226,-0.020,0.012,9.516,-0.650,-67.811
1747510057.32,-0.002,-0.022,-0.047,-0.238,-0.028,0.010,9.250,-0.667,-67.804
1747510057.34,0.003,-0.029,-0.064,-0.245,-0.039,0.008,8.981,-0.726,-67.798
1747510057.36,0.010,-0.030,-0.069,-0.263,-0.032,0.012,8.694,-0.779,-67.789
1747510057.38,0.007,-0.024,-0.046,-0.274,-0.047,0.012,8.381,-0.815,-67.780
1747510057.40,-0.006,-0.040,-0.045,-0.304,-0.009,0.010,8.051,-0.848,-67.772
1747510057.42,0.010,-0.038,-0.059,-0.314,-0.023,0.012,7.700,-0.870,-67.764
1747510057.44,0.009,-0.029,-0.060,-0.337,-0.009,0.011,7.332,-0.891,-67.757
1747510057.46,-0.005,-0.049,-0.074,-0.339,-0.048,0.013,6.948,-0.925,-67.749
1747510057.48,0.015,-0.048,-0.056,-0.351,-0.034,0.013,6.554,-0.976,-67.741
1747510057.50,0.021,-0.045,-0.063,-0.361,-0.045,0.017,6.146,-1.024,-67.731
1747510057.52,-0.006,-0.060,-0.043,-0.375,-0.034,0.012,5.721,-1.061,-67.722
1747510057.54,-0.013,-0.056,-0.055,-0.394,-0.027,0.011,5.280,-1.102,-67.716
1747510057.56,0.012,-0.058,-0.072,-0.402,-0.034,0.014,4.826,-1.143,-67.711
1747510057.58,0.021,-0.066,-0.059,-0.415,-0.039,0.015,4.358,-1.183,-67.702
1747510057.60,0.016,-0.074,-0.066,-0.422,-0.039,0.021,3.879,-1.231,-67.692
1747510057.62,-0.001,-0.078,-0.062,-0.432,-0.041,0.017,3.392,-1.281,-67.681
1747510057.64,-0.010,-0.066,-0.046,-0.444,-0.028,0.014,2.892,-1.319,-67.675
1747510057.66,0.005,-0.084,-0.055,-0.449,-0.033,0.014,2.379,-1.351,-67.672
1747510057.68,0.015,-0.082,-0.062,-0.456,-0.038,0.014,1.862,-1.395,-67.669
1747510057.70,0.033,-0.076,-0.065,-0.460,-0.042,0.019,1.340,-1.447,-67.660
1747510057.72,0.001,-0.085,-0.057,-0.464,-0.045,0.019,0.812,-1.498,-67.650
1747510057.74,-0.014,-0.086,-0.052,-0.473,-0.034,0.014,0.275,-1.542,-67.645
1747510057.76,0.003,-0.083,-0.052,-0.478,-0.030,0.012,-0.268,-1.581,-67.646
1747510057.78,0.012,-0.088,-0.057,-0.483,-0.035,0.016,-0.817,-1.615,-67.644
1747510057.80,0.026,-0.091,-0.061,-0.489,-0.026,0.017,-1.372,-1.650,-67.639
1747510057.82,0.012,-0.085,-0.053,-0.509,0.008,0.017,-1.940,-1.663,-67.636
1747510057.84,-0.013,-0.092,-0.047,-0.557,0.092,0.005,-2.539,-1.627,-67.640
1747510057.86,-0.008,-0.093,-0.006,-0.581,0.139,-0.001,-3.223,-1.436,-67.658
1747510057.88,0.024,-0.087,-0.114,-0.431,-0.129,0.018,-3.788,-1.452,-67.662
1747510057.90,0.031,-0.096,-0.078,-0.353,-0.264,0.031,-4.242,-1.670,-67.646
1747510057.92,0.021,-0.089,-0.042,-0.476,-0.031,0.020,-4.709,-1.857,-67.630
1747510057.94,-0.011,-0.095,-0.103,-0.449,-0.084,0.017,-5.228,-1.943,-67.626
1747510057.96,-0.007,-0.096,-0.043,-0.458,-0.064,0.011,-5.756,-2.013,-67.628
1747510057.98,0.025,-0.095,-0.040,-0.460,-0.031,0.020,-6.283,-2.064,-67.630
1747510058.00,0.029,-0.096,-0.055,-0.453,-0.038,0.020,-6.804,-2.106,-67.626
1747510058.02,0.010,-0.091,-0.050,-0.448,-0.032,0.022,-7.318,-2.145,-67.620
1747510058.04,-0.013,-0.098,-0.043,-0.437,-0.044,0.016,-7.826,-2.183,-67.619
1747510058.06,0.007,-0.094,-0.049,-0.422,-0.053,0.015,-8.317,-2.236,-67.622
1747510058.08,0.026,-0.090,-0.041,-0.413,-0.041,0.021,-8.794,-2.289,-67.619
1747510058.10,0.015,-0.092,-0.038,-0.413,-0.018,0.022,-9.264,-2.318,-67.615
1747510058.12,0.006,-0.093,-0.045,-0.403,-0.014,0.019,-9.731,-2.335,-67.611
1747510058.14,0.002,-0.086,-0.038,-0.383,-0.028,0.016,-10.183,-2.354,-67.609
1747510058.16,0.013,-0.090,-0.049,-0.372,-0.031,0.018,-10.613,-2.390,-67.606
1747510058.18,0.024,-0.088,-0.041,-0.364,-0.021,0.022,-11.034,-2.416,-67.598
1747510058.20,0.001,-0.084,-0.037,-0.350,-0.021,0.018,-11.439,-2.436,-67.591
1747510058.22,-0.017,-0.088,-0.056,-0.328,-0.050,0.012,-11.827,-2.478,-67.591
1747510058.24,0.011,-0.085,-0.036,-0.323,-0.037,0.016,-12.200,-2.528,-67.591
1747510058.26,0.029,-0.086,-0.046,-0.311,-0.023,0.020,-12.561,-2.561,-67.587
1747510058.28,0.002,-0.090,-0.044,-0.304,-0.006,0.016,-12.914,-2.573,-67.582
1747510058.30,-0.008,-0.089,-0.051,-0.290,-0.019,0.011,-13.252,-2.588,-67.582
1747510058.32,0.005,-0.091,-0.047,-0.271,-0.022,0.012,-13.572,-2.614,-67.584
1747510058.34,0.025,-0.090,-0.047,-0.258,-0.018,0.017,-13.874,-2.638,-67.581
1747510058.36,0.013,-0.091,-0.047,-0.244,-0.009,0.015,-14.161,-2.651,-67.576
1747510058.38,-0.009,-0.091,-0.052,-0.225,-0.022,0.008,-14.428,-2.671,-67.575
1747510058.40,-0.008,-0.093,-0.042,-0.212,-0.013,0.005,-14.677,-2.695,-67.580
1747510058.42,0.031,-0.093,-0.049,-0.190,-0.014,0.013,-14.908,-2.710,-67.580
1747510058.44,0.033,-0.100,-0.051,-0.171,-0.003,0.017,-15.106,-2.711,-67.571
1747510058.46,-0.005,-0.089,-0.049,-0.153,-0.001,0.009,-15.281,-2.715,-67.564
1747510058.48,-0.034,-0.090,-0.038,-0.136,-0.015,-0.001,-15.436,-2.724,-67.568
1747510058.50,0.011,-0.094,-0.047,-0.112,-0.011,0.002,-15.568,-2.736,-67.575
1747510058.52,0.052,-0.090,-0.055,-0.091,0.006,0.013,-15.670,-2.740,-67.570
1747510058.54,0.020,-0.087,-0.039,-0.066,0.007,0.015,-15.749,-2.722,-67.557
1747510058.56,-0.026,-0.091,-0.034,-0.036,-0.003,0.005,-15.798,-2.718,-67.550
1747510058.58,-0.014,-0.076,-0.035,-0.009,-0.012,-0.000,-15.812,-2.730,-67.550
1747510058.60,0.022,-0.079,-0.041,0.013,-0.010,0.003,-15.793,-2.737,-67.548
1747510058.62,0.030,-0.075,-0.031,0.036,0.012,0.008,-15.751,-2.728,-67.539
1747510058.64,0.011,-0.071,-0.029,0.063,0.015,0.005,-15.681,-2.712,-67.531
1747510058.66,-0.013,-0.065,-0.010,0.088,0.015,0.002,-15.581,-2.695,-67.524
1747510058.68,-0.005,-0.048,-0.008,0.115,0.017,0.000,-15.443,-2.672,-67.519
1747510058.70,0.011,-0.058,-0.018,0.142,0.014,0.003,-15.273,-2.639,-67.509
1747510058.72,0.025,-0.054,-0.020,0.167,0.017,0.002,-15.074,-2.613,-67.498
1747510058.74,0.011,-0.035,0.000,0.194,0.016,0.004,-14.847,-2.596,-67.485
1747510058.76,-0.007,-0.033,0.006,0.215,0.017,-0.002,-14.598,-2.579,-67.474
1747510058.78,-0.017,-0.020,0.029,0.231,0.035,-0.004,-14.330,-2.543,-67.466
1747510058.80,0.006,-0.015,0.016,0.254,0.037,-0.003,-14.037,-2.493,-67.458
1747510058.82,0.028,-0.024,-0.002,0.281,0.031,-0.000,-13.722,-2.449,-67.444
1747510058.84,0.014,-0.010,0.019,0.304,0.022,0.003,-13.383,-2.415,-67.428
1747510058.86,-0.013,0.008,0.041,0.313,0.037,-0.004,-13.029,-2.381,-67.414
1747510058.88,-0.018,0.009,0.041,0.337,0.032,-0.008,-12.657,-2.342,-67.405
1747510058.90,0.007,0.005,0.035,0.348,0.044,-0.003,-12.265,-2.294,-67.396
1747510058.92,0.018,0.016,0.040,0.365,0.045,-0.002,-11.857,-2.239,-67.383
1747510058.94,0.002,0.030,0.046,0.381,0.036,-0.005,-11.430,-2.189,-67.369
1747510058.96,-0.002,0.029,0.049,0.398,0.029,-0.006,-10.984,-2.149,-67.356
1747510058.98,0.003,0.041,0.062,0.407,0.028,-0.004,-10.525,-2.106,-67.342
1747510059.00,-0.009,0.038,0.059,0.419,0.038,-0.005,-10.051,-2.066,-67.329
1747510059.01,-0.003,0.045,0.057,0.425,0.048,-0.008,-9.570,-2.014,-67.320
1747510059.03,0.012,0.053,0.061,0.437,0.041,-0.003,-9.080,-1.960,-67.310
1747510059.05,0.003,0.058,0.061,0.445,0.040,-0.004,-8.578,-1.913,-67.296
1747510059.07,-0.014,0.068,0.062,0.449,0.046,-0.008,-8.068,-1.868,-67.286
1747510059.09,-0.006,0.069,0.066,0.455,0.045,-0.006,-7.551,-1.815,-67.276
1747510059.11,0.003,0.076,0.066,0.459,0.043,-0.007,-7.029,-1.762,-67.266
1747510059.13,-0.001,0.077,0.058,0.463,0.044,-0.006,-6.503,-1.710,-67.256
1747510059.15,0.001,0.082,0.058,0.469,0.042,-0.004,-5.971,-1.660,-67.245
1747510059.17,-0.004,0.089,0.067,0.470,0.036,-0.004,-5.436,-1.610,-67.235
1747510059.19,-0.011,0.091,0.061,0.471,0.042,-0.006,-4.897,-1.563,-67.227
1747510059.21,-0.003,0.102,0.055,0.474,0.043,-0.003,-4.357,-1.513,-67.218
1747510059.23,0.001,0.096,0.050,0.478,0.035,-0.004,-3.813,-1.466,-67.210
1747510059.25,-0.005,0.110,0.052,0.477,0.040,-0.005,-3.269,-1.422,-67.202
1747510059.27,-0.002,0.098,0.044,0.475,0.044,-0.003,-2.727,-1.373,-67.193
1747510059.29,-0.008,0.115,0.044,0.476,0.038,-0.007,-2.185,-1.325,-67.187
1747510059.31,-0.012,0.107,0.047,0.474,0.041,-0.006,-1.642,-1.277,-67.182
1747510059.33,-0.003,0.116,0.034,0.473,0.042,-0.006,-1.102,-1.229,-67.176
1747510059.35,-0.001,0.113,0.026,0.470,0.031,-0.007,-0.563,-1.187,-67.172
1747510059.37,-0.008,0.118,0.034,0.471,0.031,-0.005,-0.026,-1.149,-67.166
1747510059.39,-0.005,0.117,0.024,0.465,0.037,-0.005,0.508,-1.108,-67.161
1747510059.41,-0.008,0.118,0.019,0.458,0.038,-0.006,1.036,-1.068,-67.157
1747510059.43,-0.014,0.118,0.022,0.451,0.036,-0.006,1.558,-1.027,-67.154
1747510059.45,0.002,0.117,0.012,0.451,0.029,-0.005,2.075,-0.992,-67.150
1747510059.47,-0.002,0.118,0.009,0.446,0.034,-0.005,2.586,-0.958,-67.146
1747510059.49,-0.015,0.115,0.018,0.438,0.039,-0.005,3.089,-0.915,-67.144
1747510059.51,-0.011,0.115,0.006,0.431,0.030,-0.007,3.586,-0.876,-67.142
1747510059.53,-0.011,0.114,0.009,0.422,0.035,-0.006,4.074,-0.840,-67.142
1747510059.55,0.002,0.109,-0.003,0.415,0.028,0.002,4.552,-0.802,-67.141
1747510059.57,0.006,0.112,-0.006,0.404,0.021,-0.003,5.021,-0.773,-67.138
1747510059.59,-0.018,0.104,0.002,0.396,0.026,-0.001,5.479,-0.747,-67.135
1747510059.61,-0.013,0.105,-0.000,0.386,0.033,-0.005,5.925,-0.714,-67.135
1747510059.63,-0.000,0.103,-0.008,0.371,0.031,-0.002,6.358,-0.680,-67.133
1747510059.65,-0.009,0.101,-0.006,0.360,0.025,-0.004,6.776,-0.647,-67.132
1747510059.67,-0.003,0.094,-0.013,0.349,0.024,-0.004,7.182,-0.620,-67.132
1747510059.69,0.001,0.095,-0.007,0.339,0.020,-0.001,7.576,-0.597,-67.131
1747510059.71,-0.014,0.091,-0.018,0.322,0.025,-0.005,7.954,-0.575,-67.131
1747510059.73,-0.013,0.085,-0.011,0.303,0.025,-0.005,8.312,-0.549,-67.132
1747510059.75,0.005,0.085,-0.019,0.300,0.011,0.000,8.653,-0.523,-67.131
1747510059.77,-0.002,0.083,-0.011,0.276,0.021,-0.003,8.981,-0.505,-67.129
1747510059.79,-0.012,0.081,-0.018,0.262,0.012,-0.001,9.291,-0.487,-67.129
1747510059.81,0.001,0.074,-0.021,0.245,0.010,-0.001,9.580,-0.469,-67.129
1747510059.83,-0.002,0.080,-0.010,0.228,0.013,-0.002,9.852,-0.456,-67.128
1747510059.85,-0.015,0.071,-0.015,0.214,0.007,-0.003,10.105,-0.442,-67.127
1747510059.87,0.004,0.070,-0.025,0.199,0.011,-0.001,10.340,-0.431,-67.127
1747510059.89,0.007,0.065,-0.022,0.178,0.007,-0.000,10.529,-0.423,-67.124
1747510059.91,-0.013,0.061,-0.019,0.161,0.011,-0.001,10.692,-0.412,-67.123
1747510059.93,-0.004,0.061,-0.023,0.144,0.019,-0.000,10.836,-0.403,-67.121
1747510059.95,-0.001,0.057,-0.029,0.126,0.014,0.001,10.962,-0.387,-67.119
1747510059.97,-0.016,0.051,-0.027,0.104,0.004,-0.000,11.072,-0.375,-67.118
1747510059.99,0.003,0.045,-0.036,0.089,-0.004,0.003,11.167,-0.376,-67.117
1747510060.01,0.017,0.045,-0.039,0.073,-0.007,0.004,11.247,-0.385,-67.113
1747510060.03,-0.008,0.041,-0.033,0.049,-0.002,0.004,11.305,-0.392,-67.106
1747510060.05,-0.013,0.033,-0.033,0.030,0.009,0.002,11.342,-0.393,-67.102
1747510060.07,-0.004,0.040,-0.031,0.006,0.013,0.002,11.352,-0.382,-67.100
1747510060.09,-0.003,0.028,-0.041,-0.015,0.013,0.002,11.340,-0.366,-67.098
1747510060.11,0.009,0.027,-0.047,-0.023,-0.012,0.005,11.310,-0.363,-67.094
1747510060.13,0.005,0.027,-0.047,-0.043,-0.021,0.005,11.269,-0.385,-67.088
1747510060.15,-0.009,0.015,-0.041,-0.066,-0.014,0.006,11.206,-0.407,-67.083
1747510060.17,-0.004,0.017,-0.046,-0.084,-0.015,0.006,11.118,-0.426,-67.078
1747510060.19,0.007,0.000,-0.052,-0.108,-0.017,0.007,11.009,-0.443,-67.071
1747510060.21,-0.005,0.007,-0.038,-0.105,-0.042,0.009,10.875,-0.453,-67.064
1747510060.23,0.013,-0.003,-0.051,-0.158,0.022,0.007,10.724,-0.472,-67.057
1747510060.25,-0.010,-0.006,-0.088,-0.167,-0.015,0.005,10.541,-0.481,-67.052
1747510060.27,-0.006,-0.010,-0.041,-0.170,-0.040,0.006,10.344,-0.500,-67.049
1747510060.29,0.016,-0.024,-0.059,-0.209,-0.003,0.006,10.122,-0.520,-67.043
1747510060.31,-0.001,-0.054,-0.061,-0.219,-0.015,0.007,9.883,-0.540,-67.034
1747510060.33,-0.002,-0.020,-0.079,-0.239,-0.011,0.009,9.628,-0.566,-67.028
1747510060.35,0.013,-0.007,-0.054,-0.235,-0.043,0.012,9.356,-0.598,-67.018
1747510060.37,-0.006,-0.017,-0.042,-0.276,-0.009,0.007,9.057,-0.614,-67.011
1747510060.39,-0.003,-0.055,-0.063,-0.289,-0.016,0.009,8.735,-0.628,-67.007
1747510060.41,0.028,-0.040,-0.072,-0.306,-0.009,0.012,8.399,-0.654,-66.999
1747510060.43,0.007,-0.027,-0.070,-0.324,-0.008,0.015,8.042,-0.674,-66.986
1747510060.45,-0.018,-0.049,-0.054,-0.333,-0.027,0.010,7.663,-0.688,-66.979
1747510060.47,-0.017,-0.035,-0.056,-0.341,-0.040,0.007,7.275,-0.724,-66.976
1747510060.49,0.026,-0.054,-0.073,-0.355,-0.042,0.012,6.874,-0.770,-66.971
1747510060.51,0.028,-0.047,-0.052,-0.370,-0.048,0.017,6.456,-0.813,-66.961
1747510060.53,-0.004,-0.053,-0.067,-0.390,-0.042,0.015,6.023,-0.866,-66.949
1747510060.55,-0.016,-0.066,-0.072,-0.406,-0.035,0.010,5.573,-0.919,-66.942
1747510060.57,0.002,-0.054,-0.062,-0.413,-0.043,0.013,5.107,-0.967,-66.938
1747510060.59,0.022,-0.067,-0.072,-0.421,-0.061,0.015,4.631,-1.022,-66.929
1747510060.61,0.006,-0.070,-0.069,-0.430,-0.067,0.018,4.146,-1.100,-66.919
1747510060.63,0.008,-0.070,-0.063,-0.454,-0.049,0.015,3.644,-1.170,-66.910
1747510060.65,0.011,-0.078,-0.057,-0.474,-0.020,0.019,3.113,-1.206,-66.901
1747510060.67,-0.004,-0.078,-0.061,-0.493,-0.008,0.013,2.561,-1.221,-66.895
1747510060.69,-0.015,-0.079,-0.057,-0.519,0.015,0.006,1.985,-1.216,-66.896
1747510060.71,0.006,-0.090,-0.045,-0.694,0.311,-0.008,1.328,-1.092,-66.908
1747510060.73,-0.051,-0.101,-0.078,-0.494,-0.115,0.019,0.605,-0.843,-66.956
1747510060.75,0.020,-0.080,-0.027,-0.504,-0.041,0.017,0.029,-0.905,-66.944
1747510060.77,-0.017,-0.096,-0.065,-0.509,-0.053,0.011,-0.554,-0.967,-66.937
1747510060.79,-0.017,-0.092,-0.104,-0.347,-0.379,-0.026,-1.056,-1.203,-66.947
1747510060.81,0.025,-0.103,-0.101,-0.516,-0.055,0.017,-1.498,-1.553,-66.967
1747510060.83,0.032,-0.095,-0.126,-0.514,-0.067,0.025,-2.066,-1.667,-66.958
1747510060.85,0.001,-0.108,-0.056,-0.523,-0.065,0.020,-2.657,-1.743,-66.949
1747510060.87,-0.017,-0.106,-0.062,-0.523,-0.068,0.018,-3.257,-1.815,-66.947
1747510060.89,0.008,-0.106,-0.059,-0.524,-0.046,0.017,-3.854,-1.883,-66.947
1747510060.91,0.021,-0.110,-0.058,-0.527,-0.038,0.021,-4.454,-1.931,-66.946
1747510060.93,0.018,-0.113,-0.067,-0.524,-0.037,0.022,-5.053,-1.971,-66.942
1747510060.95,0.009,-0.105,-0.059,-0.512,-0.050,0.021,-5.645,-2.018,-66.938
1747510060.97,-0.005,-0.114,-0.054,-0.509,-0.045,0.018,-6.227,-2.069,-66.938
1747510060.99,0.005,-0.114,-0.061,-0.501,-0.042,0.018,-6.803,-2.123,-66.940
1747510061.01,0.030,-0.106,-0.057,-0.483,-0.046,0.023,-7.363,-2.181,-66.936
1747510061.03,0.014,-0.112,-0.052,-0.475,-0.045,0.024,-7.910,-2.235,-66.928
1747510061.05,-0.017,-0.114,-0.056,-0.473,-0.037,0.017,-8.451,-2.281,-66.927
1747510061.07,0.006,-0.107,-0.038,-0.459,-0.028,0.018,-8.983,-2.318,-66.930
1747510061.09,0.037,-0.109,-0.063,-0.445,-0.030,0.019,-9.500,-2.350,-66.930
1747510061.11,0.027,-0.106,-0.040,-0.431,-0.024,0.029,-9.999,-2.376,-66.922
1747510061.13,-0.013,-0.102,-0.050,-0.417,-0.026,0.018,-10.483,-2.401,-66.915
1747510061.15,-0.023,-0.105,-0.051,-0.399,-0.043,0.009,-10.950,-2.439,-66.918
1747510061.17,0.007,-0.103,-0.046,-0.385,-0.037,0.013,-11.397,-2.486,-66.925
1747510061.19,0.043,-0.103,-0.053,-0.372,-0.028,0.023,-11.827,-2.525,-66.925
1747510061.21,0.031,-0.104,-0.048,-0.354,-0.020,0.024,-12.242,-2.549,-66.916
1747510061.23,-0.012,-0.102,-0.040,-0.339,-0.025,0.017,-12.639,-2.571,-66.911
1747510061.25,-0.026,-0.102,-0.047,-0.323,-0.033,0.009,-13.016,-2.604,-66.914
1747510061.27,0.001,-0.099,-0.049,-0.299,-0.041,0.007,-13.362,-2.665,-66.923
1747510061.29,0.043,-0.103,-0.045,-0.287,-0.024,0.014,-13.699,-2.700,-66.926
1747510061.31,0.034,-0.103,-0.046,-0.266,-0.012,0.022,-14.014,-2.719,-66.920
1747510061.33,-0.005,-0.099,-0.042,-0.244,-0.008,0.014,-14.306,-2.729,-66.913
1747510061.35,-0.021,-0.091,-0.036,-0.225,-0.015,0.007,-14.576,-2.742,-66.913
1747510061.37,-0.007,-0.098,-0.048,-0.203,-0.020,0.004,-14.820,-2.766,-66.919
1747510061.39,0.033,-0.098,-0.050,-0.182,-0.017,0.013,-15.039,-2.786,-66.921
1747510061.41,0.040,-0.094,-0.053,-0.155,-0.010,0.018,-15.213,-2.808,-66.915
1747510061.43,-0.006,-0.096,-0.045,-0.133,-0.004,0.012,-15.365,-2.820,-66.905
1747510061.45,-0.027,-0.088,-0.031,-0.111,-0.011,0.001,-15.489,-2.828,-66.905
1747510061.47,0.001,-0.083,-0.027,-0.084,-0.006,0.003,-15.582,-2.832,-66.908
1747510061.49,0.035,-0.087,-0.041,-0.060,0.000,0.008,-15.646,-2.826,-66.904
1747510061.51,0.031,-0.088,-0.044,-0.031,0.005,0.010,-15.682,-2.817,-66.894
1747510061.53,-0.005,-0.078,-0.030,-0.006,0.004,0.007,-15.687,-2.814,-66.886
1747510061.55,-0.019,-0.063,-0.015,0.020,-0.007,-0.002,-15.660,-2.816,-66.884
1747510061.57,-0.005,-0.062,-0.010,0.046,-0.000,-0.004,-15.594,-2.810,-66.883
1747510061.59,0.028,-0.067,-0.024,0.070,0.014,0.005,-15.496,-2.790,-66.875
1747510061.61,0.034,-0.064,-0.027,0.097,0.018,0.007,-15.373,-2.763,-66.862
1747510061.63,-0.006,-0.047,-0.008,0.128,0.017,0.003,-15.223,-2.747,-66.850
1747510061.65,-0.021,-0.040,0.004,0.149,0.016,-0.003,-15.048,-2.729,-66.844
1747510061.67,0.007,-0.038,-0.007,0.175,0.018,-0.003,-14.841,-2.702,-66.837
1747510061.69,0.017,-0.032,0.006,0.198,0.024,0.000,-14.607,-2.661,-66.825
1747510061.71,0.014,-0.027,0.004,0.225,0.027,0.001,-14.351,-2.626,-66.812
1747510061.73,-0.005,-0.019,0.013,0.247,0.027,-0.007,-14.073,-2.600,-66.803
1747510061.75,-0.006,-0.006,0.024,0.263,0.034,-0.004,-13.771,-2.564,-66.795
1747510061.77,0.006,-0.007,0.022,0.286,0.031,-0.006,-13.452,-2.521,-66.786
1747510061.79,0.012,-0.001,0.025,0.307,0.032,-0.002,-13.112,-2.476,-66.774
1747510061.81,0.005,0.002,0.028,0.330,0.046,0.001,-12.750,-2.431,-66.760
1747510061.83,-0.004,0.010,0.042,0.335,0.048,-0.005,-12.376,-2.372,-66.748
1747510061.85,-0.001,0.022,0.043,0.347,0.054,-0.005,-11.985,-2.314,-66.737
1747510061.87,-0.000,0.023,0.042,0.369,0.051,-0.005,-11.576,-2.255,-66.726
1747510061.89,0.006,0.025,0.040,0.384,0.047,-0.004,-11.146,-2.200,-66.713
1747510061.91,0.004,0.037,0.056,0.398,0.047,-0.003,-10.702,-2.139,-66.699
1747510061.93,-0.008,0.049,0.055,0.404,0.040,-0.004,-10.243,-2.088,-66.687
1747510061.94,-0.005,0.044,0.058,0.417,0.045,-0.005,-9.775,-2.037,-66.676
1747510061.97,0.008,0.044,0.054,0.423,0.037,-0.005,-9.296,-1.986,-66.665
1747510061.99,-0.003,0.060,0.057,0.432,0.045,-0.006,-8.808,-1.941,-66.655
1747510062.01,-0.013,0.066,0.061,0.434,0.046,-0.005,-8.315,-1.886,-66.643
1747510062.02,0.004,0.070,0.056,0.443,0.048,-0.005,-7.813,-1.829,-66.633
1747510062.04,0.002,0.068,0.058,0.447,0.049,-0.007,-7.305,-1.774,-66.622
1747510062.06,-0.007,0.079,0.069,0.450,0.054,-0.007,-6.794,-1.707,-66.614
1747510062.08,-0.008,0.085,0.058,0.452,0.062,-0.005,-6.279,-1.641,-66.605
1747510062.10,0.003,0.077,0.064,0.461,0.052,-0.003,-5.760,-1.564,-66.596
1747510062.12,-0.005,0.096,0.057,0.452,0.057,-0.005,-5.238,-1.508,-66.587
1747510062.14,-0.009,0.090,0.044,0.463,0.051,-0.005,-4.714,-1.453,-66.581
1747510062.16,0.003,0.100,0.045,0.461,0.051,-0.002,-4.191,-1.393,-66.572
1747510062.18,-0.009,0.097,0.060,0.449,0.085,-0.002,-3.669,-1.313,-66.563
1747510062.20,-0.017,0.104,0.041,0.462,0.051,-0.005,-3.148,-1.240,-66.557
1747510062.22,0.003,0.102,0.030,0.459,0.042,-0.004,-2.625,-1.190,-66.551
1747510062.24,0.002,0.107,0.039,0.454,0.035,-0.001,-2.104,-1.146,-66.543
1747510062.26,-0.018,0.104,0.036,0.454,0.038,-0.006,-1.586,-1.105,-66.538
1747510062.28,-0.002,0.109,0.030,0.451,0.036,-0.003,-1.069,-1.056,-66.532
1747510062.30,-0.003,0.107,0.027,0.446,0.039,-0.003,-0.555,-1.010,-66.527
1747510062.32,-0.016,0.111,0.031,0.446,0.039,-0.006,-0.047,-0.962,-66.524
1747510062.34,-0.000,0.104,0.018,0.444,0.040,-0.003,0.461,-0.916,-66.520
1747510062.36,-0.004,0.112,0.014,0.438,0.042,-0.004,0.964,-0.872,-66.515
1747510062.38,-0.010,0.104,0.018,0.435,0.046,-0.003,1.462,-0.824,-66.512
1747510062.40,-0.005,0.109,0.013,0.425,0.052,-0.003,1.953,-0.759,-66.508
1747510062.42,-0.008,0.105,0.008,0.422,0.038,-0.003,2.437,-0.701,-66.507
1747510062.44,-0.006,0.107,0.006,0.412,0.029,-0.001,2.914,-0.661,-66.505
1747510062.46,-0.006,0.104,0.006,0.406,0.029,-0.003,3.381,-0.630,-66.502
1747510062.48,-0.008,0.102,0.005,0.402,0.032,-0.003,3.843,-0.595,-66.500
1747510062.50,-0.008,0.101,0.004,0.396,0.035,-0.003,4.299,-0.553,-66.497
1747510062.52,-0.007,0.100,0.001,0.383,0.031,-0.003,4.744,-0.515,-66.497
1747510062.54,-0.006,0.099,-0.002,0.379,0.038,-0.001,5.179,-0.476,-66.496
1747510062.56,-0.002,0.095,-0.007,0.371,0.032,-0.001,5.607,-0.436,-66.494
1747510062.58,-0.005,0.094,-0.005,0.359,0.022,-0.000,6.024,-0.404,-66.492
1747510062.60,-0.009,0.090,-0.012,0.349,0.018,-0.001,6.424,-0.385,-66.490
1747510062.62,-0.004,0.087,-0.003,0.336,0.026,0.000,6.821,-0.345,-66.490
1747510062.64,0.002,0.082,-0.013,0.323,0.024,-0.001,7.198,-0.316,-66.488
1747510062.66,-0.014,0.080,-0.015,0.310,0.018,-0.002,7.562,-0.292,-66.487
1747510062.68,-0.011,0.076,-0.014,0.297,0.011,-0.002,7.907,-0.274,-66.488
1747510062.70,0.012,0.070,-0.007,0.291,0.001,-0.001,8.237,-0.256,-66.484
1747510062.72,-0.005,0.067,-0.019,0.274,0.011,0.001,8.559,-0.247,-66.482
1747510062.74,-0.014,0.066,-0.023,0.258,0.006,-0.001,8.863,-0.238,-66.481
1747510062.76,-0.002,0.062,-0.021,0.247,0.012,-0.001,9.151,-0.229,-66.480
1747510062.78,-0.006,0.063,-0.010,0.233,0.016,-0.001,9.428,-0.210,-66.480
1747510062.80,-0.005,0.056,-0.019,0.220,0.018,0.001,9.690,-0.190,-66.480
1747510062.82,-0.004,0.056,-0.033,0.205,-0.003,-0.002,9.932,-0.184,-66.479
1747510062.84,-0.002,0.051,-0.017,0.192,0.008,0.002,10.133,-0.180,-66.479
1747510062.86,0.007,0.049,-0.029,0.184,0.011,0.002,10.321,-0.169,-66.476
1747510062.88,-0.019,0.051,-0.012,0.166,0.014,-0.001,10.494,-0.157,-66.473
1747510062.90,-0.013,0.044,-0.030,0.149,0.006,-0.003,10.651,-0.148,-66.475
1747510062.92,0.030,0.049,-0.026,0.136,-0.003,0.007,10.795,-0.146,-66.474
1747510062.94,-0.000,0.054,-0.011,0.123,0.008,0.004,10.928,-0.142,-66.468
1747510062.96,-0.032,0.037,-0.021,0.107,0.010,-0.000,11.044,-0.136,-66.467
1747510062.98,0.004,0.043,-0.027,0.090,0.005,-0.003,11.143,-0.133,-66.466
1747510063.00,0.003,0.035,-0.028,0.071,-0.001,0.002,11.221,-0.122,-66.462
1747510063.02,-0.013,0.047,-0.030,0.063,-0.010,0.004,11.288,-0.125,-66.460
1747510063.04,0.015,0.029,-0.031,0.048,-0.014,0.003,11.344,-0.140,-66.454
1747510063.06,0.004,0.022,-0.038,0.032,-0.010,0.005,11.383,-0.155,-66.447
1747510063.08,-0.022,0.041,-0.018,0.017,-0.004,0.002,11.404,-0.159,-66.444
1747510063.10,-0.005,0.020,-0.035,0.002,0.001,0.000,11.407,-0.160,-66.443
1747510063.12,0.012,0.023,-0.039,-0.013,-0.002,0.002,11.397,-0.162,-66.440
1747510063.14,-0.000,0.027,-0.072,-0.024,-0.023,0.003,11.386,-0.202,-66.436
1747510063.16,0.000,0.023,-0.055,-0.042,-0.026,0.007,11.344,-0.239,-66.431
1747510063.18,0.008,0.016,-0.031,-0.060,-0.024,0.006,11.286,-0.271,-66.424
1747510063.20,-0.010,0.012,-0.037,-0.081,-0.014,0.005,11.204,-0.292,-66.417
1747510063.22,-0.014,0.010,-0.038,-0.095,-0.012,0.004,11.101,-0.310,-66.412
1747510063.24,0.011,0.004,-0.046,-0.110,-0.015,0.008,10.984,-0.328,-66.406
1747510063.26,0.020,0.000,-0.048,-0.110,-0.044,0.011,10.854,-0.351,-66.397
1747510063.28,-0.010,-0.003,-0.034,-0.121,-0.061,0.009,10.710,-0.384,-66.388
1747510063.30,0.002,-0.009,-0.036,-0.157,-0.008,0.007,10.552,-0.425,-66.379
1747510063.32,-0.008,0.002,-0.066,-0.177,0.010,0.001,10.363,-0.434,-66.372
1747510063.34,-0.006,-0.015,-0.046,-0.177,-0.024,0.004,10.162,-0.442,-66.367
1747510063.36,0.012,-0.021,-0.061,-0.199,-0.016,0.008,9.942,-0.456,-66.361
1747510063.38,0.010,-0.016,-0.042,-0.204,-0.028,0.011,9.710,-0.480,-66.353
1747510063.40,-0.003,-0.028,-0.064,-0.222,-0.031,0.010,9.467,-0.514,-66.344
1747510063.42,-0.009,-0.026,-0.054,-0.218,-0.061,0.009,9.211,-0.559,-66.335
1747510063.44,0.009,-0.033,-0.044,-0.242,-0.048,0.010,8.948,-0.617,-66.328
1747510063.46,0.008,-0.030,-0.047,-0.263,-0.026,0.011,8.660,-0.661,-66.320
1747510063.48,0.010,-0.039,-0.064,-0.275,-0.024,0.011,8.353,-0.689,-66.310
1747510063.50,-0.001,-0.041,-0.057,-0.289,-0.020,0.013,8.032,-0.721,-66.300
1747510063.52,-0.011,-0.036,-0.054,-0.301,-0.028,0.007,7.695,-0.746,-66.294
1747510063.54,0.007,-0.049,-0.052,-0.315,-0.014,0.012,7.344,-0.775,-66.288
1747510063.56,0.019,-0.044,-0.056,-0.326,-0.014,0.014,6.977,-0.795,-66.277
1747510063.58,0.007,-0.051,-0.042,-0.338,-0.018,0.013,6.597,-0.808,-66.266
1747510063.60,-0.010,-0.046,-0.060,-0.346,-0.027,0.009,6.207,-0.836,-66.259
1747510063.62,-0.006,-0.050,-0.057,-0.350,-0.036,0.009,5.810,-0.872,-66.254
1747510063.64,0.014,-0.058,-0.055,-0.361,-0.036,0.014,5.404,-0.915,-66.248
1747510063.66,0.021,-0.059,-0.053,-0.367,-0.034,0.015,4.986,-0.953,-66.236
1747510063.68,-0.001,-0.054,-0.046,-0.378,-0.034,0.015,4.560,-0.992,-66.225
1747510063.70,-0.010,-0.062,-0.049,-0.383,-0.036,0.011,4.126,-1.033,-66.219
1747510063.72,0.007,-0.067,-0.052,-0.390,-0.032,0.015,3.682,-1.074,-66.213
1747510063.74,0.020,-0.054,-0.052,-0.397,-0.036,0.015,3.233,-1.114,-66.206
1747510063.76,0.003,-0.067,-0.054,-0.386,-0.084,0.016,2.779,-1.166,-66.198
1747510063.78,-0.009,-0.077,-0.045,-0.404,-0.051,0.013,2.326,-1.242,-66.193
1747510063.80,0.017,-0.063,-0.046,-0.409,-0.040,0.015,1.862,-1.296,-66.187
1747510063.82,0.021,-0.069,-0.042,-0.421,-0.027,0.017,1.388,-1.335,-66.180
1747510063.84,-0.011,-0.071,-0.052,-0.421,-0.029,0.014,0.908,-1.370,-66.174
1747510063.86,-0.009,-0.067,-0.044,-0.432,-0.023,0.012,0.420,-1.403,-66.172
1747510063.88,0.017,-0.065,-0.048,-0.441,-0.021,0.020,-0.078,-1.429,-66.167
1747510063.90,0.023,-0.075,-0.055,-0.445,-0.017,0.021,-0.589,-1.449,-66.154
1747510063.92,0.008,-0.069,-0.045,-0.441,-0.029,0.020,-1.094,-1.477,-66.142
1747510063.94,-0.012,-0.074,-0.045,-0.437,-0.035,0.014,-1.594,-1.515,-66.138
1747510063.96,-0.001,-0.077,-0.046,-0.427,-0.040,0.013,-2.088,-1.560,-66.135
1747510063.98,0.021,-0.072,-0.043,-0.426,-0.039,0.016,-2.579,-1.606,-66.132
1747510064.00,0.017,-0.079,-0.051,-0.405,-0.088,0.020,-3.064,-1.660,-66.123
1747510064.02,0.003,-0.078,-0.036,-0.403,-0.088,0.018,-3.527,-1.762,-66.115
1747510064.04,-0.005,-0.070,-0.030,-0.419,-0.046,0.017,-4.004,-1.829,-66.110
1747510064.06,-0.005,-0.082,-0.042,-0.426,-0.026,0.013,-4.485,-1.874,-66.110
1747510064.08,0.015,-0.075,-0.041,-0.421,-0.021,0.016,-4.972,-1.898,-66.109
1747510064.10,0.023,-0.072,-0.040,-0.419,-0.021,0.019,-5.451,-1.920,-66.106
1747510064.12,0.000,-0.077,-0.041,-0.406,-0.032,0.018,-5.924,-1.949,-66.101
1747510064.14,-0.007,-0.074,-0.037,-0.411,-0.017,0.016,-6.390,-1.982,-66.099
1747510064.16,0.011,-0.068,-0.043,-0.390,-0.035,0.015,-6.845,-2.019,-66.099
1747510064.18,0.013,-0.074,-0.027,-0.382,-0.033,0.015,-7.285,-2.053,-66.098
1747510064.20,0.004,-0.070,-0.036,-0.373,-0.031,0.014,-7.716,-2.088,-66.097
1747510064.22,0.003,-0.069,-0.035,-0.365,-0.033,0.013,-8.135,-2.127,-66.097
1747510064.24,0.009,-0.069,-0.033,-0.350,-0.039,0.015,-8.543,-2.171,-66.096
1747510064.26,0.003,-0.064,-0.022,-0.341,-0.036,0.012,-8.940,-2.212,-66.098
1747510064.28,-0.003,-0.068,-0.037,-0.334,-0.037,0.010,-9.328,-2.256,-66.101
1747510064.30,0.020,-0.064,-0.025,-0.327,-0.026,0.017,-9.708,-2.292,-66.101
1747510064.32,0.035,-0.064,-0.022,-0.318,-0.011,0.028,-10.074,-2.308,-66.090
1747510064.34,0.022,-0.062,-0.032,-0.307,-0.008,0.026,-10.432,-2.312,-66.074
1747510064.36,-0.006,-0.054,-0.028,-0.298,-0.011,0.024,-10.778,-2.317,-66.058
1747510064.38,-0.033,-0.056,-0.024,-0.288,-0.024,0.010,-11.113,-2.336,-66.052
1747510064.40,-0.009,-0.056,-0.037,-0.277,-0.031,0.013,-11.435,-2.371,-66.053
1747510064.42,0.031,-0.055,-0.034,-0.273,-0.027,0.016,-11.749,-2.403,-66.051
1747510064.44,0.031,-0.060,-0.031,-0.265,-0.009,0.023,-12.055,-2.420,-66.040
1747510064.46,-0.000,-0.055,-0.029,-0.255,-0.006,0.018,-12.353,-2.426,-66.027
1747510064.48,-0.030,-0.056,-0.031,-0.246,-0.019,0.008,-12.640,-2.440,-66.025
1747510064.50,-0.020,-0.061,-0.040,-0.236,-0.028,0.004,-12.916,-2.470,-66.030
1747510064.52,0.033,-0.057,-0.042,-0.225,-0.023,0.013,-13.180,-2.502,-66.032
1747510064.54,0.043,-0.057,-0.038,-0.196,-0.053,0.019,-13.426,-2.524,-66.024
1747510064.56,-0.010,-0.064,-0.025,-0.208,-0.021,0.013,-13.648,-2.570,-66.016
1747510064.58,-0.039,-0.060,-0.032,-0.202,-0.020,0.005,-13.874,-2.592,-66.016
1747510064.60,-0.005,-0.059,-0.031,-0.194,-0.017,0.002,-14.090,-2.612,-66.023
1747510064.62,0.047,-0.065,-0.051,-0.183,-0.010,0.015,-14.295,-2.621,-66.022
1747510064.64,0.031,-0.060,-0.036,-0.170,-0.001,0.017,-14.487,-2.624,-66.011
1747510064.66,-0.017,-0.065,-0.044,-0.160,-0.012,0.009,-14.666,-2.636,-66.006
1747510064.68,-0.030,-0.064,-0.029,-0.147,-0.017,0.002,-14.832,-2.654,-66.008
1747510064.70,0.006,-0.061,-0.034,-0.138,-0.008,0.003,-14.983,-2.665,-66.013
1747510064.72,0.038,-0.068,-0.055,-0.123,-0.002,0.013,-15.119,-2.665,-66.008
1747510064.74,0.021,-0.064,-0.031,-0.104,0.000,0.012,-15.240,-2.662,-65.999
1747510064.76,-0.013,-0.071,-0.048,-0.094,-0.007,0.009,-15.345,-2.670,-65.994
1747510064.78,-0.018,-0.062,-0.032,-0.078,-0.007,0.002,-15.432,-2.679,-65.994
1747510064.80,0.009,-0.062,-0.025,-0.065,-0.000,0.007,-15.502,-2.675,-65.993
1747510064.82,0.023,-0.065,-0.045,-0.047,0.003,0.007,-15.555,-2.667,-65.986
1747510064.84,0.012,-0.071,-0.048,-0.030,-0.000,0.007,-15.588,-2.660,-65.979
1747510064.86,-0.002,-0.057,-0.027,-0.011,0.005,0.007,-15.601,-2.660,-65.972
1747510064.88,-0.001,-0.047,-0.023,0.007,0.003,0.003,-15.594,-2.653,-65.967
1747510064.90,-0.008,-0.062,-0.029,0.026,0.003,0.002,-15.564,-2.644,-65.963
1747510064.92,0.010,-0.058,-0.035,0.045,0.011,0.004,-15.510,-2.631,-65.958
1747510064.94,0.020,-0.046,-0.020,0.064,0.014,0.001,-15.435,-2.614,-65.950
1747510064.95,0.003,-0.048,-0.020,0.096,-0.010,0.001,-15.339,-2.599,-65.941
1747510064.97,-0.007,-0.053,-0.022,0.102,0.012,-0.000,-15.215,-2.595,-65.935
1747510064.99,0.000,-0.037,-0.013,0.121,0.015,0.003,-15.070,-2.576,-65.928
1747510065.01,0.010,-0.033,-0.009,0.140,0.014,0.002,-14.905,-2.548,-65.917
1747510065.03,0.004,-0.039,-0.021,0.160,0.014,-0.004,-14.714,-2.533,-65.908
1747510065.05,0.003,-0.030,-0.009,0.175,0.021,-0.001,-14.501,-2.515,-65.900
1747510065.07,0.005,-0.026,-0.000,0.198,0.025,0.002,-14.275,-2.488,-65.892
1747510065.09,0.009,-0.018,0.004,0.215,0.029,0.003,-14.032,-2.451,-65.879
1747510065.11,-0.004,-0.019,0.002,0.232,0.027,-0.002,-13.768,-2.415,-65.868
1747510065.13,-0.008,-0.010,0.012,0.250,0.026,-0.004,-13.487,-2.383,-65.859
1747510065.15,0.012,-0.005,0.014,0.272,0.022,0.000,-13.187,-2.350,-65.850
1747510065.17,0.012,-0.008,0.012,0.283,0.034,0.000,-12.869,-2.315,-65.837
1747510065.19,-0.008,-0.001,0.023,0.296,0.035,-0.001,-12.539,-2.276,-65.826
1747510065.21,-0.008,0.015,0.033,0.309,0.037,-0.004,-12.199,-2.232,-65.818
1747510065.23,0.011,0.007,0.018,0.324,0.037,-0.003,-11.842,-2.187,-65.806
1747510065.25,0.006,0.011,0.031,0.336,0.038,-0.002,-11.467,-2.142,-65.794
1747510065.27,-0.004,0.027,0.041,0.346,0.038,-0.003,-11.079,-2.095,-65.782
1747510065.29,-0.010,0.030,0.041,0.357,0.033,-0.006,-10.676,-2.055,-65.773
1747510065.31,0.001,0.028,0.036,0.369,0.027,-0.003,-10.262,-2.017,-65.763
1747510065.33,0.009,0.032,0.040,0.378,0.031,-0.001,-9.836,-1.980,-65.752
1747510065.35,-0.000,0.046,0.046,0.382,0.031,-0.005,-9.402,-1.941,-65.742
1747510065.37,-0.008,0.042,0.049,0.392,0.035,-0.004,-8.960,-1.902,-65.733
1747510065.39,-0.001,0.053,0.048,0.396,0.040,-0.008,-8.511,-1.860,-65.724
1747510065.41,-0.005,0.053,0.046,0.398,0.040,-0.007,-8.058,-1.810,-65.716
1747510065.43,-0.002,0.060,0.049,0.401,0.046,-0.007,-7.601,-1.760,-65.708
1747510065.45,0.001,0.063,0.046,0.406,0.041,-0.007,-7.141,-1.707,-65.699
1747510065.47,-0.003,0.065,0.048,0.413,0.037,-0.004,-6.673,-1.660,-65.691
1747510065.49,-0.010,0.077,0.050,0.414,0.038,-0.007,-6.203,-1.615,-65.683
1747510065.51,-0.006,0.072,0.044,0.414,0.037,-0.005,-5.730,-1.573,-65.677
1747510065.53,0.002,0.078,0.047,0.416,0.042,-0.006,-5.258,-1.526,-65.669
1747510065.55,0.001,0.083,0.033,0.415,0.036,-0.005,-4.783,-1.485,-65.661
1747510065.57,-0.016,0.086,0.043,0.416,0.028,-0.006,-4.309,-1.450,-65.655
1747510065.59,0.000,0.081,0.038,0.416,0.027,-0.004,-3.834,-1.416,-65.648
1747510065.61,0.003,0.087,0.033,0.412,0.032,-0.005,-3.363,-1.379,-65.640
1747510065.63,-0.020,0.088,0.036,0.412,0.038,-0.006,-2.894,-1.340,-65.634
1747510065.65,-0.010,0.089,0.031,0.410,0.034,-0.004,-2.425,-1.299,-65.629
1747510065.67,0.012,0.089,0.022,0.403,0.033,-0.001,-1.961,-1.259,-65.622
1747510065.69,-0.011,0.091,0.024,0.404,0.032,-0.005,-1.499,-1.221,-65.616
1747510065.71,-0.018,0.089,0.020,0.398,0.037,-0.006,-1.041,-1.182,-65.613
1747510065.73,0.003,0.089,0.021,0.395,0.032,-0.005,-0.588,-1.142,-65.609
1747510065.75,-0.004,0.087,0.016,0.391,0.032,-0.003,-0.138,-1.104,-65.603
1747510065.77,-0.014,0.090,0.013,0.381,0.031,-0.003,0.306,-1.070,-65.600
1747510065.79,0.004,0.088,0.005,0.383,0.024,-0.001,0.744,-1.036,-65.595
1747510065.81,-0.003,0.083,0.009,0.375,0.023,-0.005,1.178,-1.004,-65.590
1747510065.83,-0.021,0.086,0.009,0.371,0.028,-0.006,1.605,-0.974,-65.587
1747510065.85,-0.005,0.083,-0.001,0.368,0.027,-0.003,2.027,-0.941,-65.585
1747510065.87,0.006,0.081,-0.005,0.362,0.020,-0.004,2.444,-0.912,-65.580
1747510065.89,-0.008,0.084,0.005,0.353,0.047,-0.006,2.857,-0.886,-65.577
1747510065.91,-0.009,0.078,0.003,0.353,0.017,-0.005,3.264,-0.860,-65.575
1747510065.93,-0.004,0.079,-0.001,0.346,0.013,0.000,3.659,-0.828,-65.573
1747510065.95,-0.015,0.074,0.003,0.330,0.045,-0.003,4.046,-0.793,-65.570
1747510065.97,-0.009,0.074,-0.008,0.324,0.036,-0.007,4.424,-0.757,-65.569
1747510065.99,0.007,0.070,-0.012,0.323,0.026,-0.004,4.797,-0.729,-65.569
1747510066.01,-0.001,0.070,-0.015,0.321,0.006,-0.003,5.166,-0.709,-65.566
1747510066.03,-0.012,0.070,-0.004,0.309,0.019,-0.003,5.523,-0.690,-65.564
1747510066.05,-0.007,0.067,-0.012,0.303,0.025,0.001,5.874,-0.667,-65.562
1747510066.07,-0.010,0.064,-0.004,0.294,0.028,-0.001,6.217,-0.641,-65.560
1747510066.09,-0.004,0.063,-0.011,0.291,0.025,-0.003,6.551,-0.611,-65.560
1747510066.11,0.000,0.064,-0.014,0.283,0.022,-0.002,6.878,-0.583,-65.559
1747510066.13,-0.012,0.061,-0.010,0.274,0.018,-0.004,7.198,-0.559,-65.558
1747510066.15,-0.005,0.056,-0.018,0.268,0.012,-0.002,7.508,-0.538,-65.558
1747510066.17,0.009,0.060,-0.011,0.256,0.025,0.001,7.807,-0.519,-65.557
1747510066.19,-0.009,0.062,-0.009,0.252,0.021,0.000,8.097,-0.495,-65.553
1747510066.21,-0.015,0.055,-0.017,0.242,0.020,-0.004,8.378,-0.471,-65.552
1747510066.23,-0.004,0.055,-0.011,0.231,0.025,-0.001,8.649,-0.447,-65.552
1747510066.25,0.002,0.061,-0.011,0.227,0.012,0.000,8.912,-0.425,-65.550
1747510066.27,-0.005,0.055,-0.016,0.219,0.004,-0.000,9.143,-0.415,-65.548
1747510066.29,-0.000,0.050,-0.022,0.213,0.004,0.002,9.361,-0.415,-65.546
1747510066.31,-0.001,0.055,-0.007,0.200,0.020,0.001,9.570,-0.407,-65.544
1747510066.33,-0.021,0.055,-0.000,0.186,0.023,-0.004,9.765,-0.386,-65.544
1747510066.35,-0.010,0.051,-0.024,0.181,0.010,-0.004,9.948,-0.367,-65.545
1747510066.37,0.014,0.048,-0.018,0.167,0.016,0.002,10.124,-0.352,-65.544
1747510066.39,0.010,0.046,-0.020,0.161,0.007,0.004,10.289,-0.343,-65.540
1747510066.41,-0.022,0.050,-0.008,0.149,0.009,-0.002,10.441,-0.341,-65.536
1747510066.43,-0.021,0.046,-0.019,0.138,0.009,-0.004,10.584,-0.338,-65.537
1747510066.45,0.004,0.039,-0.021,0.129,0.009,0.001,10.716,-0.326,-65.539
1747510066.47,0.018,0.047,-0.019,0.123,0.001,0.002,10.836,-0.311,-65.538
1747510066.49,-0.010,0.041,-0.015,0.104,0.009,0.003,10.944,-0.310,-65.533
1747510066.51,-0.014,0.036,-0.023,0.090,0.009,-0.002,11.038,-0.311,-65.530
1747510066.53,-0.002,0.037,-0.022,0.081,0.008,0.002,11.120,-0.304,-65.528
1747510066.55,-0.002,0.037,-0.019,0.067,0.009,0.003,11.185,-0.285,-65.527
1747510066.57,0.002,0.034,-0.025,0.055,-0.000,0.003,11.239,-0.276,-65.523
1747510066.59,-0.003,0.027,-0.031,0.042,-0.002,0.001,11.287,-0.282,-65.518
1747510066.61,-0.008,0.028,-0.030,0.028,0.001,0.000,11.320,-0.286,-65.516
1747510066.63,0.005,0.028,-0.022,0.018,0.000,0.006,11.337,-0.284,-65.513
1747510066.65,-0.001,0.027,-0.028,0.003,0.003,0.001,11.340,-0.283,-65.508
1747510066.67,-0.015,0.017,-0.031,-0.013,0.006,0.003,11.330,-0.282,-65.505
1747510066.69,0.002,0.019,-0.034,-0.028,0.005,0.006,11.303,-0.278,-65.502
1747510066.71,0.009,0.019,-0.037,-0.038,-0.002,0.005,11.261,-0.277,-65.496
1747510066.73,-0.008,0.013,-0.036,-0.056,-0.001,0.003,11.204,-0.281,-65.491
1747510066.75,-0.005,0.010,-0.037,-0.069,-0.002,0.004,11.130,-0.286,-65.487
1747510066.77,0.010,0.002,-0.038,-0.082,-0.009,0.007,11.042,-0.294,-65.480
1747510066.79,-0.011,0.006,-0.031,-0.092,-0.006,0.007,10.941,-0.299,-65.473
1747510066.81,-0.012,-0.002,-0.041,-0.108,-0.009,0.003,10.825,-0.309,-65.469
1747510066.83,0.015,-0.004,-0.048,-0.118,-0.019,0.007,10.695,-0.327,-65.464
1747510066.85,0.007,0.002,-0.041,-0.121,-0.033,0.006,10.555,-0.350,-65.456
1747510066.87,-0.011,-0.015,-0.045,-0.143,-0.029,0.004,10.403,-0.388,-65.449
1747510066.89,0.001,-0.009,-0.039,-0.157,-0.025,0.008,10.232,-0.419,-65.444
1747510066.91,0.008,-0.002,-0.031,-0.177,-0.008,0.009,10.042,-0.438,-65.435
1747510066.93,-0.007,-0.028,-0.049,-0.183,-0.032,0.009,9.834,-0.448,-65.428
1747510066.95,-0.000,-0.012,-0.033,-0.210,0.009,0.005,9.612,-0.464,-65.421
1747510066.97,0.006,-0.027,-0.079,-0.218,-0.010,0.007,9.375,-0.478,-65.414
1747510066.99,0.007,-0.022,-0.044,-0.223,-0.020,0.013,9.123,-0.491,-65.404
1747510067.01,-0.007,-0.021,-0.039,-0.233,-0.019,0.009,8.861,-0.515,-65.395
1747510067.03,-0.006,-0.045,-0.048,-0.244,-0.025,0.008,8.590,-0.543,-65.389
1747510067.05,-0.005,-0.018,-0.048,-0.261,-0.023,0.007,8.305,-0.567,-65.384
1747510067.07,0.009,-0.040,-0.060,-0.266,-0.036,0.008,8.006,-0.598,-65.377
1747510067.09,0.019,-0.043,-0.049,-0.280,-0.031,0.014,7.698,-0.634,-65.368
1747510067.11,0.002,-0.025,-0.044,-0.284,-0.028,0.012,7.379,-0.672,-65.356
1747510067.13,-0.004,-0.044,-0.062,-0.297,-0.031,0.011,7.053,-0.720,-65.346
1747510067.15,-0.020,-0.035,-0.046,-0.314,-0.022,0.010,6.705,-0.749,-65.339
1747510067.17,0.007,-0.051,-0.052,-0.318,-0.031,0.008,6.343,-0.778,-65.334
1747510067.19,0.026,-0.048,-0.053,-0.328,-0.036,0.017,5.973,-0.818,-65.325
1747510067.21,0.009,-0.050,-0.058,-0.334,-0.038,0.015,5.598,-0.869,-65.311
1747510067.23,-0.011,-0.058,-0.037,-0.344,-0.034,0.015,5.211,-0.910,-65.302
1747510067.25,-0.011,-0.040,-0.039,-0.353,-0.026,0.009,4.813,-0.945,-65.296
1747510067.27,0.013,-0.060,-0.052,-0.359,-0.027,0.013,4.406,-0.977,-65.290
1747510067.29,0.013,-0.057,-0.050,-0.370,-0.025,0.017,3.989,-1.009,-65.281
1747510067.31,0.009,-0.061,-0.053,-0.378,-0.031,0.014,3.564,-1.043,-65.271
1747510067.33,-0.001,-0.060,-0.050,-0.384,-0.030,0.018,3.129,-1.079,-65.261
1747510067.35,-0.002,-0.061,-0.041,-0.391,-0.022,0.014,2.686,-1.106,-65.252
1747510067.37,0.004,-0.066,-0.042,-0.403,-0.007,0.016,2.235,-1.124,-65.245
1747510067.39,0.008,-0.067,-0.050,-0.398,-0.020,0.017,1.778,-1.140,-65.237
1747510067.41,0.016,-0.071,-0.056,-0.415,0.006,0.020,1.322,-1.168,-65.228
1747510067.43,0.008,-0.062,-0.052,-0.397,-0.036,0.016,0.858,-1.184,-65.216
1747510067.45,-0.007,-0.073,-0.040,-0.395,-0.042,0.011,0.406,-1.229,-65.208
1747510067.47,-0.015,-0.062,-0.037,-0.395,-0.039,0.011,-0.045,-1.274,-65.205
1747510067.49,0.008,-0.076,-0.042,-0.392,-0.041,0.013,-0.495,-1.318,-65.204
1747510067.51,0.027,-0.067,-0.044,-0.396,-0.036,0.016,-0.946,-1.359,-65.199
1747510067.53,0.004,-0.069,-0.042,-0.396,-0.039,0.014,-1.397,-1.400,-65.192
1747510067.55,-0.016,-0.070,-0.040,-0.392,-0.045,0.008,-1.846,-1.447,-65.189
1747510067.57,0.004,-0.072,-0.036,-0.395,-0.038,0.011,-2.295,-1.496,-65.190
1747510067.59,0.026,-0.059,-0.033,-0.391,-0.026,0.015,-2.743,-1.531,-65.187
1747510067.61,0.005,-0.070,-0.037,-0.384,-0.032,0.015,-3.185,-1.560,-65.181
1747510067.63,-0.015,-0.069,-0.039,-0.377,-0.045,0.009,-3.621,-1.604,-65.180
1747510067.65,0.007,-0.066,-0.037,-0.370,-0.048,0.012,-4.050,-1.659,-65.179
1747510067.67,0.033,-0.066,-0.034,-0.257,-0.254,0.017,-4.453,-1.744,-65.173
1747510067.69,0.020,-0.072,0.051,-0.363,-0.030,0.025,-4.844,-1.832,-65.160
1747510067.71,-0.006,-0.066,-0.029,-0.367,-0.017,0.021,-5.257,-1.865,-65.147
1747510067.73,-0.016,-0.061,-0.023,-0.363,-0.012,0.021,-5.673,-1.879,-65.139
1747510067.75,0.013,-0.062,-0.034,-0.358,-0.004,0.015,-6.085,-1.888,-65.131
1747510067.77,0.022,-0.060,-0.036,-0.348,-0.023,0.021,-6.487,-1.905,-65.122
1747510067.79,-0.006,-0.056,-0.033,-0.337,-0.031,0.017,-6.878,-1.935,-65.115
1747510067.81,-0.013,-0.058,-0.030,-0.326,-0.036,0.019,-7.257,-1.973,-65.111
1747510067.83,-0.018,-0.154,-0.002,-0.314,0.198,0.595,-7.635,-1.892,-64.907
1747510067.85,-0.142,-0.660,-0.066,-0.305,-0.200,1.201,-8.018,-1.707,-63.821
1747510067.87,0.040,-0.352,-0.033,-0.277,-0.291,1.315,-8.403,-1.812,-62.405
1747510067.88,0.083,0.050,-0.043,-0.258,-0.317,1.079,-8.732,-1.972,-61.064
1747510067.90,-0.032,0.278,0.018,-0.305,-0.093,0.579,-9.103,-2.082,-60.154
1747510067.92,0.007,0.340,0.041,-0.301,0.118,0.169,-9.457,-1.956,-59.752
1747510067.94,-0.043,0.262,-0.056,-0.293,0.005,0.015,-9.794,-1.885,-59.694
1747510067.96,-0.022,-0.075,-0.021,-0.283,-0.003,0.006,-10.119,-1.884,-59.692
1747510067.98,-0.005,-0.051,-0.034,-0.275,-0.005,0.009,-10.439,-1.888,-59.693
1747510068.00,0.024,-0.052,-0.041,-0.264,-0.005,0.016,-10.746,-1.895,-59.689
1747510068.02,0.020,-0.056,-0.034,-0.259,0.005,0.018,-11.041,-1.893,-59.679
1747510068.04,-0.009,-0.048,-0.024,-0.254,0.015,0.018,-11.335,-1.879,-59.667
1747510068.06,-0.030,-0.051,-0.032,-0.273,0.007,0.011,-11.632,-1.870,-59.661
1747510068.08,0.008,-0.054,-0.044,-0.264,0.027,0.013,-11.923,-1.851,-59.652
1747510068.10,0.026,-0.053,-0.042,-0.250,0.019,0.017,-12.215,-1.828,-59.641
1747510068.12,-0.009,-0.056,-0.054,-0.242,0.004,0.013,-12.495,-1.815,-59.632
1747510068.14,-0.030,-0.056,-0.042,-0.238,-0.008,0.012,-12.761,-1.820,-59.627
1747510068.16,0.002,-0.059,-0.041,-0.230,0.006,0.014,-13.019,-1.820,-59.621
1747510068.18,0.018,-0.057,-0.037,-0.222,0.015,0.014,-13.270,-1.800,-59.611
1747510068.20,-0.015,-0.060,-0.038,-0.218,0.009,0.014,-13.513,-1.782,-59.603
1747510068.22,-0.012,-0.067,-0.063,-0.209,-0.003,0.012,-13.749,-1.781,-59.597
1747510068.24,0.014,-0.062,-0.042,-0.200,0.002,0.013,-13.977,-1.781,-59.590
1747510068.26,0.002,-0.061,-0.030,-0.195,0.010,0.013,-14.195,-1.770,-59.580
1747510068.28,-0.014,-0.074,-0.060,-0.183,0.004,0.011,-14.404,-1.761,-59.574
1747510068.30,-0.017,-0.068,-0.041,-0.175,0.003,0.008,-14.601,-1.757,-59.571
1747510068.32,0.000,-0.063,-0.043,-0.163,0.003,0.013,-14.785,-1.753,-59.566
1747510068.34,0.020,-0.077,-0.060,-0.148,-0.004,0.014,-14.956,-1.748,-59.559
1747510068.36,-0.003,-0.074,-0.046,-0.138,0.003,0.008,-15.114,-1.746,-59.550
1747510068.38,-0.023,-0.066,-0.041,-0.129,0.004,0.006,-15.258,-1.742,-59.544
1747510068.40,-0.007,-0.074,-0.044,-0.113,-0.000,0.008,-15.389,-1.738,-59.540
1747510068.42,0.008,-0.074,-0.043,-0.101,0.009,0.008,-15.503,-1.729,-59.536
1747510068.44,0.013,-0.071,-0.050,-0.083,0.003,0.009,-15.599,-1.719,-59.528
1747510068.46,-0.013,-0.070,-0.030,-0.064,0.004,0.008,-15.674,-1.713,-59.523
1747510068.48,-0.013,-0.072,-0.053,-0.048,0.001,0.004,-15.728,-1.712,-59.518
1747510068.50,-0.004,-0.066,-0.035,-0.029,0.001,0.001,-15.762,-1.708,-59.516
1747510068.52,0.004,-0.064,-0.029,-0.009,0.008,0.005,-15.775,-1.699,-59.512
1747510068.54,0.012,-0.070,-0.050,0.010,0.001,0.011,-15.766,-1.691,-59.504
1747510068.56,-0.004,-0.069,-0.036,0.032,0.004,0.006,-15.732,-1.687,-59.496
1747510068.58,-0.012,-0.056,-0.029,0.048,0.006,0.003,-15.675,-1.684,-59.491
1747510068.60,-0.012,-0.047,-0.014,0.070,0.006,-0.001,-15.596,-1.678,-59.489
1747510068.62,0.000,-0.065,-0.037,0.091,0.006,0.000,-15.492,-1.670,-59.488
1747510068.64,0.009,-0.058,-0.030,0.111,0.002,0.001,-15.361,-1.664,-59.483
1747510068.66,0.004,-0.046,-0.014,0.135,0.007,0.001,-15.207,-1.657,-59.478
1747510068.68,-0.014,-0.041,-0.015,0.154,0.004,0.000,-15.031,-1.654,-59.474
1747510068.70,-0.010,-0.037,-0.007,0.176,0.000,-0.006,-14.824,-1.650,-59.472
1747510068.72,0.008,-0.035,-0.010,0.197,0.003,-0.005,-14.588,-1.647,-59.470
1747510068.74,0.009,-0.017,0.004,0.217,0.005,-0.002,-14.338,-1.640,-59.465
1747510068.76,-0.002,-0.022,0.003,0.235,0.009,-0.003,-14.069,-1.636,-59.461
1747510068.78,-0.014,-0.014,0.013,0.251,0.006,-0.007,-13.783,-1.634,-59.460
1747510068.80,0.002,-0.005,0.016,0.272,0.008,-0.003,-13.477,-1.623,-59.458
1747510068.82,0.006,-0.003,0.016,0.284,-0.002,-0.005,-13.158,-1.615,-59.453
1747510068.84,0.001,0.005,0.025,0.301,0.003,-0.006,-12.822,-1.613,-59.453
1747510068.86,0.009,0.001,0.021,0.316,0.004,-0.004,-12.471,-1.612,-59.450
1747510068.88,-0.000,0.024,0.036,0.328,0.007,-0.007,-12.106,-1.605,-59.445
1747510068.90,-0.021,0.021,0.041,0.341,0.004,-0.010,-11.725,-1.598,-59.445
1747510068.92,0.010,0.019,0.029,0.350,0.003,-0.008,-11.331,-1.595,-59.445
1747510068.94,0.027,0.031,0.037,0.362,0.001,-0.006,-10.923,-1.592,-59.441
1747510068.96,-0.009,0.029,0.040,0.370,0.002,-0.010,-10.503,-1.590,-59.436
1747510068.98,-0.014,0.040,0.050,0.381,0.004,-0.013,-10.073,-1.586,-59.436
1747510069.00,0.007,0.043,0.049,0.391,0.013,-0.009,-9.633,-1.577,-59.434
1747510069.02,0.000,0.047,0.043,0.393,0.005,-0.007,-9.186,-1.567,-59.432
1747510069.04,0.008,0.062,0.046,0.400,-0.000,-0.008,-8.734,-1.561,-59.429
1747510069.06,0.014,0.053,0.043,0.401,-0.006,-0.007,-8.275,-1.565,-59.424
1747510069.08,-0.005,0.060,0.054,0.407,-0.000,-0.007,-7.812,-1.566,-59.421
1747510069.10,-0.004,0.066,0.051,0.411,0.005,-0.008,-7.344,-1.562,-59.418
1747510069.12,0.000,0.072,0.053,0.414,0.008,-0.008,-6.873,-1.556,-59.416
1747510069.14,0.002,0.061,0.039,0.415,0.004,-0.010,-6.398,-1.548,-59.416
1747510069.16,0.011,0.076,0.045,0.419,-0.004,-0.010,-5.920,-1.548,-59.415
1747510069.18,0.001,0.077,0.042,0.416,-0.001,-0.006,-5.442,-1.551,-59.411
1747510069.20,-0.003,0.073,0.044,0.415,0.008,-0.007,-4.966,-1.547,-59.407
1747510069.22,-0.000,0.085,0.054,0.385,0.047,-0.005,-4.523,-1.502,-59.402
1747510069.24,0.043,0.092,0.172,0.056,0.619,0.063,-4.307,-1.067,-59.343
1747510069.26,-0.038,0.073,-0.149,0.322,0.181,0.025,-4.006,-0.758,-59.306
1747510069.28,0.045,0.095,0.100,0.250,0.324,0.074,-3.719,-0.402,-59.237
1747510069.30,-0.005,0.088,0.033,0.315,0.393,0.062,-3.426,0.007,-59.149
1747510069.32,0.035,0.097,0.013,0.324,0.396,0.220,-3.062,0.484,-59.002
1747510069.34,0.069,0.105,0.025,0.329,0.388,0.363,-2.681,0.926,-58.663
1747510069.36,0.000,0.088,0.021,0.334,0.352,0.354,-2.290,1.354,-58.251
1747510069.38,-0.063,0.076,0.018,0.354,0.264,0.142,-1.887,1.705,-57.957
1747510069.40,-0.110,0.064,0.010,0.323,0.431,-0.000,-1.487,2.050,-57.922
1747510069.42,-0.010,0.092,0.022,0.350,0.303,0.010,-1.116,2.536,-57.935
1747510069.44,-0.017,0.092,0.016,0.275,0.926,-0.013,-0.765,3.154,-57.949
1747510069.46,-0.020,0.092,-0.122,0.360,1.367,-0.041,-0.357,4.415,-57.994
1747510069.48,-0.024,0.093,-0.043,0.340,2.395,-0.057,0.039,6.400,-58.079
1747510069.50,-0.085,0.081,-0.165,0.303,4.182,-0.128,0.386,10.173,-58.239
1747510069.52,-0.130,0.089,-0.143,0.385,4.874,-0.163,0.700,15.616,-58.489
1747510069.54,-0.326,0.044,0.324,0.648,1.897,-0.175,1.112,18.966,-59.007
1747510069.56,0.317,0.351,0.313,0.722,0.548,0.077,1.812,20.194,-59.121
1747510069.58,-0.067,0.087,0.023,0.976,0.822,0.129,2.757,20.892,-59.403
1747510069.60,0.028,-0.105,-0.250,0.349,1.081,0.101,3.295,21.987,-59.490
1747510069.62,0.003,0.090,0.022,0.313,0.871,0.123,3.683,23.111,-59.515
1747510069.64,-0.034,0.081,-0.047,0.305,1.212,0.106,4.065,24.310,-59.534
1747510069.66,-0.021,0.096,-0.055,0.292,1.876,0.126,4.437,26.072,-59.542
1747510069.68,-0.029,0.069,-0.087,0.274,2.247,0.124,4.788,28.524,-59.568
1747510069.70,-0.040,0.086,0.008,0.256,1.746,0.160,5.131,30.871,-59.581
1747510069.72,-0.061,0.073,0.049,0.382,0.854,0.180,5.500,32.306,-59.599
1747510069.74,-0.091,0.112,0.081,1.057,1.378,0.617,6.484,33.612,-59.770
1747510069.76,0.087,0.076,-0.074,0.227,-0.343,0.167,7.324,33.908,-59.771
1747510069.78,-0.013,0.068,-0.113,0.253,0.675,0.103,7.644,34.012,-59.780
1747510069.80,-0.033,0.059,-0.137,0.268,1.193,0.103,7.935,35.287,-59.869
1747510069.82,0.012,0.076,0.082,0.161,0.491,0.183,8.197,36.311,-59.861
1747510069.84,-0.014,0.055,-0.056,0.134,0.218,0.245,8.484,36.638,-59.804
1747510069.86,0.058,0.223,0.017,0.423,0.928,0.463,8.943,37.159,-59.652
1747510069.88,-0.091,-0.024,-0.144,0.177,1.395,0.157,9.531,38.504,-59.604
1747510069.90,-0.136,-0.051,-0.215,0.280,2.367,-0.040,9.727,40.703,-59.730
1747510069.92,-0.070,0.088,-0.085,0.754,1.348,0.155,10.305,43.141,-60.147
1747510069.94,0.062,0.215,0.280,0.187,0.242,0.186,10.812,44.066,-60.374
1747510069.96,0.147,0.345,0.212,-0.159,-0.816,0.223,10.978,43.589,-60.185
1747510069.98,0.023,-0.032,-0.020,-0.392,-0.250,0.009,10.908,42.842,-59.829
1747510070.00,-0.107,0.051,-0.251,-0.626,-0.764,-0.661,10.133,42.256,-59.730
1747510070.02,-0.014,0.069,-0.086,-0.905,-0.949,-0.712,8.891,41.203,-59.829
1747510070.04,0.238,0.096,0.203,-1.204,-0.778,-0.115,7.638,40.094,-59.414
1747510070.06,0.312,0.054,0.198,-2.234,-1.302,0.251,6.262,38.824,-58.099
1747510070.08,0.239,0.051,-0.012,-3.909,-2.498,0.046,3.720,36.481,-55.828
1747510070.10,0.178,0.303,-0.602,-5.573,-5.117,-0.971,-0.902,31.703,-53.147
1747510070.12,0.284,0.184,-0.788,-4.428,-4.627,-1.508,-6.570,25.623,-51.721
1747510070.14,0.246,0.002,-0.094,-1.727,-0.634,-0.883,-10.477,22.505,-51.576
1747510070.16,0.179,-0.342,-0.275,0.120,1.395,1.039,-11.084,23.520,-51.344
1747510070.18,0.330,-0.320,-0.615,-0.199,-0.324,2.726,-10.070,24.634,-49.244
1747510070.20,0.279,0.018,-0.615,-0.657,-1.265,2.951,-9.184,24.086,-45.922
1747510070.22,0.232,0.216,-0.514,-0.418,-0.528,2.418,-8.562,23.556,-42.775
1747510070.24,0.219,0.499,-0.709,0.668,-1.261,1.683,-7.513,22.904,-40.620
1747510070.26,-0.029,0.452,-0.611,1.119,-1.480,1.005,-5.926,21.425,-39.700
1747510070.28,0.023,0.203,-0.442,0.728,-1.957,1.538,-4.423,19.515,-38.791
1747510070.30,0.200,0.109,-0.262,0.338,-1.472,2.214,-3.183,17.590,-36.891
1747510070.32,0.016,0.190,-0.251,0.438,-0.543,2.144,-2.051,16.560,-34.563
1747510070.34,-0.189,0.296,-0.340,0.455,-0.012,1.727,-0.899,16.291,-32.573
1747510070.36,-0.249,0.169,-0.361,0.153,0.138,1.379,-0.066,16.476,-30.997
1747510070.38,-0.081,0.174,-0.459,-0.193,-0.616,0.967,0.285,16.174,-29.622
1747510070.40,-0.081,0.145,-0.441,0.057,-0.815,0.209,0.303,15.354,-28.976
1747510070.42,-0.184,0.102,-0.449,0.918,-0.856,-0.152,0.880,14.361,-29.106
1747510070.44,-0.228,0.012,-0.226,0.853,-0.869,-0.233,1.885,13.440,-29.635
1747510070.46,-0.145,-0.160,-0.127,0.379,-1.285,0.061,2.536,12.191,-29.885
1747510070.48,-0.104,-0.185,-0.038,0.243,-1.023,0.184,2.874,10.775,-29.790
1747510070.50,-0.029,-0.191,0.022,0.469,-0.276,0.219,3.296,10.054,-29.638
1747510070.52,-0.022,-0.161,-0.052,0.825,-0.479,0.377,4.103,9.682,-29.434
1747510070.54,-0.116,-0.080,-0.029,0.419,-1.064,0.373,4.957,8.786,-29.099
1747510070.56,-0.280,-0.074,-0.022,-0.124,-1.540,-0.040,5.115,7.275,-28.907
1747510070.58,-0.180,-0.035,-0.058,-0.051,-2.377,-0.377,4.922,5.053,-29.153
1747510070.60,-0.010,-0.044,0.038,0.754,-2.141,-0.462,5.241,2.357,-29.664
1747510070.62,-0.096,-0.008,0.250,1.208,-1.037,-0.564,6.461,0.593,-30.241
1747510070.64,-0.182,-0.021,0.386,0.647,-0.066,-0.751,7.584,0.149,-31.026
1747510070.66,-0.145,-0.061,0.272,0.025,-0.214,-0.800,7.907,0.173,-31.932
1747510070.68,-0.044,0.025,0.160,0.145,-0.725,-0.955,7.954,-0.242,-32.924
1747510070.70,0.017,0.042,0.217,0.509,-0.554,-1.066,8.351,-0.872,-34.117
1747510070.72,0.035,-0.020,0.349,0.519,0.096,-0.974,8.992,-0.974,-35.280
1747510070.74,0.021,-0.045,0.387,0.300,0.713,-0.931,9.484,-0.270,-36.387
1747510070.76,0.074,-0.039,0.291,0.056,0.339,-0.613,9.690,0.637,-37.330
1747510070.78,0.603,-0.318,-0.247,0.242,-1.252,0.382,9.887,-0.092,-37.372
1747510070.80,0.454,-0.220,-0.003,0.406,-1.381,0.916,10.245,-1.888,-36.585
1747510070.82,0.122,-0.059,0.309,0.527,-0.754,1.160,10.721,-3.288,-35.345
1747510070.84,0.054,0.078,0.234,0.562,-0.817,1.120,11.240,-4.430,-33.929
1747510070.86,-0.062,0.092,0.114,0.964,-0.150,0.499,11.977,-5.284,-32.863
1747510070.88,-0.138,0.150,0.227,1.311,1.238,-0.015,13.301,-4.843,-32.452
1747510070.90,-0.144,0.064,0.379,0.754,1.931,-0.452,14.579,-2.794,-32.691
1747510070.92,0.040,-0.000,0.227,-0.125,1.308,-0.455,14.962,-0.780,-33.190
1747510070.93,0.025,0.016,0.082,-0.447,0.561,-0.556,14.562,0.410,-33.812
1747510070.95,0.006,0.022,-0.001,0.002,0.164,-0.334,14.241,0.896,-34.366
1747510070.97,0.017,0.025,0.089,0.661,0.251,-0.137,14.646,1.194,-34.621
1747510070.99,-0.018,0.066,0.084,0.808,0.142,-0.267,15.520,1.499,-34.876
1747510071.01,-0.006,0.071,0.186,0.788,0.353,-0.344,16.413,1.831,-35.273
1747510071.03,-0.027,0.059,0.175,0.664,0.509,-0.506,17.247,2.468,-35.795
1747510071.05,-0.049,0.062,0.104,0.467,0.663,-0.657,17.862,3.398,-36.548
1747510071.07,0.011,0.039,0.113,0.258,0.388,-0.532,18.216,4.274,-37.303
1747510071.09,-0.007,0.050,0.069,0.308,0.202,-0.452,18.470,4.739,-37.912
1747510071.11,-0.078,0.065,0.027,0.559,0.364,-0.468,18.913,5.255,-38.509
1747510071.13,-0.083,0.057,0.038,0.762,0.600,-0.478,19.627,6.026,-39.151
1747510071.15,-0.044,0.060,0.027,0.700,0.559,-0.599,20.405,6.961,-39.915
1747510071.17,-0.018,0.040,0.040,0.541,0.424,-0.560,21.016,7.808,-40.729
1747510071.19,-0.019,0.041,0.042,0.497,0.298,-0.429,21.507,8.460,-41.419
1747510071.21,-0.055,0.061,0.022,0.566,0.412,-0.361,22.033,9.060,-41.998
1747510071.23,-0.032,0.073,0.093,0.889,0.262,-0.332,22.865,9.708,-42.577
1747510071.25,0.101,0.023,-0.055,0.836,0.153,-0.340,23.821,10.097,-43.170
1747510071.27,0.018,0.028,0.025,0.320,-0.024,-0.305,24.406,10.388,-43.689
1747510071.29,-0.040,0.040,-0.004,0.166,-0.122,-0.353,24.559,10.519,-44.147
1747510071.31,-0.040,0.082,-0.034,0.502,-0.187,-0.307,24.849,10.531,-44.631
1747510071.33,-0.080,0.120,0.000,0.655,-0.190,-0.333,25.468,10.530,-45.162
1747510071.35,-0.102,0.091,0.026,0.463,-0.116,-0.383,26.042,10.626,-45.742
1747510071.37,-0.054,0.043,-0.021,0.254,-0.080,-0.437,26.339,10.770,-46.341
1747510071.39,-0.003,0.019,-0.009,0.154,-0.172,-0.451,26.479,10.922,-46.945
1747510071.41,-0.008,0.049,0.022,-0.010,-0.416,-0.437,26.461,10.844,-47.525
1747510071.43,-0.043,0.068,0.008,-0.069,-0.484,-0.377,26.315,10.530,-48.025
1747510071.45,-0.057,0.065,-0.041,-0.010,-0.296,-0.327,26.203,10.252,-48.452
1747510071.47,-0.052,0.065,-0.006,-0.053,0.040,-0.311,26.122,10.283,-48.852
1747510071.49,-0.004,0.054,0.015,-0.257,0.019,-0.248,25.888,10.465,-49.175
1747510071.51,-0.006,0.056,0.047,-0.359,-0.114,-0.220,25.492,10.509,-49.395
1747510071.53,-0.008,0.070,0.103,-0.682,-0.446,-0.126,24.897,10.248,-49.487
1747510071.55,-0.044,0.044,0.117,-0.780,-0.406,-0.165,23.991,9.744,-49.512
1747510071.57,-0.058,-0.013,-0.110,-0.376,-0.118,-0.208,23.264,9.460,-49.566
1747510071.59,-0.105,0.045,-0.171,0.235,0.089,-0.225,23.143,9.587,-49.845
1747510071.61,-0.082,0.014,-0.122,0.741,0.141,-0.069,23.683,9.827,-50.138
1747510071.63,-0.105,0.059,0.010,0.837,0.306,-0.007,24.615,10.186,-50.353
1747510071.65,-0.093,0.023,0.106,0.479,0.398,-0.058,25.372,10.657,-50.529
1747510071.67,-0.062,0.013,0.106,0.075,0.437,-0.275,25.636,11.275,-50.799
1747510071.69,-0.055,-0.005,0.002,-0.071,0.399,-0.282,25.538,11.902,-51.165
1747510071.71,-0.058,0.020,-0.060,0.063,0.346,-0.182,25.460,12.462,-51.448
1747510071.73,0.000,0.036,-0.108,0.305,0.163,-0.030,25.633,12.822,-51.626
1747510071.75,-0.018,0.041,-0.100,0.574,0.301,0.030,26.126,13.101,-51.748
1747510071.77,-0.021,0.071,-0.040,0.632,0.643,0.026,26.834,13.712,-51.890
1747510071.79,-0.007,0.063,-0.014,0.350,0.755,-0.015,27.405,14.604,-52.045
1747510071.81,0.049,0.033,-0.013,0.012,0.622,-0.001,27.583,15.435,-52.125
1747510071.83,0.038,0.023,-0.002,0.012,0.420,0.002,27.570,16.030,-52.155
1747510071.85,-0.008,0.045,-0.013,0.295,0.452,0.037,27.712,16.482,-52.187
1747510071.87,-0.015,0.042,-0.015,0.582,0.652,0.038,28.226,17.191,-52.336
1747510071.89,-0.030,0.059,0.045,0.599,0.773,0.055,28.903,18.092,-52.542
1747510071.91,-0.017,0.052,0.107,0.503,0.735,0.061,29.532,19.049,-52.726
1747510071.93,-0.006,0.045,0.114,0.233,0.637,0.107,29.981,19.878,-52.850
1747510071.95,0.013,0.028,0.150,0.005,0.371,0.101,30.175,20.424,-52.797
1747510071.97,0.177,-0.020,0.018,-0.277,-0.158,0.068,30.054,20.394,-52.643
1747510071.99,0.093,-0.007,-0.098,-0.330,0.010,-0.080,29.690,20.241,-52.546
1747510072.01,0.028,-0.012,-0.165,-0.013,0.310,-0.065,29.447,20.423,-52.569
