Time,AccX,AccY,AccZ,GyroX,GyroY,GyroZ,Pitch,Roll,Yaw
1747675521.80,0.004,-0.005,-0.013,0.000,0.002,-0.003,0.953,0.618,28.884
1747675521.81,0.004,-0.004,-0.017,-0.003,-0.001,-0.003,0.951,0.620,28.882
1747675521.82,0.003,-0.004,-0.022,-0.005,0.001,-0.001,0.949,0.618,28.881
1747675521.83,0.000,-0.003,-0.020,-0.003,0.002,-0.000,0.948,0.619,28.881
1747675521.84,-0.001,-0.001,-0.014,-0.003,-0.000,-0.000,0.946,0.620,28.881
1747675521.85,-0.000,-0.002,-0.016,-0.004,-0.002,0.001,0.944,0.619,28.882
1747675521.86,0.003,-0.001,-0.012,-0.004,-0.001,0.004,0.944,0.619,28.882
1747675521.87,0.006,-0.000,-0.015,-0.001,-0.002,0.001,0.943,0.619,28.883
1747675521.88,0.007,-0.001,-0.014,0.001,-0.001,-0.002,0.943,0.618,28.883
1747675521.89,0.007,-0.002,-0.012,0.000,0.003,-0.003,0.944,0.619,28.883
1747675521.90,0.006,-0.003,-0.013,0.001,0.001,-0.002,0.944,0.620,28.882
1747675521.91,0.002,-0.004,-0.016,0.000,0.002,-0.000,0.944,0.620,28.882
1747675521.92,-0.002,-0.004,-0.015,-0.001,0.002,0.001,0.944,0.621,28.882
1747675521.93,-0.001,-0.005,-0.017,-0.002,-0.001,0.000,0.944,0.621,28.882
1747675521.94,0.000,-0.005,-0.014,-0.004,0.002,-0.000,0.942,0.622,28.882
1747675521.95,0.003,-0.004,-0.016,0.000,-0.001,0.002,0.941,0.622,28.882
1747675521.96,0.004,-0.003,-0.016,-0.001,0.001,-0.000,0.940,0.622,28.883
1747675521.97,0.005,-0.005,-0.015,-0.002,-0.001,0.000,0.939,0.623,28.882
1747675521.98,0.003,-0.004,-0.015,-0.000,-0.001,0.000,0.939,0.623,28.882
1747675521.99,0.003,-0.003,-0.017,0.000,0.001,0.001,0.938,0.623,28.882
1747675522.00,0.002,-0.002,-0.017,0.001,0.002,0.002,0.938,0.623,28.882
1747675522.01,0.001,-0.001,-0.014,-0.001,0.000,0.000,0.938,0.624,28.882
1747675522.02,0.003,-0.003,-0.014,-0.000,0.000,-0.002,0.938,0.623,28.882
1747675522.03,0.002,-0.002,-0.016,-0.001,-0.000,0.002,0.938,0.623,28.882
1747675522.04,0.003,-0.003,-0.015,0.000,-0.001,0.000,0.938,0.623,28.883
1747675522.05,0.003,-0.003,-0.015,-0.002,0.001,-0.002,0.939,0.623,28.883
1747675522.06,0.003,-0.004,-0.015,-0.000,-0.001,0.002,0.939,0.623,28.881
1747675522.07,0.004,-0.005,-0.018,-0.004,-0.001,-0.000,0.938,0.622,28.881
1747675522.08,0.004,-0.003,-0.017,-0.001,0.001,0.001,0.937,0.623,28.881
1747675522.09,0.005,-0.004,-0.017,0.001,0.000,-0.000,0.937,0.624,28.881
1747675522.10,0.006,-0.004,-0.014,-0.001,-0.000,-0.002,0.936,0.625,28.881
1747675522.11,0.005,-0.005,-0.014,-0.001,0.000,0.000,0.936,0.625,28.880
1747675522.12,0.003,-0.004,-0.017,-0.003,-0.000,0.001,0.934,0.626,28.880
1747675522.13,0.002,-0.004,-0.018,-0.001,0.000,0.003,0.933,0.626,28.881
1747675522.14,-0.000,-0.004,-0.017,-0.001,0.001,-0.000,0.933,0.627,28.881
1747675522.15,-0.000,-0.003,-0.016,-0.001,-0.000,-0.005,0.934,0.627,28.880
1747675522.16,0.001,-0.002,-0.016,-0.001,-0.002,0.000,0.933,0.627,28.880
1747675522.17,0.001,-0.002,-0.016,-0.001,-0.000,-0.001,0.933,0.627,28.880
1747675522.18,0.002,-0.002,-0.017,-0.000,0.000,-0.002,0.933,0.628,28.880
1747675522.19,0.002,-0.002,-0.016,-0.001,0.001,0.002,0.933,0.628,28.880
1747675522.20,0.002,-0.003,-0.015,0.001,-0.001,0.000,0.934,0.628,28.880
1747675522.21,0.003,-0.003,-0.017,0.002,-0.001,0.002,0.934,0.628,28.880
1747675522.22,0.002,-0.003,-0.018,0.001,0.000,0.000,0.936,0.628,28.880
1747675522.23,0.002,-0.004,-0.016,0.003,-0.001,-0.002,0.936,0.628,28.880
1747675522.24,0.001,-0.005,-0.017,-0.000,-0.001,0.002,0.937,0.627,28.880
1747675522.25,0.001,-0.005,-0.018,-0.002,0.002,0.001,0.937,0.628,28.881
1747675522.26,0.003,-0.005,-0.019,-0.002,0.001,-0.000,0.936,0.629,28.880
1747675522.27,0.004,-0.005,-0.018,-0.002,0.002,0.002,0.936,0.630,28.881
1747675522.28,0.006,-0.004,-0.016,0.000,-0.001,0.001,0.935,0.630,28.880
1747675522.29,0.007,-0.004,-0.018,-0.004,-0.003,-0.001,0.935,0.630,28.880
1747675522.30,0.007,-0.004,-0.019,-0.001,-0.001,-0.002,0.935,0.629,28.879
1747675522.31,0.006,-0.005,-0.018,-0.003,0.000,-0.000,0.934,0.629,28.879
1747675522.32,0.003,-0.003,-0.018,-0.004,-0.003,0.001,0.933,0.629,28.879
1747675522.33,0.001,-0.002,-0.016,-0.000,-0.001,0.001,0.933,0.628,28.880
1747675522.34,0.000,-0.002,-0.017,0.000,0.001,0.002,0.932,0.628,28.881
1747675522.35,-0.000,-0.001,-0.016,0.002,-0.000,0.001,0.933,0.628,28.881
1747675522.36,0.001,-0.001,-0.017,0.002,0.001,-0.003,0.933,0.628,28.881
1747675522.37,0.002,-0.001,-0.016,0.002,0.001,-0.002,0.935,0.629,28.880
1747675522.38,0.002,-0.002,-0.016,0.000,0.001,-0.002,0.935,0.630,28.879
1747675522.39,0.001,-0.003,-0.017,0.001,0.001,-0.000,0.936,0.630,28.879
1747675522.40,0.000,-0.004,-0.017,0.001,0.001,0.001,0.937,0.630,28.879
1747675522.41,0.002,-0.005,-0.018,-0.001,0.002,0.003,0.937,0.631,28.879
1747675522.42,0.002,-0.006,-0.018,-0.003,0.001,0.002,0.936,0.632,28.881
1747675522.43,0.003,-0.006,-0.018,-0.002,0.002,-0.001,0.935,0.632,28.882
1747675522.44,0.005,-0.005,-0.017,-0.002,0.000,-0.001,0.935,0.631,28.882
1747675522.45,0.005,-0.004,-0.016,-0.003,-0.002,-0.000,0.935,0.631,28.883
1747675522.46,0.005,-0.003,-0.015,0.001,0.000,0.001,0.934,0.631,28.883
1747675522.47,0.005,-0.002,-0.017,0.001,0.000,0.000,0.935,0.631,28.882
1747675522.48,0.005,-0.003,-0.017,0.000,-0.001,-0.001,0.935,0.632,28.881
1747675522.49,0.003,-0.001,-0.017,0.002,0.000,-0.001,0.937,0.632,28.881
1747675522.50,0.001,-0.001,-0.017,0.004,0.002,0.000,0.938,0.632,28.881
1747675522.51,0.003,-0.001,-0.017,0.002,-0.002,0.001,0.939,0.632,28.882
1747675522.52,0.004,-0.002,-0.016,0.003,-0.002,0.001,0.939,0.631,28.882
1747675522.53,0.004,-0.002,-0.016,0.000,-0.000,0.001,0.941,0.631,28.882
1747675522.54,0.004,-0.002,-0.016,-0.001,-0.001,0.000,0.941,0.631,28.883
1747675522.55,0.003,-0.004,-0.017,0.002,-0.001,0.000,0.941,0.631,28.882
1747675522.56,0.002,-0.004,-0.019,0.004,-0.002,-0.003,0.942,0.631,28.882
1747675522.57,-0.000,-0.004,-0.016,0.000,0.001,0.000,0.943,0.631,28.882
1747675522.58,0.000,-0.005,-0.019,0.001,0.002,-0.002,0.943,0.631,28.882
1747675522.59,0.001,-0.004,-0.018,-0.001,-0.001,-0.000,0.943,0.632,28.882
1747675522.60,0.003,-0.004,-0.016,-0.000,0.001,0.004,0.943,0.632,28.882
1747675522.61,0.005,-0.005,-0.015,-0.002,-0.001,0.003,0.942,0.633,28.883
1747675522.62,0.005,-0.004,-0.016,-0.001,-0.003,-0.001,0.941,0.632,28.883
1747675522.63,0.006,-0.004,-0.016,-0.001,0.002,0.000,0.941,0.633,28.883
1747675522.64,0.005,-0.003,-0.016,0.001,0.000,0.000,0.942,0.633,28.883
1747675522.65,0.003,-0.003,-0.015,-0.001,-0.003,-0.001,0.942,0.632,28.883
1747675522.66,0.003,-0.002,-0.016,-0.002,-0.001,-0.001,0.942,0.631,28.883
1747675522.67,0.002,-0.001,-0.016,0.001,-0.000,0.001,0.942,0.630,28.884
1747675522.68,0.002,-0.003,-0.016,0.001,-0.002,-0.000,0.943,0.629,28.884
1747675522.69,0.002,-0.003,-0.017,0.000,-0.001,-0.001,0.944,0.628,28.883
1747675522.70,0.003,-0.004,-0.016,0.001,0.000,0.000,0.944,0.628,28.883
1747675522.71,0.003,-0.004,-0.017,0.000,-0.002,-0.001,0.945,0.628,28.884
1747675522.72,0.004,-0.004,-0.018,0.001,0.000,0.000,0.945,0.628,28.884
1747675522.73,0.004,-0.005,-0.017,-0.002,-0.002,0.001,0.945,0.628,28.885
1747675522.74,0.003,-0.005,-0.016,0.000,-0.001,0.002,0.945,0.627,28.885
1747675522.75,0.002,-0.004,-0.016,0.001,-0.002,0.000,0.944,0.626,28.886
1747675522.76,0.001,-0.004,-0.017,-0.000,-0.000,0.001,0.944,0.626,28.886
1747675522.77,0.002,-0.004,-0.017,0.001,-0.002,-0.000,0.944,0.626,28.887
1747675522.78,0.002,-0.004,-0.016,0.002,0.002,-0.001,0.945,0.626,28.887
1747675522.79,0.002,-0.003,-0.015,0.003,0.000,0.001,0.946,0.627,28.888
1747675522.80,0.002,-0.003,-0.016,-0.001,-0.001,0.001,0.947,0.627,28.887
1747675522.81,0.003,-0.002,-0.016,-0.000,-0.001,0.000,0.946,0.627,28.888
1747675522.82,0.003,-0.002,-0.014,0.001,-0.002,0.001,0.946,0.626,28.887
1747675522.83,0.003,-0.003,-0.015,-0.001,0.001,0.000,0.946,0.626,28.888
1747675522.84,0.004,-0.003,-0.017,0.001,0.002,-0.000,0.946,0.627,28.888
1747675522.85,0.003,-0.003,-0.016,-0.000,0.001,0.000,0.947,0.627,28.889
1747675522.86,0.003,-0.003,-0.016,-0.000,0.002,0.001,0.947,0.628,28.889
1747675522.87,0.003,-0.004,-0.017,0.001,-0.000,-0.001,0.948,0.627,28.888
1747675522.88,0.003,-0.004,-0.016,-0.001,-0.000,0.001,0.948,0.627,28.888
1747675522.89,0.004,-0.004,-0.016,0.001,0.002,0.000,0.948,0.628,28.888
1747675522.90,0.003,-0.004,-0.017,-0.000,0.001,-0.002,0.948,0.628,28.887
1747675522.91,0.003,-0.003,-0.016,0.001,-0.002,-0.000,0.948,0.628,28.888
1747675522.92,0.002,-0.005,-0.017,0.001,0.002,0.001,0.949,0.629,28.888
1747675522.93,0.003,-0.003,-0.016,-0.001,-0.003,-0.001,0.949,0.629,28.887
1747675522.94,0.004,-0.003,-0.016,-0.000,-0.002,0.002,0.949,0.627,28.887
1747675522.95,0.004,-0.002,-0.016,0.001,-0.001,0.000,0.949,0.627,28.888
1747675522.96,0.003,-0.001,-0.016,-0.002,-0.001,-0.000,0.949,0.627,28.888
1747675522.97,0.004,-0.001,-0.016,0.000,0.001,0.000,0.949,0.627,28.888
1747675522.98,0.002,-0.003,-0.015,0.001,-0.000,0.001,0.950,0.627,28.888
1747675522.99,0.002,-0.002,-0.016,0.001,-0.001,-0.001,0.950,0.627,28.889
1747675523.00,0.001,-0.003,-0.016,0.000,0.001,0.001,0.951,0.627,28.889
1747675523.01,0.002,-0.004,-0.017,0.001,0.001,0.002,0.952,0.627,28.889
1747675523.02,0.002,-0.004,-0.016,0.001,-0.000,-0.000,0.953,0.627,28.890
1747675523.03,0.003,-0.004,-0.016,0.000,0.001,0.000,0.953,0.628,28.889
1747675523.04,0.003,-0.004,-0.016,0.000,0.001,-0.001,0.953,0.628,28.889
1747675523.05,0.003,-0.004,-0.016,0.000,-0.002,0.000,0.953,0.628,28.889
1747675523.06,0.003,-0.004,-0.016,-0.001,-0.000,0.001,0.953,0.627,28.890
1747675523.07,0.004,-0.004,-0.016,-0.002,0.001,0.002,0.953,0.627,28.890
1747675523.08,0.004,-0.003,-0.017,-0.001,-0.000,-0.000,0.953,0.627,28.890
1747675523.09,0.003,-0.003,-0.015,0.000,0.002,0.000,0.954,0.627,28.890
1747675523.09,0.004,-0.003,-0.015,-0.001,0.000,-0.000,0.953,0.628,28.890
1747675523.10,0.004,-0.003,-0.015,0.000,0.001,-0.002,0.954,0.629,28.890
1747675523.11,0.003,-0.003,-0.017,0.001,0.001,-0.000,0.954,0.628,28.890
1747675523.12,0.002,-0.002,-0.016,0.002,0.000,-0.000,0.955,0.628,28.891
1747675523.14,0.003,-0.003,-0.017,-0.000,-0.000,0.002,0.955,0.629,28.890
1747675523.14,0.003,-0.003,-0.016,0.003,0.001,0.002,0.956,0.629,28.890
1747675523.15,0.002,-0.003,-0.017,0.001,-0.001,0.003,0.956,0.629,28.891
1747675523.16,0.002,-0.002,-0.018,0.001,0.001,-0.000,0.957,0.629,28.891
1747675523.17,0.002,-0.003,-0.017,0.001,0.000,-0.000,0.957,0.629,28.891
1747675523.18,0.002,-0.003,-0.016,-0.000,0.002,-0.000,0.958,0.630,28.891
1747675523.19,0.003,-0.004,-0.016,0.002,-0.002,-0.001,0.958,0.629,28.891
1747675523.20,0.001,-0.004,-0.016,-0.001,-0.001,0.001,0.959,0.629,28.891
1747675523.21,0.001,-0.004,-0.018,-0.000,-0.001,0.001,0.959,0.629,28.892
1747675523.22,0.002,-0.003,-0.017,-0.000,-0.002,0.001,0.959,0.628,28.892
1747675523.23,0.002,-0.004,-0.017,-0.001,-0.000,-0.001,0.959,0.628,28.893
1747675523.24,0.003,-0.004,-0.017,-0.000,0.003,-0.000,0.959,0.629,28.892
1747675523.25,0.004,-0.004,-0.018,0.001,-0.001,-0.001,0.959,0.630,28.892
1747675523.26,0.004,-0.003,-0.016,0.001,0.000,0.000,0.960,0.629,28.892
1747675523.27,0.004,-0.002,-0.016,0.003,-0.002,0.001,0.960,0.629,28.891
1747675523.28,0.006,-0.003,-0.016,-0.001,-0.001,0.002,0.961,0.627,28.891
1747675523.29,0.005,-0.003,-0.016,-0.000,0.003,0.001,0.962,0.628,28.892
1747675523.30,0.004,-0.003,-0.017,0.001,0.002,0.001,0.962,0.629,28.893
1747675523.31,0.003,-0.003,-0.018,0.000,-0.000,0.000,0.962,0.630,28.893
1747675523.32,0.002,-0.002,-0.016,-0.000,0.002,0.000,0.963,0.630,28.893
1747675523.33,0.002,-0.004,-0.016,-0.002,-0.001,-0.002,0.963,0.630,28.893
1747675523.34,0.001,-0.003,-0.017,0.000,0.000,0.000,0.963,0.630,28.892
1747675523.35,0.001,-0.003,-0.017,-0.002,0.001,-0.001,0.963,0.630,28.892
1747675523.36,0.002,-0.002,-0.017,-0.000,0.001,-0.000,0.963,0.631,28.892
1747675523.37,0.003,-0.003,-0.016,0.001,-0.002,0.000,0.963,0.631,28.893
1747675523.38,0.003,-0.003,-0.015,0.000,0.002,0.000,0.963,0.631,28.893
1747675523.39,0.003,-0.003,-0.017,-0.000,0.001,0.000,0.964,0.631,28.894
1747675523.40,0.003,-0.002,-0.016,-0.001,0.001,0.004,0.965,0.631,28.895
1747675523.41,0.003,-0.002,-0.015,0.000,-0.001,0.001,0.965,0.631,28.895
1747675523.42,0.004,-0.002,-0.018,0.002,0.002,0.000,0.965,0.631,28.895
1747675523.43,0.004,-0.003,-0.017,-0.000,0.002,-0.000,0.966,0.632,28.895
1747675523.44,0.004,-0.002,-0.016,-0.002,0.002,-0.000,0.965,0.633,28.895
1747675523.45,0.004,-0.003,-0.017,0.002,0.000,0.001,0.965,0.633,28.896
1747675523.46,0.004,-0.003,-0.016,0.002,0.002,0.002,0.966,0.633,28.897
1747675523.47,0.004,-0.003,-0.017,0.001,-0.002,0.002,0.966,0.634,28.898
1747675523.48,0.003,-0.004,-0.018,0.000,0.000,0.002,0.966,0.633,28.898
1747675523.49,0.003,-0.004,-0.016,0.000,0.001,0.001,0.967,0.633,28.898
1747675523.50,0.002,-0.004,-0.017,-0.001,0.001,-0.001,0.967,0.634,28.898
1747675523.51,0.001,-0.003,-0.018,-0.000,-0.003,-0.000,0.967,0.634,28.898
1747675523.52,0.001,-0.002,-0.018,0.000,0.000,0.002,0.967,0.634,28.898
1747675523.53,0.001,-0.004,-0.017,-0.002,-0.002,0.001,0.967,0.635,28.899
1747675523.54,0.001,-0.004,-0.016,0.001,0.001,-0.001,0.967,0.635,28.899
1747675523.55,0.002,-0.003,-0.016,-0.003,-0.000,0.001,0.967,0.636,28.899
1747675523.56,0.002,-0.003,-0.017,-0.002,-0.001,-0.001,0.966,0.636,28.900
1747675523.57,0.002,-0.004,-0.017,0.000,0.001,-0.002,0.965,0.636,28.900
1747675523.58,0.002,-0.003,-0.016,0.001,0.000,-0.001,0.965,0.637,28.899
1747675523.59,0.003,-0.004,-0.017,-0.002,-0.000,0.001,0.965,0.637,28.899
1747675523.60,0.003,-0.003,-0.017,-0.003,0.001,0.001,0.964,0.637,28.899
1747675523.61,0.004,-0.002,-0.017,0.000,-0.001,0.004,0.964,0.636,28.900
1747675523.62,0.003,-0.002,-0.017,-0.002,-0.001,0.000,0.963,0.635,28.901
1747675523.63,0.003,-0.002,-0.017,-0.000,-0.001,-0.000,0.963,0.635,28.901
1747675523.64,0.003,-0.002,-0.017,-0.001,0.000,-0.001,0.963,0.636,28.901
1747675523.65,0.003,-0.002,-0.017,-0.001,-0.002,0.001,0.962,0.636,28.901
1747675523.66,0.003,-0.002,-0.015,-0.002,-0.002,0.002,0.962,0.636,28.901
1747675523.67,0.003,-0.004,-0.016,0.001,0.001,-0.001,0.962,0.636,28.901
1747675523.68,0.004,-0.003,-0.017,-0.003,-0.002,-0.001,0.963,0.636,28.900
1747675523.69,0.003,-0.003,-0.017,0.002,0.000,-0.002,0.963,0.637,28.900
1747675523.70,0.002,-0.003,-0.017,-0.001,-0.002,-0.002,0.964,0.636,28.900
1747675523.71,0.003,-0.003,-0.018,0.001,0.000,-0.000,0.964,0.636,28.900
1747675523.72,0.002,-0.003,-0.017,-0.001,-0.002,0.001,0.964,0.636,28.901
1747675523.73,0.003,-0.003,-0.018,0.000,0.000,0.001,0.965,0.636,28.901
1747675523.74,0.002,-0.004,-0.016,0.001,0.001,0.001,0.965,0.637,28.900
1747675523.75,0.002,-0.004,-0.017,0.002,-0.001,0.002,0.965,0.637,28.901
1747675523.76,0.002,-0.002,-0.018,0.001,-0.000,0.002,0.966,0.637,28.901
1747675523.77,0.002,-0.002,-0.017,-0.001,0.003,0.000,0.966,0.638,28.902
1747675523.78,0.001,-0.004,-0.018,0.002,0.001,-0.001,0.967,0.639,28.901
1747675523.79,0.002,-0.003,-0.017,-0.001,0.002,0.001,0.967,0.638,28.902
1747675523.80,0.001,-0.002,-0.017,0.001,0.000,0.001,0.967,0.638,28.902
1747675523.81,0.001,-0.003,-0.016,0.002,0.000,-0.002,0.968,0.638,28.902
1747675523.82,0.002,-0.003,-0.016,-0.001,0.003,-0.001,0.968,0.639,28.901
1747675523.83,0.002,-0.003,-0.016,0.002,-0.001,-0.003,0.969,0.639,28.902
1747675523.84,0.002,-0.003,-0.016,0.000,0.000,-0.001,0.969,0.639,28.901
1747675523.85,0.003,-0.004,-0.017,0.000,-0.001,0.001,0.970,0.639,28.902
1747675523.86,0.003,-0.003,-0.016,-0.001,0.002,-0.001,0.970,0.639,28.901
1747675523.87,0.004,-0.003,-0.017,-0.001,0.001,0.001,0.970,0.640,28.901
1747675523.88,0.004,-0.003,-0.017,0.001,0.002,0.000,0.970,0.639,28.901
1747675523.89,0.004,-0.003,-0.017,-0.001,-0.002,0.002,0.970,0.639,28.902
1747675523.90,0.004,-0.002,-0.017,-0.001,0.001,-0.004,0.969,0.638,28.901
1747675523.91,0.004,-0.004,-0.017,0.000,-0.001,-0.001,0.969,0.638,28.901
1747675523.92,0.004,-0.003,-0.016,0.000,-0.002,0.000,0.969,0.636,28.901
1747675523.93,0.003,-0.003,-0.017,-0.001,-0.001,-0.000,0.969,0.636,28.901
1747675523.94,0.002,-0.002,-0.017,-0.000,-0.001,0.004,0.970,0.636,28.901
1747675523.95,0.002,-0.002,-0.016,0.000,-0.002,0.001,0.970,0.635,28.901
1747675523.96,0.001,-0.003,-0.016,0.002,0.002,-0.000,0.970,0.636,28.901
1747675523.97,0.001,-0.003,-0.017,0.001,-0.001,0.001,0.971,0.636,28.901
1747675523.98,0.001,-0.003,-0.016,-0.000,0.001,0.001,0.970,0.636,28.901
1747675523.99,0.001,-0.003,-0.016,-0.001,-0.000,-0.003,0.970,0.637,28.902
1747675524.00,0.001,-0.002,-0.015,0.002,-0.000,-0.001,0.971,0.637,28.901
1747675524.01,0.001,-0.002,-0.016,0.003,0.001,-0.000,0.972,0.637,28.901
1747675524.02,0.002,-0.003,-0.017,0.001,0.001,0.001,0.973,0.637,28.901
1747675524.03,0.002,-0.003,-0.017,0.002,-0.001,-0.001,0.973,0.637,28.901
1747675524.04,0.003,-0.003,-0.017,0.001,0.001,0.000,0.974,0.637,28.901
1747675524.05,0.004,-0.003,-0.017,0.001,-0.001,0.000,0.975,0.637,28.901
1747675524.06,0.004,-0.004,-0.017,0.001,-0.001,-0.002,0.975,0.636,28.901
1747675524.07,0.004,-0.002,-0.016,-0.000,0.002,0.002,0.975,0.637,28.900
1747675524.08,0.004,-0.002,-0.017,-0.001,-0.002,-0.001,0.975,0.636,28.900
1747675524.09,0.005,-0.003,-0.017,0.001,0.001,-0.004,0.974,0.635,28.899
1747675524.10,0.004,-0.003,-0.017,-0.001,0.000,-0.001,0.974,0.635,28.899
1747675524.11,0.003,-0.004,-0.016,0.001,0.000,0.001,0.975,0.635,28.899
1747675524.12,0.003,-0.003,-0.016,0.001,-0.000,-0.001,0.975,0.635,28.899
1747675524.13,0.003,-0.003,-0.016,-0.003,-0.001,-0.002,0.975,0.634,28.898
1747675524.14,0.002,-0.002,-0.017,-0.000,0.000,0.002,0.975,0.634,28.898
1747675524.15,0.002,-0.002,-0.016,0.001,0.000,0.002,0.976,0.635,28.898
1747675524.16,0.002,-0.002,-0.017,0.001,-0.000,-0.002,0.976,0.635,28.898
1747675524.17,0.001,-0.003,-0.017,-0.000,0.000,-0.000,0.976,0.636,28.898
1747675524.18,0.001,-0.003,-0.015,0.001,-0.002,-0.000,0.978,0.636,28.898
1747675524.19,0.002,-0.002,-0.016,0.001,0.003,-0.001,0.978,0.637,28.897
1747675524.20,0.002,-0.004,-0.016,0.001,-0.001,0.002,0.979,0.638,28.896
1747675524.21,0.003,-0.004,-0.016,-0.000,-0.000,0.003,0.979,0.638,28.898
1747675524.22,0.003,-0.003,-0.016,0.001,-0.000,-0.001,0.979,0.638,28.898
1747675524.23,0.003,-0.002,-0.017,-0.001,0.001,-0.001,0.979,0.638,28.898
1747675524.24,0.003,-0.003,-0.016,0.001,-0.001,-0.002,0.979,0.639,28.897
1747675524.25,0.004,-0.003,-0.016,-0.000,0.001,-0.000,0.980,0.640,28.897
1747675524.26,0.004,-0.003,-0.016,-0.002,-0.001,-0.002,0.979,0.639,28.897
1747675524.27,0.004,-0.003,-0.017,0.000,-0.001,-0.001,0.979,0.639,28.896
1747675524.28,0.004,-0.001,-0.017,-0.001,-0.001,0.001,0.979,0.638,28.896
1747675524.29,0.003,-0.003,-0.016,-0.001,-0.004,-0.000,0.979,0.638,28.896
1747675524.30,0.003,-0.003,-0.016,0.001,-0.001,0.000,0.979,0.637,28.895
1747675524.31,0.003,-0.002,-0.016,-0.000,0.000,-0.001,0.979,0.637,28.896
1747675524.32,0.003,-0.002,-0.017,-0.001,0.000,0.001,0.979,0.637,28.896
1747675524.33,0.003,-0.002,-0.016,0.001,-0.002,-0.001,0.979,0.637,28.895
1747675524.34,0.002,-0.003,-0.015,0.003,0.001,0.002,0.980,0.638,28.896
1747675524.35,0.002,-0.002,-0.017,-0.000,0.003,0.001,0.981,0.639,28.896
1747675524.36,0.002,-0.002,-0.016,-0.000,-0.000,0.003,0.980,0.640,28.896
1747675524.37,0.002,-0.003,-0.015,0.002,-0.000,-0.000,0.981,0.640,28.897
1747675524.38,0.002,-0.003,-0.017,-0.001,-0.002,-0.001,0.982,0.640,28.897
1747675524.39,0.003,-0.002,-0.017,0.001,0.000,-0.000,0.981,0.639,28.897
1747675524.40,0.002,-0.003,-0.016,-0.002,-0.000,-0.000,0.981,0.640,28.898
1747675524.41,0.003,-0.003,-0.017,0.002,0.002,-0.002,0.981,0.640,28.897
1747675524.42,0.003,-0.003,-0.017,-0.002,-0.002,0.001,0.981,0.639,28.897
1747675524.43,0.002,-0.003,-0.016,-0.001,0.001,-0.000,0.981,0.640,28.897
1747675524.44,0.003,-0.003,-0.017,-0.000,0.000,-0.000,0.980,0.640,28.897
1747675524.45,0.003,-0.002,-0.017,0.000,0.001,-0.001,0.979,0.641,28.897
1747675524.46,0.002,-0.003,-0.016,-0.001,-0.000,0.001,0.979,0.642,28.898
1747675524.47,0.003,-0.002,-0.015,0.001,0.001,0.001,0.979,0.643,28.898
1747675524.48,0.003,-0.003,-0.016,-0.002,-0.000,0.002,0.979,0.643,28.899
1747675524.49,0.003,-0.003,-0.017,0.000,-0.001,0.002,0.979,0.643,28.900
1747675524.50,0.003,-0.003,-0.016,0.001,-0.001,-0.000,0.980,0.642,28.900
1747675524.51,0.003,-0.003,-0.017,-0.001,0.001,-0.002,0.980,0.643,28.899
1747675524.52,0.003,-0.003,-0.016,-0.000,-0.001,0.000,0.980,0.644,28.899
1747675524.53,0.003,-0.004,-0.016,0.000,0.002,0.002,0.980,0.645,28.900
1747675524.54,0.002,-0.003,-0.016,-0.001,-0.001,0.001,0.980,0.645,28.900
1747675524.55,0.003,-0.004,-0.015,0.000,-0.001,-0.000,0.980,0.645,28.900
1747675524.56,0.003,-0.004,-0.017,0.002,0.002,-0.002,0.982,0.646,28.900
1747675524.57,0.002,-0.004,-0.017,0.004,0.002,-0.000,0.982,0.647,28.900
1747675524.58,0.003,-0.003,-0.016,0.000,0.000,-0.001,0.983,0.647,28.900
1747675524.59,0.002,-0.003,-0.018,-0.001,-0.001,-0.001,0.983,0.647,28.900
1747675524.60,0.001,-0.002,-0.016,-0.001,-0.001,0.001,0.982,0.647,28.900
1747675524.61,0.002,-0.003,-0.017,0.000,-0.001,0.001,0.981,0.646,28.900
1747675524.62,0.002,-0.002,-0.017,-0.000,-0.002,-0.001,0.982,0.646,28.900
1747675524.63,0.002,-0.002,-0.016,-0.001,-0.002,0.000,0.981,0.645,28.900
1747675524.64,0.002,-0.002,-0.016,-0.000,0.000,-0.003,0.982,0.645,28.899
1747675524.65,0.003,-0.002,-0.018,0.000,-0.003,-0.000,0.981,0.645,28.899
1747675524.66,0.003,-0.002,-0.017,0.000,-0.002,0.001,0.982,0.644,28.899
1747675524.67,0.002,-0.003,-0.018,0.000,-0.001,0.001,0.982,0.643,28.900
1747675524.68,0.003,-0.002,-0.016,0.001,-0.003,0.002,0.982,0.643,28.899
1747675524.69,0.003,-0.004,-0.017,-0.001,-0.003,0.003,0.981,0.642,28.900
1747675524.70,0.003,-0.004,-0.017,-0.002,-0.002,0.002,0.981,0.641,28.900
1747675524.71,0.003,-0.003,-0.016,0.002,-0.003,-0.002,0.981,0.640,28.900
1747675524.72,0.003,-0.003,-0.017,-0.002,-0.000,-0.002,0.981,0.640,28.900
1747675524.73,0.004,-0.003,-0.017,0.000,-0.002,0.001,0.981,0.640,28.900
1747675524.74,0.003,-0.003,-0.016,0.000,-0.000,-0.000,0.981,0.639,28.900
1747675524.75,0.003,-0.003,-0.015,-0.000,0.001,-0.000,0.982,0.639,28.900
1747675524.76,0.004,-0.002,-0.015,-0.000,-0.001,0.000,0.982,0.639,28.900
1747675524.77,0.002,-0.002,-0.015,-0.001,0.003,0.001,0.982,0.639,28.900
1747675524.78,0.001,-0.001,-0.016,-0.001,0.001,-0.001,0.982,0.639,28.901
1747675524.79,0.001,-0.002,-0.016,-0.002,0.001,-0.000,0.982,0.640,28.901
1747675524.80,0.001,-0.003,-0.016,-0.001,0.002,0.002,0.981,0.641,28.901
1747675524.81,0.001,-0.003,-0.017,-0.001,0.001,0.002,0.981,0.643,28.901
1747675524.82,0.001,-0.003,-0.017,0.001,-0.001,-0.001,0.981,0.642,28.900
1747675524.83,0.002,-0.004,-0.017,-0.001,0.002,0.001,0.981,0.642,28.900
1747675524.84,0.002,-0.004,-0.017,0.000,0.000,0.000,0.980,0.643,28.901
1747675524.85,0.003,-0.004,-0.016,0.001,0.003,-0.002,0.981,0.643,28.901
1747675524.86,0.004,-0.003,-0.016,-0.001,0.002,-0.001,0.981,0.645,28.900
1747675524.87,0.003,-0.005,-0.017,-0.001,-0.001,0.000,0.981,0.646,28.900
1747675524.88,0.004,-0.003,-0.015,-0.001,0.000,0.000,0.981,0.645,28.899
1747675524.89,0.004,-0.003,-0.017,-0.002,-0.002,0.002,0.980,0.645,28.900
1747675524.90,0.004,-0.003,-0.016,-0.001,0.001,-0.000,0.980,0.646,28.900
1747675524.91,0.004,-0.001,-0.017,-0.000,0.004,-0.001,0.979,0.647,28.899
1747675524.92,0.004,-0.001,-0.017,-0.001,0.001,-0.001,0.979,0.648,28.900
1747675524.93,0.003,-0.001,-0.016,0.002,0.000,0.000,0.980,0.648,28.900
1747675524.94,0.003,-0.002,-0.016,-0.000,-0.002,0.001,0.981,0.648,28.900
1747675524.95,0.002,-0.002,-0.017,-0.000,0.000,0.001,0.981,0.647,28.900
1747675524.96,0.001,-0.003,-0.016,0.001,0.001,0.001,0.982,0.648,28.900
1747675524.97,0.001,-0.003,-0.016,-0.002,0.000,0.001,0.982,0.648,28.901
1747675524.98,0.003,-0.003,-0.016,0.004,0.001,0.001,0.983,0.648,28.901
1747675524.99,0.002,-0.003,-0.017,-0.001,0.001,-0.001,0.984,0.648,28.902
1747675525.00,0.002,-0.003,-0.017,0.002,0.001,0.002,0.984,0.649,28.903
1747675525.01,0.003,-0.004,-0.017,-0.001,-0.000,-0.000,0.985,0.649,28.903
1747675525.02,0.001,-0.002,-0.016,0.001,-0.002,0.002,0.986,0.649,28.903
1747675525.03,0.002,-0.002,-0.017,-0.002,0.005,-0.000,0.986,0.649,28.903
1747675525.04,0.003,-0.002,-0.017,0.000,-0.001,-0.000,0.985,0.649,28.903
1747675525.05,0.002,-0.003,-0.016,-0.002,-0.001,-0.001,0.985,0.649,28.903
1747675525.06,0.003,-0.003,-0.017,-0.001,-0.000,0.002,0.984,0.648,28.904
1747675525.07,0.003,-0.003,-0.015,0.001,0.001,0.001,0.984,0.648,28.904
1747675525.08,0.002,-0.003,-0.016,-0.001,0.000,0.001,0.985,0.648,28.904
1747675525.09,0.003,-0.002,-0.016,-0.001,-0.002,0.001,0.986,0.647,28.904
1747675525.10,0.003,-0.003,-0.016,0.000,0.001,-0.003,0.986,0.648,28.904
1747675525.11,0.003,-0.003,-0.017,0.000,-0.000,-0.001,0.987,0.648,28.904
1747675525.12,0.003,-0.003,-0.018,0.001,-0.000,-0.001,0.987,0.648,28.904
1747675525.13,0.003,-0.002,-0.017,0.001,0.000,0.002,0.987,0.649,28.905
1747675525.14,0.002,-0.003,-0.016,-0.001,0.000,-0.001,0.987,0.649,28.905
1747675525.15,0.003,-0.003,-0.017,-0.001,-0.002,0.001,0.986,0.648,28.905
1747675525.16,0.004,-0.003,-0.017,0.001,-0.003,0.000,0.986,0.646,28.905
1747675525.17,0.004,-0.003,-0.015,-0.001,-0.002,0.000,0.986,0.646,28.904
1747675525.18,0.004,-0.003,-0.016,-0.002,0.002,-0.002,0.985,0.645,28.904
1747675525.19,0.003,-0.003,-0.016,0.001,0.002,-0.000,0.985,0.645,28.905
1747675525.20,0.003,-0.003,-0.017,0.001,0.002,-0.002,0.985,0.646,28.905
1747675525.21,0.003,-0.003,-0.016,-0.001,0.000,0.002,0.985,0.646,28.905
1747675525.22,0.002,-0.003,-0.017,-0.000,0.000,-0.000,0.985,0.646,28.905
1747675525.23,0.002,-0.003,-0.016,-0.000,0.001,-0.000,0.986,0.646,28.905
1747675525.24,0.001,-0.002,-0.017,0.001,0.000,-0.001,0.986,0.647,28.905
1747675525.25,0.002,-0.001,-0.016,-0.001,-0.001,-0.002,0.986,0.647,28.904
1747675525.26,0.001,-0.002,-0.016,0.000,0.000,0.001,0.986,0.647,28.905
1747675525.27,0.002,-0.002,-0.016,-0.002,-0.001,0.000,0.986,0.646,28.905
1747675525.28,0.002,-0.003,-0.016,-0.001,-0.001,0.001,0.985,0.646,28.904
1747675525.29,0.003,-0.003,-0.016,0.003,-0.001,-0.000,0.986,0.646,28.904
1747675525.30,0.003,-0.003,-0.017,0.001,-0.001,-0.001,0.987,0.646,28.903
1747675525.31,0.003,-0.003,-0.017,0.003,-0.002,-0.003,0.988,0.645,28.903
1747675525.32,0.004,-0.004,-0.016,0.001,0.001,-0.000,0.989,0.645,28.903
1747675525.33,0.004,-0.003,-0.016,0.001,0.000,-0.001,0.989,0.646,28.903
1747675525.34,0.003,-0.003,-0.016,-0.001,-0.003,-0.001,0.989,0.645,28.903
1747675525.35,0.003,-0.004,-0.017,0.001,0.002,0.001,0.989,0.645,28.904
1747675525.36,0.002,-0.003,-0.016,0.000,0.002,0.002,0.989,0.646,28.904
1747675525.37,0.003,-0.003,-0.017,-0.002,0.000,-0.002,0.989,0.646,28.904
1747675525.38,0.002,-0.003,-0.016,-0.000,-0.001,-0.001,0.989,0.646,28.903
1747675525.39,0.002,-0.002,-0.016,-0.000,-0.001,-0.001,0.989,0.646,28.903
1747675525.40,0.002,-0.002,-0.015,0.001,-0.002,-0.001,0.989,0.645,28.903
1747675525.41,0.002,-0.002,-0.015,0.001,0.000,0.000,0.990,0.644,28.903
1747675525.42,0.001,-0.002,-0.016,0.003,0.000,0.001,0.991,0.645,28.903
1747675525.43,0.001,-0.003,-0.016,0.001,-0.001,0.001,0.992,0.645,28.903
1747675525.44,0.001,-0.002,-0.017,0.003,0.001,-0.001,0.992,0.646,28.903
1747675525.45,-0.000,-0.002,-0.017,0.001,0.001,-0.001,0.993,0.646,28.903
1747675525.46,0.002,-0.002,-0.016,-0.001,0.000,-0.000,0.993,0.647,28.903
1747675525.47,0.003,-0.002,-0.016,0.001,0.002,0.001,0.993,0.647,28.903
1747675525.48,0.003,-0.003,-0.016,0.001,0.003,0.000,0.993,0.648,28.903
1747675525.49,0.003,-0.002,-0.016,-0.001,0.001,0.002,0.993,0.648,28.904
1747675525.50,0.004,-0.002,-0.016,-0.000,0.002,0.001,0.993,0.648,28.904
1747675525.51,0.005,-0.004,-0.016,-0.000,-0.002,-0.003,0.993,0.649,28.904
1747675525.52,0.005,-0.002,-0.015,-0.002,-0.000,0.000,0.992,0.648,28.904
1747675525.53,0.004,-0.003,-0.015,-0.001,-0.002,-0.002,0.992,0.647,28.904
1747675525.54,0.003,-0.003,-0.017,-0.000,-0.000,0.001,0.992,0.647,28.904
1747675525.55,0.004,-0.003,-0.017,0.001,0.001,0.000,0.992,0.647,28.904
1747675525.56,0.002,-0.002,-0.016,0.000,0.001,-0.000,0.993,0.647,28.904
1747675525.57,0.001,-0.002,-0.017,-0.001,-0.000,-0.001,0.993,0.647,28.903
1747675525.58,0.001,-0.002,-0.016,0.002,0.002,-0.002,0.993,0.647,28.902
1747675525.59,0.002,-0.002,-0.017,-0.001,0.001,-0.002,0.994,0.648,28.902
1747675525.60,0.002,-0.003,-0.017,0.001,-0.001,-0.002,0.993,0.648,28.902
1747675525.61,0.002,-0.002,-0.016,0.000,0.001,-0.001,0.994,0.649,28.902
1747675525.62,0.002,-0.002,-0.016,0.003,0.000,0.000,0.993,0.649,28.902
1747675525.63,0.002,-0.003,-0.016,-0.001,-0.002,0.001,0.994,0.648,28.901
1747675525.64,0.002,-0.003,-0.016,0.000,0.002,-0.002,0.995,0.649,28.901
1747675525.65,0.002,-0.003,-0.017,-0.000,0.004,-0.001,0.995,0.650,28.901
1747675525.66,0.002,-0.003,-0.017,-0.000,0.001,0.001,0.995,0.651,28.901
1747675525.67,0.003,-0.003,-0.018,0.001,0.001,0.000,0.995,0.651,28.902
1747675525.68,0.003,-0.002,-0.017,-0.002,-0.002,-0.000,0.995,0.650,28.902
1747675525.69,0.003,-0.003,-0.017,0.001,0.000,-0.001,0.994,0.651,28.901
1747675525.70,0.003,-0.002,-0.015,-0.000,0.002,0.002,0.994,0.651,28.901
1747675525.71,0.004,-0.004,-0.016,0.000,-0.001,-0.000,0.994,0.651,28.901
1747675525.72,0.004,-0.002,-0.016,-0.001,-0.001,0.001,0.994,0.651,28.901
1747675525.73,0.003,-0.002,-0.017,0.001,-0.001,-0.001,0.995,0.651,28.901
1747675525.74,0.002,-0.001,-0.018,-0.001,0.002,-0.000,0.995,0.651,28.901
1747675525.75,0.002,-0.001,-0.018,-0.001,0.000,-0.000,0.994,0.652,28.902
1747675525.76,0.002,-0.002,-0.016,0.000,-0.000,0.001,0.995,0.652,28.902
1747675525.77,0.002,-0.002,-0.017,-0.001,-0.000,-0.001,0.995,0.652,28.902
1747675525.78,0.002,-0.003,-0.017,0.000,-0.001,0.001,0.995,0.652,28.903
1747675525.79,0.001,-0.002,-0.017,-0.001,-0.000,-0.002,0.994,0.652,28.903
1747675525.80,0.001,-0.003,-0.017,0.001,0.000,-0.003,0.994,0.652,28.902
1747675525.81,0.002,-0.002,-0.017,0.001,-0.001,-0.002,0.995,0.652,28.902
1747675525.82,0.003,-0.003,-0.017,0.000,-0.000,0.001,0.995,0.652,28.901
1747675525.83,0.004,-0.003,-0.019,-0.001,-0.000,0.002,0.994,0.652,28.902
1747675525.84,0.003,-0.004,-0.018,-0.002,-0.002,0.002,0.994,0.652,28.902
1747675525.85,0.004,-0.003,-0.018,-0.000,-0.001,0.002,0.994,0.651,28.903
1747675525.86,0.003,-0.003,-0.018,-0.001,0.003,-0.000,0.994,0.652,28.903
1747675525.87,0.001,-0.002,-0.017,-0.002,-0.001,0.001,0.993,0.652,28.903
1747675525.88,0.001,-0.001,-0.017,-0.003,0.003,-0.001,0.993,0.652,28.904
1747675525.89,0.001,-0.002,-0.018,-0.001,0.000,0.001,0.992,0.653,28.904
1747675525.90,0.001,-0.002,-0.018,-0.002,0.002,0.001,0.991,0.653,28.905
1747675525.91,0.002,-0.002,-0.018,-0.002,-0.000,0.000,0.991,0.653,28.905
1747675525.92,0.002,-0.003,-0.018,-0.000,-0.002,-0.003,0.991,0.653,28.904
1747675525.93,0.003,-0.002,-0.017,0.001,-0.001,-0.003,0.991,0.653,28.904
1747675525.94,0.004,-0.002,-0.017,-0.000,0.000,-0.000,0.991,0.652,28.904
1747675525.95,0.005,-0.002,-0.016,0.000,-0.000,0.001,0.992,0.652,28.904
1747675525.96,0.004,-0.003,-0.016,-0.002,-0.000,0.001,0.991,0.652,28.905
1747675525.97,0.004,-0.004,-0.018,-0.001,-0.001,0.001,0.991,0.652,28.905
1747675525.98,0.003,-0.002,-0.018,-0.001,-0.001,0.000,0.992,0.652,28.905
1747675525.99,0.002,-0.002,-0.018,-0.000,-0.002,0.000,0.992,0.653,28.906
1747675526.00,0.002,-0.002,-0.018,0.001,-0.001,-0.001,0.991,0.653,28.906
1747675526.01,0.002,-0.002,-0.017,0.001,-0.000,0.000,0.991,0.653,28.906
1747675526.02,0.001,-0.003,-0.018,0.000,-0.001,0.001,0.992,0.654,28.905
1747675526.03,0.002,-0.002,-0.017,-0.001,0.000,-0.000,0.991,0.654,28.906
1747675526.04,0.001,-0.002,-0.017,-0.000,-0.001,0.001,0.992,0.654,28.907
1747675526.04,0.001,-0.003,-0.017,0.000,-0.000,-0.000,0.992,0.654,28.907
1747675526.06,0.001,-0.003,-0.017,0.000,-0.001,-0.001,0.991,0.653,28.907
1747675526.07,0.002,-0.002,-0.017,-0.001,-0.000,-0.002,0.991,0.652,28.907
1747675526.08,0.002,-0.003,-0.018,-0.002,0.001,-0.002,0.991,0.652,28.906
1747675526.09,0.003,-0.002,-0.017,-0.001,-0.001,0.001,0.991,0.652,28.906
1747675526.09,0.003,-0.003,-0.017,0.003,0.001,0.001,0.992,0.652,28.906
1747675526.10,0.003,-0.003,-0.017,0.001,0.001,-0.001,0.993,0.652,28.906
1747675526.11,0.002,-0.003,-0.017,-0.001,-0.002,-0.001,0.993,0.652,28.905
1747675526.12,0.003,-0.003,-0.016,-0.001,-0.001,-0.000,0.993,0.652,28.905
1747675526.13,0.004,-0.002,-0.018,-0.000,-0.001,-0.001,0.993,0.651,28.905
1747675526.14,0.003,-0.002,-0.016,0.002,-0.003,-0.000,0.993,0.651,28.905
1747675526.15,0.003,-0.002,-0.017,-0.001,-0.001,-0.002,0.993,0.649,28.905
1747675526.16,0.005,-0.002,-0.016,0.000,-0.001,0.001,0.994,0.649,28.905
1747675526.17,0.003,-0.003,-0.016,0.001,0.000,0.001,0.994,0.649,28.904
1747675526.18,0.003,-0.002,-0.018,0.001,-0.002,-0.004,0.994,0.649,28.904
1747675526.19,0.002,-0.003,-0.017,-0.002,0.002,-0.002,0.994,0.648,28.903
1747675526.20,0.002,-0.004,-0.017,0.001,-0.000,0.001,0.994,0.648,28.903
1747675526.21,0.002,-0.003,-0.017,-0.003,0.002,-0.001,0.993,0.648,28.902
1747675526.22,0.001,-0.001,-0.016,-0.000,-0.003,-0.000,0.993,0.649,28.902
1747675526.23,0.002,-0.002,-0.016,-0.002,-0.000,-0.001,0.993,0.649,28.901
1747675526.24,0.003,-0.003,-0.017,-0.001,-0.002,0.002,0.992,0.649,28.901
1747675526.25,0.003,-0.001,-0.017,0.002,0.001,0.001,0.992,0.650,28.902
1747675526.26,0.002,-0.002,-0.015,-0.000,0.001,-0.001,0.992,0.650,28.901
1747675526.27,0.002,-0.004,-0.016,-0.000,-0.001,-0.000,0.992,0.651,28.901
1747675526.28,0.003,-0.002,-0.017,0.000,-0.002,-0.000,0.993,0.650,28.902
1747675526.29,0.003,-0.002,-0.017,-0.000,0.000,0.003,0.993,0.650,28.903
1747675526.30,0.003,-0.003,-0.017,0.001,0.000,0.002,0.994,0.650,28.903
1747675526.31,0.004,-0.002,-0.017,-0.000,-0.000,-0.001,0.994,0.650,28.903
1747675526.32,0.003,-0.003,-0.016,0.001,-0.001,-0.000,0.994,0.650,28.904
1747675526.33,0.003,-0.002,-0.018,-0.000,0.003,-0.002,0.995,0.650,28.904
1747675526.34,0.003,-0.003,-0.016,0.003,-0.000,-0.003,0.995,0.651,28.904
1747675526.35,0.003,-0.003,-0.018,0.000,0.003,0.001,0.996,0.651,28.904
1747675526.36,0.003,-0.003,-0.017,-0.000,0.000,-0.000,0.995,0.651,28.904
1747675526.37,0.004,-0.003,-0.017,0.000,0.001,-0.001,0.995,0.651,28.903
1747675526.38,0.003,-0.003,-0.017,-0.001,0.003,0.001,0.996,0.652,28.904
1747675526.39,0.003,-0.002,-0.016,-0.000,-0.000,0.001,0.997,0.652,28.905
1747675526.40,0.003,-0.001,-0.016,-0.002,0.002,0.001,0.996,0.653,28.906
1747675526.41,0.003,-0.002,-0.016,0.002,-0.001,0.000,0.996,0.652,28.906
1747675526.42,0.003,-0.002,-0.016,-0.001,-0.001,0.000,0.997,0.652,28.906
1747675526.43,0.002,-0.002,-0.016,0.004,0.002,-0.001,0.996,0.653,28.906
1747675526.44,0.003,-0.003,-0.016,-0.001,-0.000,-0.001,0.997,0.653,28.905
1747675526.45,0.002,-0.002,-0.016,-0.001,0.001,-0.002,0.996,0.654,28.905
1747675526.46,0.002,-0.002,-0.015,0.000,0.002,-0.001,0.996,0.654,28.905
1747675526.47,0.002,-0.002,-0.017,-0.000,0.001,0.000,0.997,0.655,28.904
1747675526.48,0.002,-0.003,-0.016,0.001,0.000,-0.001,0.997,0.656,28.904
1747675526.49,0.002,-0.002,-0.016,0.001,0.001,-0.001,0.997,0.656,28.903
1747675526.50,0.002,-0.002,-0.018,0.000,0.001,0.001,0.997,0.656,28.903
1747675526.51,0.002,-0.003,-0.017,0.000,-0.004,0.004,0.998,0.656,28.903
1747675526.52,0.003,-0.002,-0.016,0.001,0.000,-0.002,0.998,0.655,28.903
1747675526.53,0.002,-0.002,-0.015,0.000,0.001,-0.003,0.998,0.656,28.902
1747675526.54,0.003,-0.002,-0.017,-0.001,-0.000,-0.004,0.997,0.656,28.901
1747675526.55,0.003,-0.002,-0.016,0.001,0.001,-0.001,0.997,0.656,28.901
1747675526.56,0.002,-0.003,-0.016,0.000,0.002,-0.001,0.998,0.657,28.901
1747675526.57,0.003,-0.002,-0.016,-0.001,0.003,0.002,0.998,0.658,28.901
1747675526.58,0.002,-0.002,-0.016,0.000,0.002,-0.002,0.998,0.660,28.901
1747675526.59,0.002,-0.002,-0.016,0.000,-0.000,0.001,0.999,0.660,28.900
1747675526.60,0.002,-0.003,-0.016,0.000,0.001,-0.001,0.999,0.660,28.900
1747675526.61,0.003,-0.003,-0.016,0.001,-0.000,0.000,0.999,0.661,28.900
1747675526.62,0.003,-0.003,-0.016,-0.002,-0.001,0.001,0.999,0.661,28.901
1747675526.63,0.002,-0.003,-0.016,0.000,0.000,0.001,0.998,0.661,28.902
1747675526.64,0.002,-0.004,-0.018,-0.001,-0.000,-0.000,0.998,0.661,28.902
1747675526.65,0.003,-0.004,-0.017,-0.000,0.001,0.000,0.998,0.661,28.902
1747675526.66,0.002,-0.004,-0.017,-0.001,0.001,-0.000,0.998,0.662,28.903
1747675526.67,0.002,-0.003,-0.016,-0.001,-0.001,-0.004,0.998,0.662,28.902
1747675526.68,0.003,-0.003,-0.016,0.002,-0.001,0.001,0.998,0.662,28.902
1747675526.69,0.003,-0.001,-0.016,0.000,0.003,-0.001,0.998,0.663,28.901
1747675526.70,0.003,-0.001,-0.016,0.003,-0.002,0.003,0.999,0.664,28.901
1747675526.71,0.003,-0.001,-0.016,-0.002,0.001,0.001,0.998,0.664,28.901
1747675526.72,0.003,-0.002,-0.016,0.001,-0.001,-0.000,0.998,0.664,28.901
1747675526.73,0.004,-0.002,-0.017,0.001,0.002,-0.001,0.999,0.664,28.901
1747675526.74,0.003,-0.001,-0.016,-0.000,-0.000,-0.001,0.999,0.665,28.901
1747675526.75,0.003,-0.002,-0.016,-0.001,0.000,0.001,0.999,0.665,28.901
1747675526.76,0.003,-0.002,-0.015,0.001,-0.001,-0.002,0.998,0.665,28.901
1747675526.77,0.002,-0.003,-0.015,-0.002,0.001,0.001,0.998,0.666,28.901
1747675526.78,0.002,-0.003,-0.016,0.001,0.000,0.002,0.998,0.666,28.902
1747675526.79,0.002,-0.002,-0.017,-0.002,0.003,-0.002,0.998,0.666,28.901
1747675526.80,0.002,-0.002,-0.016,-0.000,-0.001,-0.003,0.998,0.666,28.901
1747675526.81,0.001,-0.003,-0.015,0.002,-0.003,-0.002,0.999,0.666,28.900
1747675526.82,0.002,-0.002,-0.016,-0.000,-0.001,0.001,0.999,0.665,28.901
1747675526.83,0.002,-0.002,-0.016,0.000,-0.001,0.000,0.999,0.665,28.901
1747675526.84,0.003,-0.001,-0.015,0.000,0.001,0.000,1.000,0.666,28.900
1747675526.85,0.002,-0.003,-0.016,-0.000,0.001,0.000,1.000,0.667,28.900
1747675526.86,0.003,-0.002,-0.015,-0.000,-0.000,-0.001,1.000,0.667,28.901
1747675526.87,0.003,-0.002,-0.016,-0.001,0.001,0.000,1.001,0.668,28.901
1747675526.88,0.002,-0.002,-0.015,0.002,-0.002,-0.000,1.001,0.668,28.901
1747675526.89,0.001,-0.002,-0.015,0.001,-0.001,0.001,1.002,0.668,28.901
1747675526.90,0.002,-0.003,-0.017,-0.001,0.002,0.002,1.003,0.668,28.901
1747675526.91,0.002,-0.003,-0.016,0.000,0.002,0.002,1.003,0.669,28.902
1747675526.92,0.003,-0.002,-0.016,0.000,0.000,0.003,1.004,0.669,28.903
1747675526.93,0.003,-0.002,-0.016,-0.002,-0.003,-0.000,1.004,0.668,28.903
1747675526.94,0.004,-0.003,-0.016,-0.002,-0.002,-0.001,1.002,0.668,28.904
1747675526.95,0.004,-0.003,-0.017,-0.001,0.000,-0.002,1.002,0.668,28.904
1747675526.96,0.003,-0.003,-0.017,-0.003,0.003,0.001,1.001,0.669,28.904
1747675526.97,0.003,-0.002,-0.017,-0.001,0.000,0.003,1.001,0.670,28.905
1747675526.98,0.003,-0.002,-0.017,0.001,-0.000,0.002,1.001,0.669,28.905
1747675526.99,0.002,-0.002,-0.016,0.000,0.000,-0.001,1.001,0.669,28.905
1747675527.00,0.001,-0.002,-0.016,0.002,-0.002,-0.001,1.002,0.669,28.905
1747675527.01,0.001,-0.002,-0.016,0.001,0.000,0.001,1.002,0.669,28.905
1747675527.02,0.002,-0.001,-0.017,-0.000,-0.000,-0.000,1.002,0.669,28.905
1747675527.03,0.003,-0.002,-0.017,-0.000,-0.001,0.001,1.002,0.670,28.904
1747675527.04,0.003,-0.003,-0.018,0.003,-0.001,0.000,1.002,0.670,28.904
1747675527.05,0.004,-0.002,-0.017,0.001,-0.001,0.000,1.002,0.670,28.904
1747675527.06,0.002,-0.002,-0.016,-0.001,0.002,-0.000,1.002,0.670,28.904
1747675527.07,0.001,-0.003,-0.016,-0.001,0.001,0.001,1.002,0.670,28.904
1747675527.08,0.002,-0.003,-0.016,0.002,0.001,-0.001,1.003,0.671,28.905
1747675527.09,0.001,-0.003,-0.017,0.001,0.005,-0.000,1.003,0.672,28.905
1747675527.10,0.002,-0.003,-0.018,-0.001,-0.000,0.002,1.003,0.672,28.905
1747675527.11,0.002,-0.002,-0.016,-0.000,-0.001,-0.000,1.003,0.671,28.905
1747675527.12,0.002,-0.002,-0.016,0.002,0.002,-0.001,1.004,0.672,28.905
1747675527.13,0.002,-0.001,-0.017,-0.003,-0.001,-0.000,1.004,0.672,28.905
1747675527.14,0.002,-0.002,-0.016,-0.001,-0.001,0.002,1.002,0.671,28.905
1747675527.15,0.002,-0.002,-0.017,-0.003,-0.001,-0.001,1.002,0.671,28.906
1747675527.16,0.003,-0.003,-0.016,0.002,-0.001,0.002,1.003,0.671,28.906
1747675527.17,0.003,-0.001,-0.015,0.002,-0.000,0.002,1.004,0.670,28.906
1747675527.18,0.003,-0.002,-0.017,0.000,-0.001,0.002,1.004,0.670,28.907
1747675527.19,0.003,-0.003,-0.017,0.000,-0.001,0.000,1.004,0.670,28.907
1747675527.20,0.002,-0.003,-0.016,0.000,-0.001,-0.001,1.004,0.670,28.906
1747675527.21,0.002,-0.004,-0.017,0.000,-0.001,0.001,1.005,0.669,28.906
1747675527.22,0.001,-0.003,-0.017,-0.000,0.002,0.002,1.005,0.669,28.907
1747675527.23,0.001,-0.003,-0.015,-0.002,-0.002,-0.000,1.004,0.669,28.907
1747675527.24,0.001,-0.003,-0.015,-0.000,-0.001,0.001,1.003,0.669,28.907
1747675527.25,0.001,-0.003,-0.016,0.004,-0.002,-0.001,1.005,0.668,28.907
1747675527.26,0.002,-0.002,-0.017,0.000,0.001,-0.000,1.006,0.668,28.907
1747675527.27,0.002,-0.002,-0.017,0.002,-0.000,-0.001,1.007,0.669,28.907
1747675527.28,0.002,-0.000,-0.016,-0.001,-0.003,-0.000,1.007,0.668,28.906
1747675527.29,0.002,-0.002,-0.016,-0.002,0.000,-0.000,1.007,0.668,28.906
1747675527.30,0.003,-0.001,-0.016,-0.000,-0.000,0.001,1.007,0.668,28.906
1747675527.31,0.002,-0.002,-0.017,0.000,0.001,0.001,1.008,0.669,28.906
1747675527.32,0.003,-0.002,-0.018,-0.001,-0.001,0.002,1.009,0.668,28.906
1747675527.33,0.003,-0.002,-0.018,0.001,-0.000,-0.000,1.009,0.668,28.906
1747675527.34,0.002,-0.003,-0.017,-0.001,0.001,-0.001,1.008,0.669,28.906
1747675527.35,0.002,-0.003,-0.017,0.000,0.001,-0.001,1.008,0.669,28.906
1747675527.36,0.003,-0.003,-0.018,-0.000,-0.000,0.000,1.008,0.669,28.907
1747675527.37,0.003,-0.003,-0.017,-0.000,0.000,0.001,1.008,0.669,28.907
1747675527.38,0.003,-0.003,-0.018,0.000,-0.001,-0.000,1.008,0.670,28.907
1747675527.39,0.003,-0.002,-0.017,-0.001,-0.003,-0.000,1.008,0.670,28.906
1747675527.40,0.003,-0.003,-0.017,0.000,-0.002,-0.001,1.007,0.669,28.907
1747675527.41,0.002,-0.001,-0.017,0.000,-0.000,-0.000,1.008,0.669,28.907
1747675527.42,0.001,-0.001,-0.017,0.003,-0.000,-0.000,1.009,0.669,28.908
1747675527.43,0.002,-0.002,-0.017,0.002,-0.000,-0.001,1.009,0.669,28.907
1747675527.44,0.002,-0.002,-0.018,0.002,-0.002,-0.000,1.010,0.668,28.907
1747675527.45,0.001,-0.003,-0.017,0.001,-0.001,0.001,1.010,0.668,28.906
1747675527.46,0.001,-0.002,-0.017,0.001,0.001,0.001,1.010,0.667,28.906
1747675527.47,0.002,-0.002,-0.018,0.001,0.000,-0.000,1.011,0.667,28.907
1747675527.48,0.002,-0.002,-0.015,0.003,0.003,-0.001,1.013,0.668,28.907
1747675527.49,0.002,-0.003,-0.017,-0.001,-0.000,-0.000,1.013,0.668,28.907
1747675527.50,0.003,-0.002,-0.017,-0.001,-0.000,-0.001,1.013,0.668,28.907
1747675527.51,0.003,-0.002,-0.016,0.000,-0.001,0.002,1.014,0.668,28.907
1747675527.52,0.002,-0.002,-0.017,0.001,0.000,0.002,1.014,0.667,28.908
1747675527.53,0.002,-0.003,-0.017,-0.001,0.001,-0.001,1.014,0.668,28.907
1747675527.54,0.002,-0.003,-0.017,-0.001,-0.001,-0.001,1.014,0.668,28.907
1747675527.55,0.002,-0.003,-0.018,-0.001,0.000,-0.000,1.013,0.668,28.907
1747675527.56,0.002,-0.002,-0.017,-0.000,0.002,-0.002,1.013,0.668,28.907
1747675527.57,0.002,-0.002,-0.017,0.001,0.001,0.001,1.013,0.668,28.907
1747675527.58,0.003,-0.002,-0.018,0.001,-0.002,0.001,1.014,0.667,28.906
1747675527.59,0.003,-0.002,-0.016,0.001,0.001,0.000,1.015,0.667,28.907
1747675527.60,0.002,-0.001,-0.016,0.002,-0.001,-0.000,1.016,0.667,28.907
1747675527.61,0.003,-0.002,-0.017,0.001,-0.003,-0.000,1.015,0.666,28.907
1747675527.62,0.002,-0.002,-0.017,-0.000,-0.002,-0.002,1.016,0.665,28.907
1747675527.63,0.002,-0.002,-0.017,0.000,0.001,-0.000,1.016,0.664,28.907
1747675527.64,0.003,-0.003,-0.017,0.001,-0.002,0.000,1.017,0.664,28.907
1747675527.65,0.001,-0.003,-0.017,-0.002,-0.002,0.001,1.017,0.664,28.907
1747675527.66,0.002,-0.002,-0.016,-0.001,0.003,0.002,1.016,0.664,28.907
1747675527.67,0.002,-0.004,-0.017,-0.003,0.002,-0.000,1.015,0.665,28.908
1747675527.68,0.003,-0.002,-0.018,-0.001,0.001,-0.003,1.015,0.665,28.907
1747675527.69,0.003,-0.003,-0.017,-0.003,-0.003,0.002,1.013,0.664,28.908
1747675527.70,0.002,-0.002,-0.016,0.001,0.001,-0.000,1.013,0.664,28.908
1747675527.71,0.002,-0.002,-0.017,-0.000,0.001,0.001,1.013,0.664,28.908
1747675527.72,0.002,-0.002,-0.017,-0.000,-0.000,0.001,1.013,0.665,28.909
1747675527.73,0.001,-0.001,-0.016,0.000,0.001,0.000,1.014,0.665,28.909
1747675527.74,0.001,-0.001,-0.016,-0.001,-0.000,-0.003,1.013,0.665,28.908
1747675527.75,0.001,-0.002,-0.018,0.000,-0.003,-0.002,1.014,0.665,28.908
1747675527.76,0.003,-0.001,-0.017,0.001,-0.002,-0.001,1.014,0.663,28.908
1747675527.77,0.003,-0.001,-0.016,0.000,0.001,0.001,1.014,0.662,28.907
1747675527.78,0.003,-0.001,-0.016,0.001,0.001,0.000,1.014,0.663,28.907
1747675527.79,0.004,-0.003,-0.017,0.000,-0.000,-0.001,1.015,0.663,28.907
1747675527.80,0.003,-0.003,-0.018,0.001,-0.003,-0.002,1.015,0.663,28.906
1747675527.81,0.003,-0.003,-0.017,0.001,-0.002,0.001,1.015,0.662,28.907
1747675527.82,0.002,-0.003,-0.017,0.001,0.000,-0.002,1.016,0.662,28.906
1747675527.83,0.002,-0.003,-0.016,-0.002,-0.001,-0.001,1.016,0.662,28.906
1747675527.84,0.002,-0.001,-0.016,0.001,-0.000,0.001,1.015,0.662,28.906
1747675527.85,0.003,-0.002,-0.017,-0.003,-0.002,0.004,1.016,0.661,28.906
1747675527.86,0.002,-0.002,-0.017,0.000,-0.002,0.000,1.016,0.660,28.907
1747675527.87,0.002,-0.002,-0.017,0.001,0.001,-0.001,1.017,0.660,28.906
1747675527.88,0.002,-0.002,-0.016,-0.001,-0.002,-0.002,1.017,0.660,28.906
1747675527.89,0.002,-0.002,-0.016,0.002,0.002,0.000,1.017,0.660,28.906
1747675527.90,0.001,-0.001,-0.016,-0.002,-0.001,0.001,1.017,0.661,28.906
1747675527.91,0.001,-0.002,-0.017,-0.002,0.001,0.001,1.017,0.661,28.906
1747675527.92,0.002,-0.002,-0.017,0.001,0.002,-0.000,1.017,0.661,28.906
1747675527.93,0.003,-0.002,-0.017,0.003,-0.001,0.002,1.018,0.662,28.906
1747675527.94,0.003,-0.003,-0.016,-0.000,-0.001,-0.000,1.018,0.661,28.906
1747675527.95,0.004,-0.002,-0.017,0.000,-0.000,-0.001,1.019,0.661,28.906
1747675527.96,0.003,-0.003,-0.017,0.002,-0.000,0.000,1.019,0.661,28.906
1747675527.97,0.003,-0.003,-0.016,-0.001,0.003,0.001,1.019,0.662,28.906
1747675527.98,0.003,-0.003,-0.017,-0.001,0.001,0.002,1.018,0.662,28.906
1747675527.99,0.003,-0.002,-0.016,-0.001,0.000,0.002,1.017,0.663,28.906
1747675528.00,0.003,-0.002,-0.017,-0.001,-0.001,-0.000,1.017,0.664,28.906
1747675528.01,0.003,-0.002,-0.016,0.002,0.001,0.000,1.017,0.664,28.906
1747675528.02,0.002,-0.001,-0.016,0.002,-0.005,-0.002,1.018,0.663,28.906
1747675528.03,0.002,-0.001,-0.016,0.001,0.002,-0.001,1.017,0.662,28.907
1747675528.04,0.002,-0.000,-0.018,-0.002,-0.004,0.001,1.017,0.662,28.907
1747675528.05,0.002,-0.001,-0.016,0.001,0.000,-0.000,1.018,0.661,28.907
1747675528.06,0.001,-0.001,-0.016,-0.000,0.000,0.003,1.018,0.662,28.907
1747675528.07,0.001,-0.001,-0.017,0.002,0.002,0.001,1.018,0.662,28.907
1747675528.08,0.001,-0.002,-0.015,0.001,0.003,-0.000,1.019,0.662,28.907
1747675528.09,0.003,-0.003,-0.017,0.003,-0.001,0.000,1.019,0.663,28.907
1747675528.10,0.003,-0.002,-0.016,0.002,0.002,0.001,1.021,0.662,28.908
1747675528.11,0.003,-0.003,-0.016,-0.000,-0.001,-0.000,1.021,0.663,28.907
1747675528.12,0.003,-0.003,-0.016,0.002,-0.002,-0.001,1.021,0.663,28.907
1747675528.13,0.003,-0.002,-0.016,0.003,0.000,-0.001,1.021,0.662,28.906
1747675528.14,0.003,-0.002,-0.017,-0.001,0.000,0.000,1.021,0.662,28.905
1747675528.15,0.003,-0.002,-0.017,-0.002,-0.000,-0.002,1.021,0.662,28.905
1747675528.16,0.002,-0.001,-0.015,-0.001,0.000,-0.001,1.021,0.662,28.905
1747675528.17,0.004,-0.003,-0.015,0.001,-0.001,0.000,1.021,0.663,28.906
1747675528.18,0.003,-0.003,-0.017,-0.001,-0.000,0.002,1.021,0.663,28.905
1747675528.19,0.002,-0.002,-0.017,-0.001,0.000,0.002,1.021,0.662,28.906
1747675528.20,0.002,-0.002,-0.017,-0.001,0.000,-0.002,1.021,0.662,28.906
1747675528.21,0.003,-0.002,-0.017,0.001,-0.002,-0.000,1.021,0.661,28.906
1747675528.22,0.002,-0.003,-0.017,-0.001,0.003,-0.001,1.021,0.661,28.905
1747675528.23,0.002,-0.003,-0.016,-0.000,0.000,-0.000,1.021,0.662,28.905
1747675528.24,0.003,-0.002,-0.015,-0.000,-0.001,0.001,1.021,0.662,28.906
1747675528.25,0.003,-0.002,-0.018,-0.001,0.000,0.003,1.021,0.661,28.906
1747675528.26,0.004,-0.002,-0.017,0.001,0.001,0.000,1.021,0.661,28.906
1747675528.27,0.003,-0.002,-0.017,-0.000,0.001,-0.002,1.022,0.662,28.906
1747675528.28,0.003,-0.001,-0.017,-0.001,0.000,-0.001,1.022,0.662,28.906
1747675528.29,0.002,-0.002,-0.017,-0.001,0.002,-0.001,1.022,0.662,28.905
1747675528.30,0.002,-0.001,-0.017,-0.003,-0.001,-0.000,1.021,0.662,28.906
1747675528.31,0.002,-0.001,-0.016,-0.002,-0.001,-0.001,1.021,0.662,28.906
1747675528.32,0.002,-0.001,-0.017,-0.000,-0.002,0.000,1.021,0.662,28.906
1747675528.33,0.001,-0.002,-0.017,0.002,-0.000,0.003,1.021,0.661,28.907
1747675528.34,0.001,-0.002,-0.017,-0.001,-0.001,-0.000,1.022,0.661,28.907
1747675528.35,0.002,-0.002,-0.016,0.003,-0.001,-0.002,1.022,0.661,28.907
1747675528.36,0.002,-0.002,-0.017,0.001,0.001,-0.002,1.022,0.660,28.906
1747675528.37,0.002,-0.002,-0.016,-0.001,0.004,-0.000,1.022,0.662,28.906
1747675528.38,0.002,-0.002,-0.016,-0.001,0.002,-0.000,1.022,0.662,28.907
1747675528.39,0.002,-0.002,-0.016,-0.001,0.000,0.001,1.022,0.663,28.907
1747675528.40,0.002,-0.001,-0.017,-0.001,-0.002,0.001,1.021,0.663,28.907
1747675528.41,0.004,-0.003,-0.017,0.003,0.000,0.002,1.021,0.663,28.907
1747675528.42,0.004,-0.002,-0.016,-0.003,-0.003,-0.000,1.021,0.663,28.907
1747675528.43,0.003,-0.002,-0.017,-0.001,-0.001,-0.001,1.021,0.662,28.908
1747675528.44,0.004,-0.002,-0.017,0.000,-0.000,0.000,1.021,0.662,28.908
1747675528.45,0.003,-0.003,-0.016,0.000,0.000,0.001,1.021,0.662,28.909
1747675528.46,0.003,-0.003,-0.016,0.001,-0.002,0.000,1.022,0.661,28.909
1747675528.47,0.003,-0.003,-0.015,0.002,0.000,0.002,1.022,0.661,28.909
1747675528.48,0.003,-0.003,-0.015,0.001,0.001,-0.000,1.022,0.661,28.910
1747675528.49,0.002,-0.002,-0.017,0.001,0.000,-0.002,1.024,0.662,28.909
1747675528.50,0.001,-0.002,-0.016,-0.001,0.000,-0.001,1.024,0.662,28.910
1747675528.51,-0.000,-0.002,-0.016,-0.000,0.001,-0.000,1.023,0.661,28.909
1747675528.52,0.001,-0.001,-0.017,-0.000,0.001,0.001,1.024,0.662,28.909
1747675528.53,0.002,-0.002,-0.015,-0.000,-0.000,-0.001,1.023,0.662,28.909
1747675528.54,0.003,-0.002,-0.017,-0.000,0.001,0.000,1.023,0.662,28.908
1747675528.55,0.003,-0.002,-0.017,-0.001,0.000,-0.001,1.023,0.662,28.908
1747675528.56,0.002,-0.002,-0.016,0.002,-0.000,-0.003,1.022,0.662,28.908
1747675528.57,0.003,-0.001,-0.017,-0.001,0.000,-0.001,1.022,0.662,28.908
1747675528.58,0.004,-0.002,-0.017,-0.002,-0.000,-0.001,1.023,0.663,28.907
1747675528.59,0.004,-0.003,-0.017,0.001,0.002,-0.001,1.022,0.664,28.907
1747675528.60,0.003,-0.002,-0.015,0.001,0.003,-0.001,1.022,0.664,28.907
1747675528.61,0.003,-0.001,-0.015,-0.000,-0.001,-0.001,1.023,0.665,28.906
1747675528.62,0.003,-0.002,-0.016,-0.002,-0.001,-0.000,1.022,0.664,28.907
1747675528.63,0.002,-0.001,-0.017,0.001,0.000,-0.001,1.021,0.664,28.907
1747675528.64,0.002,-0.002,-0.016,-0.001,-0.000,-0.000,1.021,0.665,28.907
1747675528.65,0.002,-0.002,-0.017,0.001,-0.002,0.001,1.021,0.664,28.907
1747675528.66,0.002,-0.002,-0.017,0.002,0.003,0.001,1.022,0.664,28.908
1747675528.67,0.002,-0.002,-0.017,0.001,-0.000,0.001,1.022,0.665,28.908
1747675528.68,0.002,-0.002,-0.016,-0.000,0.000,-0.002,1.023,0.664,28.908
1747675528.69,0.001,-0.002,-0.018,-0.001,0.002,-0.000,1.023,0.664,28.908
1747675528.70,0.001,-0.002,-0.016,0.001,0.000,-0.003,1.023,0.665,28.908
1747675528.71,0.002,-0.001,-0.017,0.002,-0.000,0.000,1.023,0.666,28.907
1747675528.72,0.001,-0.001,-0.017,0.001,0.000,-0.001,1.023,0.665,28.907
1747675528.73,0.002,-0.002,-0.018,0.002,-0.002,0.001,1.024,0.665,28.907
1747675528.74,0.002,-0.002,-0.017,0.000,-0.005,0.003,1.025,0.664,28.907
1747675528.75,0.002,-0.002,-0.016,0.001,-0.000,-0.003,1.025,0.663,28.908
1747675528.76,0.003,-0.002,-0.016,0.002,0.003,-0.002,1.026,0.664,28.907
1747675528.77,0.003,-0.002,-0.016,0.002,0.003,-0.002,1.027,0.665,28.906
1747675528.78,0.003,-0.002,-0.017,-0.001,-0.001,-0.001,1.026,0.665,28.906
1747675528.79,0.003,-0.002,-0.017,-0.001,-0.003,0.000,1.026,0.664,28.907
1747675528.80,0.002,-0.002,-0.017,-0.001,0.000,0.000,1.026,0.664,28.907
1747675528.81,0.002,-0.002,-0.016,0.000,0.001,-0.001,1.026,0.665,28.906
1747675528.82,0.003,-0.002,-0.016,-0.001,-0.000,-0.001,1.026,0.665,28.906
1747675528.83,0.003,-0.002,-0.016,0.000,-0.002,0.001,1.026,0.665,28.906
1747675528.84,0.002,-0.003,-0.015,0.001,-0.003,0.000,1.026,0.664,28.907
1747675528.85,0.002,-0.002,-0.016,0.002,0.002,0.001,1.027,0.664,28.907
1747675528.86,0.002,-0.002,-0.018,-0.000,0.001,0.002,1.028,0.664,28.908
1747675528.87,0.002,-0.002,-0.016,-0.000,-0.001,0.003,1.027,0.665,28.909
1747675528.88,0.002,-0.002,-0.017,0.001,-0.001,0.001,1.027,0.665,28.910
1747675528.89,0.002,-0.002,-0.016,0.003,-0.001,0.001,1.029,0.665,28.910
1747675528.90,0.002,-0.001,-0.016,-0.001,0.000,-0.001,1.029,0.665,28.910
1747675528.91,0.002,-0.001,-0.016,-0.000,-0.002,0.001,1.028,0.665,28.910
1747675528.92,0.002,-0.001,-0.016,-0.001,-0.001,-0.001,1.028,0.665,28.910
1747675528.93,0.001,-0.003,-0.016,-0.001,-0.001,-0.000,1.028,0.665,28.910
1747675528.94,0.002,-0.001,-0.016,0.002,0.001,0.002,1.029,0.665,28.910
1747675528.95,0.002,-0.002,-0.017,0.001,0.002,-0.001,1.029,0.666,28.910
1747675528.96,0.002,-0.002,-0.018,0.001,0.002,-0.002,1.029,0.666,28.910
1747675528.97,0.002,-0.002,-0.017,0.001,-0.001,0.000,1.030,0.667,28.910
1747675528.98,0.002,-0.002,-0.017,0.001,-0.001,-0.002,1.030,0.666,28.909
1747675528.99,0.003,-0.003,-0.017,0.000,0.000,0.000,1.030,0.666,28.908
1747675529.00,0.002,-0.002,-0.015,0.000,0.001,-0.003,1.031,0.667,28.908
1747675529.01,0.003,-0.002,-0.015,0.002,0.000,0.003,1.031,0.668,28.908
1747675529.02,0.002,-0.002,-0.017,0.001,-0.000,-0.001,1.031,0.668,28.908
1747675529.03,0.002,-0.003,-0.016,-0.002,-0.002,0.002,1.031,0.668,28.909
1747675529.03,0.002,-0.002,-0.016,0.000,0.001,-0.005,1.031,0.668,28.909
1747675529.04,0.003,-0.002,-0.017,-0.000,-0.002,-0.002,1.031,0.668,28.908
1747675529.06,0.003,-0.002,-0.016,-0.001,-0.001,-0.001,1.031,0.667,28.908
1747675529.06,0.003,-0.001,-0.016,0.001,-0.001,0.002,1.031,0.667,28.909
1747675529.07,0.002,-0.002,-0.016,0.002,-0.002,0.002,1.032,0.667,28.909
1747675529.08,0.002,-0.001,-0.017,-0.000,-0.002,0.001,1.033,0.666,28.909
1747675529.09,0.002,-0.001,-0.016,0.001,0.001,0.000,1.033,0.666,28.910
1747675529.10,0.001,-0.002,-0.016,-0.000,-0.003,0.002,1.033,0.665,28.910
1747675529.12,0.000,-0.001,-0.017,0.000,0.001,-0.001,1.033,0.665,28.911
1747675529.12,0.002,-0.001,-0.017,-0.000,0.001,-0.001,1.033,0.665,28.910
1747675529.13,0.002,-0.002,-0.017,-0.000,-0.001,0.002,1.034,0.665,28.910
1747675529.14,0.001,-0.002,-0.015,-0.003,0.000,0.001,1.033,0.665,28.910
1747675529.15,0.002,-0.002,-0.016,-0.000,-0.001,-0.004,1.033,0.665,28.909
1747675529.16,0.002,-0.002,-0.016,0.000,-0.001,-0.003,1.033,0.664,28.908
1747675529.17,0.003,-0.002,-0.015,-0.001,-0.001,0.001,1.033,0.665,28.908
1747675529.18,0.003,-0.002,-0.016,-0.002,-0.000,-0.001,1.032,0.665,28.908
1747675529.19,0.003,-0.002,-0.016,0.001,-0.000,0.001,1.032,0.665,28.909
1747675529.20,0.003,-0.001,-0.016,-0.001,-0.000,0.002,1.032,0.664,28.909
1747675529.21,0.003,-0.001,-0.016,0.002,0.000,-0.002,1.033,0.665,28.908
1747675529.22,0.003,-0.001,-0.016,-0.001,-0.000,0.000,1.033,0.666,28.908
1747675529.23,0.003,-0.001,-0.016,0.001,0.001,-0.001,1.033,0.666,28.908
1747675529.24,0.003,-0.001,-0.017,0.001,-0.003,-0.002,1.032,0.666,28.908
1747675529.25,0.003,-0.002,-0.017,-0.002,-0.000,0.001,1.032,0.666,28.908
1747675529.26,0.002,-0.001,-0.016,0.001,-0.001,0.002,1.032,0.666,28.908
1747675529.27,0.002,-0.001,-0.014,0.001,0.001,-0.000,1.033,0.666,28.908
1747675529.28,0.002,-0.001,-0.016,0.001,0.000,0.000,1.033,0.667,28.908
1747675529.29,0.002,-0.001,-0.017,-0.000,0.001,-0.000,1.034,0.667,28.908
1747675529.30,0.002,-0.002,-0.015,0.001,-0.001,-0.002,1.034,0.666,28.907
1747675529.31,0.001,-0.003,-0.016,-0.002,0.001,0.001,1.034,0.667,28.908
1747675529.32,0.002,-0.002,-0.017,0.000,-0.002,-0.001,1.034,0.667,28.908
1747675529.33,0.002,-0.001,-0.016,0.002,-0.001,0.000,1.034,0.666,28.908
1747675529.34,0.002,-0.001,-0.016,-0.001,-0.002,-0.001,1.034,0.666,28.907
1747675529.35,0.002,-0.002,-0.016,0.002,0.000,0.001,1.034,0.665,28.907
1747675529.36,0.003,-0.001,-0.014,0.001,0.000,0.001,1.035,0.665,28.906
1747675529.37,0.003,-0.001,-0.016,0.004,-0.001,0.000,1.036,0.664,28.907
1747675529.38,0.004,-0.002,-0.015,0.002,0.001,-0.000,1.037,0.666,28.908
1747675529.39,0.003,-0.001,-0.017,0.001,0.002,-0.001,1.038,0.666,28.907
1747675529.40,0.003,-0.001,-0.016,-0.001,-0.001,-0.001,1.038,0.666,28.907
1747675529.41,0.003,-0.002,-0.017,-0.003,-0.002,0.000,1.037,0.665,28.906
1747675529.42,0.004,-0.002,-0.016,-0.002,0.001,0.002,1.037,0.665,28.907
1747675529.43,0.003,-0.001,-0.017,0.001,0.000,0.002,1.036,0.665,28.907
1747675529.44,0.003,-0.002,-0.015,0.002,0.001,0.000,1.037,0.665,28.908
1747675529.45,0.002,-0.001,-0.016,-0.001,-0.002,-0.002,1.037,0.665,28.908
1747675529.46,0.002,-0.002,-0.017,-0.002,-0.002,-0.000,1.036,0.665,28.908
1747675529.47,0.002,-0.001,-0.017,0.000,-0.001,0.000,1.037,0.664,28.908
1747675529.48,0.002,-0.002,-0.016,-0.000,-0.002,0.001,1.037,0.664,28.908
1747675529.49,0.002,-0.002,-0.017,0.001,-0.000,-0.000,1.037,0.664,28.908
1747675529.50,0.003,-0.002,-0.017,-0.003,0.001,-0.001,1.035,0.664,28.908
1747675529.51,0.002,-0.002,-0.016,0.001,0.001,-0.001,1.035,0.664,28.908
1747675529.52,0.002,-0.002,-0.016,-0.001,-0.002,0.002,1.035,0.664,28.908
1747675529.53,0.002,-0.001,-0.017,0.000,-0.001,0.001,1.034,0.664,28.908
1747675529.54,0.002,-0.001,-0.016,0.002,-0.001,-0.000,1.035,0.664,28.908
1747675529.55,0.001,-0.001,-0.017,0.001,0.001,-0.003,1.035,0.663,28.908
1747675529.56,0.003,-0.002,-0.016,-0.000,-0.002,0.000,1.035,0.663,28.908
1747675529.57,0.002,-0.001,-0.017,0.000,0.003,-0.001,1.035,0.663,28.908
1747675529.58,0.003,-0.001,-0.017,-0.000,0.001,0.002,1.035,0.663,28.908
1747675529.59,0.003,-0.002,-0.017,-0.001,-0.001,0.000,1.035,0.663,28.910
1747675529.60,0.004,-0.002,-0.017,-0.001,0.003,0.000,1.035,0.664,28.910
1747675529.61,0.004,-0.001,-0.016,-0.001,0.001,-0.001,1.036,0.665,28.910
1747675529.62,0.004,-0.001,-0.016,0.001,-0.003,-0.002,1.036,0.664,28.910
1747675529.63,0.003,-0.003,-0.018,0.000,-0.000,-0.001,1.036,0.664,28.909
1747675529.64,0.003,-0.003,-0.018,0.002,-0.000,-0.001,1.036,0.664,28.910
1747675529.65,0.003,-0.001,-0.017,-0.001,0.001,-0.001,1.037,0.664,28.910
1747675529.66,0.002,-0.002,-0.017,-0.001,0.001,0.000,1.036,0.665,28.910
1747675529.67,0.002,-0.002,-0.017,0.001,0.001,0.002,1.037,0.665,28.910
1747675529.68,0.002,-0.001,-0.017,-0.000,-0.000,0.000,1.036,0.665,28.910
1747675529.69,0.001,-0.000,-0.016,-0.001,-0.001,-0.003,1.036,0.665,28.910
1747675529.70,0.001,-0.001,-0.018,0.001,0.002,-0.000,1.036,0.666,28.910
1747675529.71,0.001,-0.001,-0.016,0.001,-0.002,0.001,1.037,0.666,28.910
1747675529.72,0.001,-0.000,-0.018,0.001,0.001,-0.002,1.036,0.667,28.909
1747675529.73,0.002,-0.002,-0.018,-0.001,-0.001,-0.001,1.036,0.667,28.909
1747675529.74,0.002,-0.002,-0.017,-0.001,0.001,-0.001,1.036,0.667,28.908
1747675529.75,0.002,-0.002,-0.017,0.002,0.002,-0.001,1.037,0.667,28.907
1747675529.76,0.001,-0.003,-0.016,-0.002,0.002,0.000,1.036,0.668,28.908
1747675529.77,0.002,-0.002,-0.017,-0.001,-0.002,0.001,1.036,0.668,28.908
1747675529.78,0.003,-0.002,-0.017,0.001,0.003,-0.001,1.036,0.668,28.908
1747675529.79,0.002,-0.002,-0.018,-0.001,0.003,-0.001,1.036,0.669,28.908
1747675529.80,0.003,-0.002,-0.017,0.000,0.003,-0.001,1.036,0.669,28.908
1747675529.81,0.003,-0.002,-0.016,-0.001,-0.000,0.001,1.036,0.670,28.908
1747675529.82,0.003,-0.002,-0.016,0.000,-0.001,-0.001,1.035,0.670,28.907
1747675529.83,0.004,-0.001,-0.016,0.000,-0.002,-0.001,1.035,0.669,28.906
1747675529.84,0.003,0.000,-0.017,0.001,0.003,-0.000,1.035,0.669,28.906
1747675529.85,0.003,-0.000,-0.015,0.001,-0.002,-0.000,1.035,0.669,28.906
1747675529.86,0.002,-0.000,-0.016,-0.001,0.001,-0.003,1.035,0.669,28.905
1747675529.87,0.002,-0.002,-0.016,-0.003,-0.000,0.000,1.035,0.669,28.905
1747675529.88,0.001,-0.002,-0.017,0.001,0.001,0.001,1.035,0.669,28.905
1747675529.89,0.001,-0.001,-0.016,-0.001,-0.001,-0.002,1.035,0.669,28.904
1747675529.90,0.002,-0.003,-0.016,-0.000,-0.002,-0.001,1.035,0.669,28.903
1747675529.91,0.002,-0.002,-0.017,0.001,-0.003,-0.002,1.035,0.668,28.903
1747675529.92,0.002,-0.003,-0.018,0.001,-0.002,-0.000,1.034,0.667,28.903
1747675529.93,0.002,-0.002,-0.018,0.000,-0.001,0.002,1.034,0.667,28.904
1747675529.94,0.002,-0.002,-0.017,-0.001,0.001,0.001,1.033,0.667,28.904
1747675529.95,0.002,-0.002,-0.017,0.004,0.003,-0.002,1.034,0.668,28.903
1747675529.96,0.003,-0.002,-0.017,-0.000,0.002,-0.001,1.035,0.668,28.902
1747675529.97,0.003,-0.002,-0.019,0.001,-0.001,0.001,1.034,0.667,28.903
1747675529.98,0.003,-0.000,-0.018,0.001,0.001,-0.001,1.034,0.668,28.903
1747675529.99,0.002,-0.000,-0.017,0.001,0.000,0.000,1.035,0.668,28.903
1747675530.00,0.002,-0.002,-0.016,-0.001,-0.000,-0.000,1.035,0.669,28.902
1747675530.01,0.002,-0.001,-0.016,0.003,0.001,-0.000,1.036,0.669,28.902
1747675530.02,0.002,-0.001,-0.017,0.002,0.002,-0.000,1.036,0.670,28.901
1747675530.03,0.003,-0.002,-0.016,0.003,0.001,0.000,1.037,0.670,28.901
1747675530.04,0.003,-0.002,-0.017,0.000,0.001,0.004,1.037,0.671,28.902
1747675530.05,0.003,-0.002,-0.016,-0.002,-0.000,-0.001,1.037,0.671,28.902
1747675530.06,0.003,-0.002,-0.018,0.001,-0.001,-0.001,1.037,0.671,28.901
1747675530.07,0.003,-0.002,-0.016,0.001,0.001,-0.002,1.036,0.671,28.901
1747675530.08,0.003,-0.002,-0.016,-0.001,-0.002,0.002,1.036,0.671,28.901
1747675530.09,0.003,-0.002,-0.017,0.001,-0.001,-0.000,1.037,0.671,28.900
1747675530.10,0.002,-0.002,-0.017,0.001,-0.001,0.000,1.037,0.670,28.900
1747675530.11,0.002,-0.001,-0.017,-0.002,0.000,-0.002,1.037,0.670,28.900
1747675530.12,0.003,-0.001,-0.016,0.000,0.001,0.001,1.037,0.670,28.900
1747675530.13,0.001,-0.002,-0.015,-0.002,0.002,0.002,1.036,0.671,28.901
1747675530.14,0.002,-0.002,-0.017,0.001,0.001,0.001,1.036,0.671,28.902
1747675530.15,0.003,-0.001,-0.017,-0.000,0.001,-0.001,1.036,0.672,28.901
1747675530.16,0.002,-0.001,-0.016,-0.000,0.003,0.004,1.037,0.673,28.901
1747675530.17,0.001,-0.001,-0.016,0.001,-0.001,-0.001,1.037,0.674,28.902
1747675530.18,0.001,-0.002,-0.017,0.003,-0.001,-0.001,1.037,0.674,28.901
1747675530.19,0.001,-0.001,-0.016,-0.000,-0.001,0.001,1.038,0.674,28.902
1747675530.20,0.001,-0.001,-0.018,-0.002,-0.002,0.001,1.038,0.673,28.902
1747675530.21,0.002,-0.001,-0.017,0.000,-0.000,0.000,1.038,0.673,28.901
1747675530.22,0.002,-0.002,-0.016,-0.000,-0.000,0.001,1.038,0.673,28.902
1747675530.23,0.003,-0.001,-0.018,-0.002,-0.000,0.003,1.037,0.673,28.902
1747675530.24,0.005,-0.001,-0.018,0.001,0.000,-0.001,1.037,0.673,28.902
1747675530.25,0.004,-0.002,-0.016,0.000,-0.002,-0.001,1.038,0.673,28.902
1747675530.26,0.005,-0.001,-0.017,0.000,-0.001,0.000,1.037,0.673,28.902
1747675530.27,0.004,-0.002,-0.017,-0.001,0.001,0.001,1.037,0.672,28.903
1747675530.28,0.003,-0.002,-0.018,0.001,-0.001,0.001,1.037,0.671,28.903
1747675530.29,0.002,-0.002,-0.016,0.001,-0.000,0.002,1.037,0.672,28.903
1747675530.30,0.001,-0.001,-0.016,-0.001,0.000,-0.001,1.036,0.672,28.903
1747675530.31,0.003,-0.002,-0.016,0.000,0.001,0.002,1.036,0.672,28.903
1747675530.32,0.002,-0.001,-0.016,0.002,-0.002,-0.000,1.037,0.671,28.904
1747675530.33,0.001,-0.001,-0.016,0.001,0.000,-0.001,1.037,0.672,28.904
1747675530.34,0.000,-0.001,-0.018,-0.002,0.001,0.000,1.037,0.672,28.904
1747675530.35,0.000,-0.000,-0.017,0.001,-0.001,0.001,1.037,0.673,28.903
1747675530.36,0.001,-0.001,-0.016,0.002,0.000,0.003,1.037,0.673,28.904
1747675530.37,0.001,-0.002,-0.017,-0.000,-0.001,-0.001,1.038,0.673,28.904
1747675530.38,0.002,-0.002,-0.018,-0.000,0.000,-0.002,1.038,0.673,28.904
1747675530.39,0.003,-0.002,-0.018,0.000,0.001,-0.002,1.038,0.674,28.903
1747675530.40,0.004,-0.003,-0.016,0.000,0.002,-0.003,1.039,0.674,28.902
1747675530.41,0.004,-0.003,-0.017,-0.001,0.002,-0.001,1.038,0.675,28.901
1747675530.42,0.003,-0.002,-0.016,-0.000,-0.002,0.000,1.038,0.674,28.902
1747675530.43,0.003,-0.002,-0.017,0.006,-0.017,0.001,1.040,0.672,28.901
1747675530.44,0.004,-0.001,-0.017,-0.005,0.021,0.000,1.054,0.639,28.902
1747675530.45,0.007,-0.000,-0.030,0.013,-0.030,0.001,1.055,0.638,28.902
1747675530.46,0.000,-0.002,-0.004,-0.002,0.004,-0.002,1.057,0.634,28.902
1747675530.47,0.003,0.000,-0.019,-0.000,0.004,-0.001,1.057,0.635,28.902
1747675530.48,0.002,-0.001,-0.016,-0.003,-0.003,0.000,1.057,0.636,28.902
1747675530.49,0.003,-0.000,-0.018,-0.002,-0.002,0.001,1.056,0.635,28.903
1747675530.50,0.001,-0.001,-0.016,0.000,0.000,-0.001,1.056,0.635,28.902
1747675530.51,0.001,-0.002,-0.019,0.001,-0.001,-0.000,1.056,0.634,28.902
1747675530.52,0.000,-0.002,-0.017,-0.002,0.007,-0.002,1.055,0.636,28.902
1747675530.53,0.001,-0.002,-0.015,-0.001,0.008,-0.002,1.054,0.640,28.902
1747675530.54,0.001,-0.004,-0.016,-0.006,0.017,0.003,1.052,0.648,28.903
1747675530.55,0.001,-0.003,-0.014,-0.007,0.022,0.002,1.048,0.658,28.904
1747675530.56,0.002,-0.001,-0.016,-0.002,0.005,0.001,1.044,0.669,28.904
1747675530.57,0.003,-0.002,-0.016,-0.003,0.002,0.004,1.042,0.671,28.905
1747675530.58,0.004,-0.002,-0.021,-0.001,0.000,0.002,1.042,0.671,28.906
1747675530.59,0.003,-0.000,-0.016,0.000,0.001,-0.001,1.040,0.671,28.906
1747675530.60,0.002,-0.001,-0.018,-0.001,0.002,-0.001,1.040,0.672,28.906
1747675530.61,0.002,0.000,-0.017,-0.001,0.002,0.002,1.040,0.671,28.907
1747675530.62,0.002,-0.002,-0.018,-0.001,0.002,0.001,1.040,0.671,28.908
1747675530.63,0.001,-0.002,-0.015,0.001,-0.000,0.001,1.040,0.672,28.908
1747675530.64,0.001,-0.001,-0.015,-0.001,0.001,0.003,1.040,0.672,28.909
1747675530.65,0.003,-0.001,-0.016,0.001,0.003,0.002,1.040,0.673,28.909
1747675530.66,0.002,-0.002,-0.017,-0.002,0.002,-0.001,1.041,0.674,28.909
1747675530.67,0.002,-0.002,-0.016,0.001,0.001,0.001,1.041,0.675,28.909
1747675530.68,0.002,-0.001,-0.017,-0.000,0.001,0.001,1.041,0.675,28.910
1747675530.69,0.003,-0.001,-0.017,-0.002,0.001,0.000,1.041,0.676,28.909
1747675530.70,0.003,-0.002,-0.015,0.000,-0.000,-0.000,1.040,0.676,28.909
1747675530.71,0.003,-0.001,-0.016,-0.003,0.000,-0.001,1.040,0.677,28.908
1747675530.72,0.004,-0.001,-0.017,0.002,0.000,0.001,1.039,0.676,28.909
1747675530.73,0.003,-0.001,-0.015,0.001,0.002,0.001,1.040,0.677,28.909
1747675530.74,0.004,-0.001,-0.017,0.001,0.001,-0.000,1.040,0.677,28.909
1747675530.75,0.003,-0.001,-0.016,0.002,0.000,0.001,1.040,0.677,28.909
1747675530.76,0.002,-0.002,-0.017,-0.001,-0.001,0.001,1.041,0.677,28.909
1747675530.77,0.001,-0.002,-0.018,0.000,0.002,0.000,1.041,0.678,28.909
1747675530.78,0.000,-0.001,-0.018,0.000,-0.000,-0.001,1.041,0.677,28.908
1747675530.79,0.001,-0.003,-0.016,0.000,-0.001,0.001,1.040,0.678,28.908
1747675530.80,0.001,-0.002,-0.017,-0.001,-0.001,-0.002,1.040,0.677,28.908
1747675530.81,0.002,-0.002,-0.017,-0.000,0.000,-0.001,1.040,0.677,28.907
1747675530.82,0.002,-0.002,-0.017,0.002,-0.000,-0.000,1.040,0.677,28.907
1747675530.83,0.000,-0.001,-0.017,0.001,0.001,-0.001,1.041,0.677,28.906
1747675530.84,0.001,-0.001,-0.017,0.002,0.002,0.002,1.041,0.678,28.906
1747675530.85,0.001,-0.001,-0.017,0.001,-0.001,0.002,1.042,0.678,28.906
1747675530.86,0.002,-0.000,-0.017,-0.001,-0.002,-0.001,1.043,0.678,28.906
1747675530.87,0.003,-0.001,-0.016,0.003,-0.000,-0.002,1.043,0.678,28.906
1747675530.88,0.004,-0.000,-0.016,-0.001,-0.001,0.001,1.043,0.677,28.906
1747675530.89,0.005,-0.000,-0.016,-0.001,0.001,0.000,1.043,0.677,28.906
1747675530.90,0.004,-0.001,-0.017,0.003,-0.001,-0.000,1.042,0.678,28.904
1747675530.91,0.003,-0.001,-0.016,-0.002,-0.000,0.003,1.043,0.678,28.904
1747675530.92,0.003,-0.003,-0.015,-0.001,0.000,0.002,1.042,0.678,28.905
1747675530.93,0.002,-0.002,-0.017,0.001,-0.003,-0.003,1.042,0.677,28.905
1747675530.94,0.002,-0.002,-0.018,0.002,-0.001,-0.002,1.043,0.677,28.904
1747675530.95,0.001,-0.002,-0.018,-0.002,-0.001,-0.001,1.043,0.678,28.903
1747675530.96,0.001,-0.001,-0.016,0.002,0.001,-0.000,1.043,0.678,28.903
1747675530.97,0.001,-0.001,-0.016,-0.002,0.000,-0.001,1.043,0.678,28.902
1747675530.98,0.001,-0.001,-0.016,0.002,-0.002,0.002,1.043,0.677,28.902
1747675530.99,0.000,-0.003,-0.015,0.001,-0.000,-0.001,1.043,0.677,28.902
1747675531.00,0.001,-0.002,-0.017,-0.000,0.001,-0.002,1.044,0.677,28.902
1747675531.01,0.000,-0.001,-0.016,0.002,-0.000,-0.000,1.044,0.677,28.901
1747675531.02,0.001,-0.001,-0.017,0.001,-0.001,0.000,1.045,0.677,28.901
1747675531.03,0.003,-0.000,-0.018,0.046,-0.139,-0.000,1.052,0.657,28.902
1747675531.04,0.005,-0.000,-0.021,-0.036,0.118,0.000,1.071,0.614,28.901
1747675531.05,0.004,0.000,-0.017,0.017,-0.028,0.001,1.071,0.616,28.901
1747675531.06,0.003,-0.002,-0.013,-0.006,0.012,-0.001,1.072,0.618,28.901
1747675531.07,0.003,-0.001,-0.020,-0.007,0.020,-0.004,1.069,0.627,28.900
1747675531.08,0.003,-0.002,-0.016,-0.007,0.015,-0.001,1.064,0.637,28.900
1747675531.09,0.004,-0.004,-0.020,-0.006,0.016,-0.001,1.061,0.647,28.898
1747675531.10,0.001,-0.004,-0.013,-0.005,0.014,0.001,1.058,0.654,28.898
1747675531.11,0.001,-0.003,-0.020,-0.013,0.024,0.001,1.053,0.664,28.897
1747675531.12,-0.001,-0.003,-0.015,-0.002,0.002,-0.000,1.049,0.673,28.897
1747675531.13,0.001,-0.002,-0.018,-0.004,0.005,0.004,1.048,0.674,28.898
1747675531.14,0.001,-0.001,-0.020,-0.003,0.001,-0.001,1.046,0.676,28.898
1747675531.15,-0.000,0.000,-0.015,-0.002,0.001,-0.001,1.046,0.677,28.898
1747675531.16,0.001,0.001,-0.016,0.001,-0.000,-0.001,1.045,0.678,28.898
1747675531.17,0.002,0.000,-0.015,-0.001,0.001,-0.001,1.045,0.679,28.898
1747675531.18,0.002,-0.000,-0.016,-0.000,0.002,-0.001,1.045,0.680,28.897
1747675531.19,0.001,-0.001,-0.018,0.000,0.001,-0.000,1.045,0.681,28.897
1747675531.20,0.001,-0.001,-0.018,-0.001,-0.002,-0.001,1.045,0.681,28.897
1747675531.21,0.002,-0.002,-0.017,0.001,0.000,-0.001,1.046,0.681,28.896
1747675531.22,0.003,-0.003,-0.017,-0.001,0.003,0.000,1.046,0.682,28.896
1747675531.23,0.003,-0.003,-0.017,-0.002,0.001,0.001,1.045,0.682,28.896
1747675531.24,0.004,-0.003,-0.017,0.000,0.003,-0.002,1.044,0.682,28.896
1747675531.25,0.004,-0.002,-0.019,-0.000,0.001,-0.000,1.044,0.683,28.895
1747675531.26,0.003,-0.002,-0.016,-0.001,0.001,-0.003,1.044,0.684,28.895
1747675531.27,0.002,-0.001,-0.015,0.000,-0.001,-0.000,1.044,0.684,28.894
1747675531.28,0.001,-0.001,-0.017,0.001,-0.002,0.001,1.044,0.683,28.894
1747675531.29,0.002,-0.001,-0.016,-0.002,0.002,0.001,1.043,0.683,28.894
1747675531.30,0.001,-0.001,-0.016,-0.001,0.001,-0.001,1.043,0.684,28.895
1747675531.31,0.001,-0.000,-0.017,0.002,-0.001,0.001,1.043,0.683,28.895
1747675531.32,0.001,0.000,-0.017,0.002,0.002,0.001,1.044,0.684,28.895
1747675531.33,0.002,-0.001,-0.016,0.000,0.002,-0.003,1.044,0.684,28.895
1747675531.34,0.001,-0.001,-0.017,0.002,0.000,-0.002,1.044,0.684,28.894
1747675531.35,0.002,-0.002,-0.018,-0.000,0.000,-0.001,1.045,0.684,28.894
1747675531.36,0.003,-0.001,-0.018,-0.001,-0.001,-0.000,1.045,0.684,28.894
1747675531.37,0.003,-0.002,-0.017,-0.001,0.001,0.001,1.045,0.684,28.893
1747675531.38,0.003,-0.002,-0.017,0.000,-0.001,-0.001,1.045,0.685,28.894
1747675531.39,0.004,-0.003,-0.016,-0.001,0.001,-0.002,1.045,0.685,28.893
1747675531.40,0.004,-0.003,-0.016,-0.000,0.000,0.002,1.044,0.686,28.893
1747675531.41,0.003,-0.001,-0.016,-0.000,-0.001,-0.001,1.044,0.686,28.893
1747675531.42,0.003,-0.001,-0.018,-0.002,-0.002,-0.001,1.044,0.686,28.893
1747675531.43,0.002,-0.001,-0.017,0.001,0.000,0.001,1.043,0.685,28.893
1747675531.44,-0.000,-0.001,-0.016,0.002,0.001,0.000,1.044,0.685,28.893
1747675531.45,0.000,0.000,-0.016,0.000,0.001,0.002,1.044,0.686,28.893
1747675531.46,0.001,-0.001,-0.016,-0.001,-0.001,-0.002,1.043,0.686,28.893
1747675531.47,0.002,-0.002,-0.017,0.002,0.001,-0.002,1.043,0.687,28.892
1747675531.48,0.002,-0.001,-0.016,-0.000,-0.001,0.000,1.043,0.686,28.892
1747675531.49,0.003,-0.001,-0.016,0.003,-0.002,-0.001,1.043,0.686,28.893
1747675531.50,0.002,-0.001,-0.016,-0.002,0.000,-0.000,1.043,0.686,28.893
1747675531.51,0.002,-0.002,-0.015,0.084,-0.180,0.009,1.056,0.657,28.893
1747675531.52,0.006,-0.000,-0.030,-0.010,0.015,0.001,1.064,0.645,28.895
1747675531.53,-0.003,-0.002,0.008,0.010,-0.002,-0.002,1.071,0.634,28.895
1747675531.54,0.005,0.002,-0.023,0.001,-0.002,-0.003,1.072,0.634,28.894
1747675531.55,0.002,-0.001,-0.020,-0.003,0.005,-0.003,1.072,0.636,28.894
1747675531.56,0.004,-0.001,-0.015,-0.005,0.005,-0.002,1.071,0.637,28.893
1747675531.57,0.004,-0.003,-0.020,-0.002,0.004,0.000,1.069,0.640,28.892
1747675531.58,0.003,-0.003,-0.016,-0.003,0.006,-0.000,1.068,0.644,28.893
1747675531.59,0.002,-0.003,-0.015,-0.007,0.014,0.001,1.065,0.649,28.892
1747675531.60,0.001,-0.004,-0.015,-0.009,0.017,0.001,1.061,0.658,28.893
1747675531.61,0.000,-0.003,-0.014,-0.008,0.021,-0.001,1.056,0.667,28.894
1747675531.62,0.001,-0.002,-0.018,-0.008,0.010,-0.001,1.050,0.680,28.894
1747675531.63,0.000,-0.001,-0.016,-0.002,0.002,-0.000,1.048,0.682,28.894
1747675531.64,0.002,-0.002,-0.020,-0.001,-0.001,0.001,1.047,0.683,28.895
