Time,AccX,AccY,AccZ,GyroX,GyroY,GyroZ,Pitch,Roll,Yaw
1747510092.10,-0.065,-0.038,0.114,-0.267,-0.524,-0.151,24.348,8.486,-28.487
1747510092.12,0.016,-0.077,0.030,-0.015,-0.760,-0.155,24.150,7.797,-28.633
1747510092.14,0.026,-0.033,-0.098,0.269,-1.039,-0.366,24.256,6.891,-28.972
1747510092.16,0.027,-0.051,-0.008,0.492,-0.702,-0.472,24.648,6.097,-29.568
1747510092.18,-0.004,-0.015,0.066,0.420,-0.556,-0.392,25.141,5.680,-30.187
1747510092.20,0.035,-0.009,0.146,0.206,-0.548,-0.232,25.467,5.234,-30.617
1747510092.22,0.047,0.000,0.165,-0.070,-0.625,-0.167,25.521,4.682,-30.879
1747510092.24,0.058,-0.014,0.086,-0.236,-0.718,-0.132,25.316,3.976,-31.043
1747510092.26,0.014,0.012,0.019,-0.260,-0.348,-0.099,25.025,3.346,-31.174
1747510092.28,-0.008,0.006,-0.051,-0.312,0.024,-0.027,24.687,3.204,-31.232
1747510092.30,0.009,0.011,-0.026,-0.227,0.073,0.036,24.367,3.301,-31.203
1747510092.32,0.015,-0.005,0.015,-0.183,-0.191,0.089,24.157,3.230,-31.110
1747510092.34,0.011,-0.024,0.122,-0.276,-0.868,-0.004,23.900,2.554,-31.025
1747510092.36,-0.010,-0.005,0.100,-0.213,-1.321,-0.202,23.605,1.344,-31.134
1747510092.38,-0.018,0.029,-0.027,0.128,-0.960,-0.352,23.531,0.100,-31.491
1747510092.40,0.015,0.088,-0.107,0.259,-0.354,-0.373,23.781,-0.455,-31.954
1747510092.42,0.023,0.073,-0.082,0.275,0.064,-0.266,24.091,-0.396,-32.351
1747510092.44,0.027,0.037,-0.043,0.224,-0.324,-0.206,24.383,-0.362,-32.635
1747510092.46,0.052,0.022,0.099,0.104,-1.188,-0.299,24.574,-1.134,-32.926
1747510092.48,0.050,0.085,0.129,0.007,-1.592,-0.463,24.642,-2.559,-33.404
1747510092.50,0.007,0.084,0.016,0.277,-1.167,-0.511,24.807,-3.894,-34.000
1747510092.52,-0.022,0.125,-0.201,0.811,-0.499,-0.466,25.456,-4.655,-34.566
1747510092.54,-0.029,0.205,-0.195,1.276,0.114,-0.259,26.698,-4.646,-34.919
1747510092.56,-0.015,0.219,-0.077,1.317,-0.228,-0.119,28.226,-4.631,-34.971
1747510092.58,-0.082,0.202,0.120,1.109,0.017,-0.168,29.665,-4.786,-35.049
1747510092.60,-0.030,0.030,0.080,0.253,0.578,0.232,30.482,-4.532,-34.968
1747510092.62,-0.008,0.105,0.159,-0.450,1.793,0.494,30.280,-3.454,-34.462
1747510092.64,-0.160,0.163,-0.154,-0.717,3.859,0.705,29.596,-0.675,-33.771
1747510092.66,-0.039,0.065,-0.202,-0.956,5.292,1.267,28.639,4.070,-32.469
1747510092.68,0.147,-0.069,-0.108,-1.098,4.598,1.613,27.680,8.908,-30.456
1747510092.70,0.112,-0.020,0.076,-1.540,2.500,1.814,26.581,11.796,-27.958
1747510092.72,-0.075,0.122,0.186,-1.847,1.353,1.301,25.059,12.790,-25.547
1747510092.74,-0.085,0.103,0.094,-2.041,1.552,0.621,23.138,13.655,-23.910
1747510092.76,0.101,0.180,-0.188,-2.068,2.222,0.705,20.993,15.259,-22.585
1747510092.78,0.116,0.019,-0.333,-1.899,2.349,1.182,19.107,17.287,-20.846
1747510092.80,0.173,0.071,-0.252,-1.205,2.159,1.467,17.862,19.246,-18.738
1747510092.82,-0.046,0.039,-0.133,-0.412,1.530,1.120,17.560,20.828,-16.976
1747510092.84,-0.053,-0.066,0.040,-0.208,0.666,0.739,17.671,21.775,-15.892
1747510092.86,-0.082,-0.015,0.098,-0.514,-0.203,0.436,17.555,21.758,-15.168
1747510092.88,-0.212,0.001,0.128,-1.009,-0.844,-0.083,16.858,21.000,-14.641
1747510092.90,-0.462,-0.086,0.069,-1.015,-1.218,-0.913,15.470,19.790,-14.820
1747510092.92,-0.269,-0.157,-0.063,-0.366,-0.895,-1.216,14.307,18.801,-15.816
1747510092.94,-0.067,-0.020,-0.083,-0.224,-0.302,-1.075,13.635,18.415,-17.084
1747510092.96,0.001,0.161,-0.169,-0.700,1.085,-0.474,12.881,18.914,-17.869
1747510092.98,0.011,0.068,-0.107,-1.296,2.372,0.216,11.736,20.989,-17.605
1747510093.00,-0.045,-0.016,0.040,-1.478,2.589,0.369,10.393,23.744,-16.674
1747510093.02,-0.175,-0.130,0.044,-0.844,0.959,-0.177,9.199,25.691,-15.925
1747510093.04,-0.225,-0.179,0.262,0.390,-0.412,-0.823,8.706,26.162,-16.440
1747510093.06,-0.141,-0.034,0.318,0.751,-2.185,-1.180,8.887,24.817,-17.851
1747510093.08,-0.109,0.034,0.304,0.466,-2.553,-1.329,8.973,22.141,-19.550
1747510093.10,-0.061,0.353,0.026,-0.785,0.400,-0.501,8.470,20.951,-20.621
1747510093.12,0.192,0.163,-0.105,-1.961,3.107,1.019,7.056,22.967,-19.773
1747510093.14,0.069,-0.026,-0.089,-2.196,3.130,1.781,5.537,26.393,-17.180
1747510093.16,-0.320,-0.053,-0.206,-0.813,3.916,0.828,4.597,30.076,-14.766
1747510093.18,-0.104,-0.217,-0.168,0.024,2.793,0.252,4.638,33.877,-14.106
1747510093.20,-0.254,0.057,0.135,-0.168,2.915,-0.318,4.584,36.928,-14.132
1747510093.22,0.010,-0.025,-0.194,-0.080,3.221,-0.157,4.204,40.493,-14.284
1747510093.24,0.040,-0.089,-0.090,-0.028,2.272,0.014,4.184,43.751,-14.274
1747510093.26,-0.150,-0.031,0.168,-0.524,0.885,-0.397,3.845,45.482,-14.224
1747510093.28,-0.205,-0.169,0.089,-0.688,0.339,-0.830,2.813,46.187,-14.165
1747510093.30,-0.229,-0.103,-0.021,-0.373,0.138,-1.206,1.541,46.426,-14.561
1747510093.32,0.023,-0.026,0.046,-0.486,-0.242,-1.129,0.228,46.371,-15.183
1747510093.34,0.278,0.192,-0.011,-0.647,-0.114,-0.540,-0.941,46.112,-15.369
1747510093.35,0.102,0.332,-0.266,-0.355,1.429,0.223,-1.470,47.022,-15.075
1747510093.38,0.229,0.068,0.056,-0.478,0.853,0.925,-1.300,48.287,-14.186
1747510093.40,-0.072,-0.069,-0.104,0.027,0.676,0.630,-0.717,49.199,-13.423
1747510093.41,-0.074,-0.069,0.115,-0.355,0.343,0.268,-0.451,49.746,-12.958
1747510093.43,0.025,-0.307,0.010,-0.274,0.279,0.697,-0.433,50.131,-12.409
1747510093.46,0.023,-0.193,0.204,0.402,0.540,1.214,0.524,50.611,-11.643
1747510093.47,-0.180,-0.129,0.303,0.985,1.081,0.847,1.972,51.501,-11.537
1747510093.49,-0.164,-0.116,0.298,0.403,1.837,1.324,3.444,53.236,-11.610
1747510093.51,-0.420,-0.208,0.336,0.130,2.102,1.649,5.086,55.448,-10.729
1747510093.53,-0.250,0.008,0.443,0.032,2.533,0.908,6.210,57.934,-9.899
1747510093.55,-0.505,-0.170,0.524,0.553,3.185,1.106,7.344,61.205,-9.667
1747510093.57,-0.400,0.102,0.531,0.645,3.935,1.157,8.896,65.334,-9.789
1747510093.59,-0.234,0.144,0.542,-0.499,5.057,1.146,9.696,70.047,-9.049
1747510093.61,-0.220,-0.138,0.263,0.982,4.728,2.137,11.703,75.575,-8.731
1747510093.63,-0.253,0.090,0.155,2.400,4.678,2.110,14.637,81.315,-10.280
1747510093.65,-0.184,-0.033,0.279,2.420,5.782,1.843,17.117,87.979,-12.892
1747510093.67,0.037,0.077,0.303,2.667,6.107,1.834,19.065,95.897,-15.968
1747510093.69,0.572,-0.012,-0.049,3.610,5.578,1.874,20.561,103.970,-20.089
1747510093.71,0.567,-0.141,-0.093,4.361,5.406,1.521,21.003,112.047,-25.396
1747510093.73,0.322,-0.158,-0.039,5.283,6.008,1.075,19.857,120.755,-31.386
1747510093.75,0.143,-0.126,0.022,5.168,5.214,0.927,17.266,129.175,-37.288
1747510093.77,0.362,-0.108,0.107,3.989,3.566,1.284,14.573,135.603,-42.239
1747510093.79,0.581,-0.141,0.090,2.024,2.063,1.578,13.108,139.624,-45.917
1747510093.81,0.704,-0.114,-0.068,0.871,1.635,1.865,13.167,142.266,-48.448
1747510093.83,0.622,-0.062,-0.075,0.921,1.466,2.115,13.757,144.601,-50.947
1747510093.85,0.369,-0.058,0.032,1.318,1.423,1.791,14.013,146.886,-53.611
1747510093.87,0.304,-0.080,0.091,1.804,1.491,1.331,13.414,149.135,-56.117
1747510093.89,0.327,-0.040,-0.010,2.292,1.841,1.289,12.085,151.516,-58.637
1747510093.91,0.362,-0.076,0.252,1.859,1.664,1.595,10.684,154.153,-61.248
1747510093.93,0.255,-0.113,0.173,1.230,1.517,1.299,9.781,156.333,-63.619
1747510093.95,0.043,-0.086,0.226,0.543,1.532,0.129,9.204,158.289,-64.813
1747510093.97,0.030,-0.028,0.182,0.138,1.388,-1.094,8.659,159.894,-64.391
1747510093.99,0.086,-0.021,0.154,-0.005,0.739,-1.735,8.041,160.905,-62.806
1747510094.01,0.119,-0.145,0.052,0.059,0.596,-1.573,7.385,161.397,-60.932
1747510094.03,0.231,0.018,-0.028,0.323,0.308,-1.095,6.722,161.700,-59.553
1747510094.05,0.243,-0.008,0.039,0.496,0.480,-0.634,5.930,162.033,-58.753
1747510094.07,0.146,-0.228,0.126,0.205,1.001,-0.086,5.399,162.833,-58.523
1747510094.09,0.156,-0.030,0.135,-0.228,1.401,-0.354,5.388,164.206,-58.330
1747510094.11,0.216,-0.023,-0.026,-0.213,1.038,-0.481,5.515,165.632,-57.740
1747510094.13,0.221,-0.022,-0.022,-0.109,0.412,-0.152,5.611,166.303,-57.331
1747510094.15,0.028,0.035,-0.003,0.162,0.031,-0.316,5.632,166.685,-57.175
1747510094.17,0.030,0.068,-0.024,0.751,-0.300,-0.612,4.955,166.315,-56.659
1747510094.19,0.322,-0.186,0.068,0.864,0.157,0.532,3.958,166.212,-56.785
1747510094.21,0.389,-0.099,0.196,0.021,1.134,1.254,3.677,167.007,-58.045
1747510094.23,0.032,0.152,0.232,-0.772,1.426,0.712,4.416,168.629,-59.116
1747510094.25,-0.199,0.107,0.071,-0.810,1.450,0.072,5.416,170.271,-59.319
1747510094.27,-0.051,-0.033,0.043,-0.509,1.266,0.317,6.249,171.902,-59.345
1747510094.29,0.124,0.024,-0.172,0.222,0.765,0.450,6.479,173.143,-59.826
1747510094.31,0.094,0.111,-0.137,0.647,0.177,0.348,5.974,173.732,-60.316
1747510094.33,0.068,-0.057,-0.066,0.390,-0.010,0.615,5.397,173.825,-60.925
1747510094.35,0.077,-0.121,0.211,0.000,0.812,0.961,5.244,174.282,-61.813
1747510094.37,-0.128,-0.128,0.017,0.089,0.263,1.098,5.445,175.095,-63.070
1747510094.39,0.061,-0.018,-0.088,1.072,0.024,1.005,4.667,175.604,-64.288
1747510094.41,-0.126,-0.115,0.001,0.809,0.095,0.527,3.493,175.647,-65.387
1747510094.43,0.022,-0.234,0.376,-0.047,0.590,0.155,3.457,176.411,-65.804
1747510094.45,0.115,0.030,-0.126,0.198,0.312,-0.007,3.234,176.771,-65.779
1747510094.47,0.072,0.028,0.015,0.142,0.288,0.289,3.091,177.118,-65.963
1747510094.49,0.050,-0.142,0.014,0.187,0.120,0.044,2.921,177.364,-66.227
1747510094.51,-0.003,-0.035,-0.048,0.275,-0.093,-0.129,2.625,177.380,-66.177
1747510094.53,-0.003,-0.004,-0.040,0.321,-0.236,-0.338,2.262,177.198,-65.889
1747510094.55,0.107,-0.007,0.050,0.225,-0.453,-0.007,1.933,176.803,-65.706
1747510094.57,0.087,-0.063,-0.032,0.227,-0.215,0.018,1.717,176.423,-65.706
1747510094.59,0.059,0.073,0.012,0.227,-0.343,0.362,1.432,176.091,-65.961
1747510094.61,-0.048,0.019,-0.001,0.171,-0.151,0.492,1.244,175.777,-66.444
1747510094.63,0.006,-0.033,-0.002,0.147,-0.124,0.465,1.121,175.664,-67.080
1747510094.65,0.071,-0.156,0.007,0.088,-0.332,0.020,1.025,175.361,-67.363
1747510094.67,0.059,0.054,-0.094,0.252,-0.018,-0.031,0.801,175.066,-67.208
1747510094.69,0.133,-0.030,-0.157,0.571,0.373,0.402,0.383,175.318,-67.538
1747510094.71,0.105,-0.011,-0.143,0.691,1.881,0.326,-0.315,176.414,-68.004
1747510094.73,0.100,-0.376,-0.602,3.179,1.039,0.245,-1.751,179.597,-68.395
1747510094.75,-0.161,0.167,1.352,0.110,-0.099,-0.462,-2.340,-179.568,-68.286
1747510094.77,-0.035,0.203,0.525,0.132,-0.066,-0.707,-2.467,-179.260,-67.540
1747510094.79,0.049,0.044,0.139,0.114,-0.040,-0.545,-2.491,-179.278,-66.795
1747510094.81,0.136,0.008,0.007,-0.041,0.041,-0.401,-2.495,-179.236,-66.257
1747510094.83,0.077,0.076,-0.065,-0.020,0.038,-0.422,-2.482,-179.214,-65.787
1747510094.85,-0.045,-0.010,0.042,0.096,-0.122,-0.066,-2.474,-179.219,-65.464
1747510094.87,-0.007,-0.103,0.031,0.003,-0.022,-0.090,-2.510,-179.218,-65.383
1747510094.89,0.077,-0.041,-0.044,0.039,0.021,-0.038,-2.531,-179.218,-65.301
1747510094.91,0.065,-0.032,0.040,0.040,-0.012,-0.015,-2.553,-179.228,-65.291
1747510094.93,0.116,-0.038,0.027,0.139,0.022,-0.097,-2.673,-179.168,-65.215
1747510094.95,0.083,-0.117,-0.055,0.034,-0.036,0.195,-2.778,-179.193,-65.294
1747510094.97,0.095,-0.056,0.026,-0.046,-0.106,0.508,-2.773,-179.277,-65.719
1747510094.99,0.013,-0.007,-0.005,-0.050,-0.121,0.450,-2.727,-179.412,-66.286
1747510095.01,-0.032,0.012,-0.022,-0.007,0.003,0.290,-2.710,-179.483,-66.682
1747510095.03,0.106,-0.046,0.022,-0.020,-0.049,0.439,-2.682,-179.566,-67.070
1747510095.05,0.221,-0.127,-0.015,-0.021,-0.028,0.829,-2.660,-179.635,-67.800
1747510095.07,0.136,-0.061,-0.032,0.013,0.061,1.020,-2.650,-179.698,-68.888
1747510095.09,-0.164,0.086,0.022,0.048,-0.008,0.153,-2.683,-179.680,-69.739
1747510095.11,-0.074,-0.093,-0.043,-0.027,0.037,-0.363,-2.720,-179.703,-69.338
1747510095.13,-0.078,0.106,-0.019,-0.025,0.017,-0.187,-2.643,-179.739,-69.044
1747510095.15,-0.017,0.052,0.013,0.051,0.164,-0.046,-2.667,-179.609,-68.923
1747510095.17,0.045,-0.027,-0.016,0.024,0.091,-0.030,-2.727,-179.416,-68.884
1747510095.19,0.043,-0.043,-0.025,-0.029,0.014,-0.079,-2.700,-179.405,-68.820
1747510095.21,0.030,-0.015,0.014,-0.010,0.012,-0.069,-2.673,-179.388,-68.724
1747510095.23,0.032,-0.001,-0.015,-0.006,0.002,-0.005,-2.668,-179.374,-68.693
1747510095.25,0.044,-0.029,-0.002,0.023,0.030,-0.026,-2.671,-179.364,-68.682
1747510095.27,0.060,-0.013,0.017,0.033,-0.014,-0.053,-2.688,-179.380,-68.615
1747510095.29,0.045,-0.034,-0.019,0.016,-0.009,-0.051,-2.734,-179.362,-68.549
1747510095.31,0.036,-0.028,0.023,0.009,0.013,-0.081,-2.735,-179.373,-68.502
1747510095.33,0.052,-0.088,0.013,0.040,0.015,-0.401,-2.738,-179.378,-68.249
1747510095.35,0.017,0.030,-0.022,0.035,0.028,-0.185,-2.769,-179.352,-67.867
1747510095.37,0.029,0.007,-0.010,0.016,0.024,-0.050,-2.794,-179.323,-67.775
1747510095.39,0.016,-0.050,0.009,0.036,0.049,-0.324,-2.813,-179.286,-67.622
1747510095.41,-0.159,-0.046,-0.032,-0.019,-0.001,-1.092,-2.820,-179.202,-66.811
1747510095.43,0.084,-0.155,-0.067,-0.164,-0.071,-0.732,-2.608,-179.266,-65.610
1747510095.45,0.134,0.074,0.020,-0.010,0.017,-0.440,-2.549,-179.223,-64.930
1747510095.47,0.042,-0.081,-0.016,-0.035,-0.012,-0.511,-2.510,-179.202,-64.422
1747510095.49,-0.005,-0.119,-0.006,0.007,-0.054,-1.003,-2.467,-179.187,-63.606
1747510095.51,-0.061,-0.035,0.013,-0.002,-0.012,-1.215,-2.445,-179.158,-62.255
1747510095.53,0.132,0.093,-0.013,0.002,0.027,-0.595,-2.425,-179.101,-61.146
1747510095.55,0.125,0.096,-0.012,-0.012,0.014,-0.087,-2.414,-179.062,-60.862
1747510095.57,0.023,-0.051,0.006,-0.008,0.003,-0.162,-2.400,-179.047,-60.725
1747510095.59,0.063,0.070,-0.010,0.001,0.000,-0.003,-2.391,-179.045,-60.625
1747510095.61,0.042,-0.026,-0.005,0.001,-0.002,0.005,-2.392,-179.049,-60.628
1747510095.63,0.045,-0.015,-0.004,0.002,-0.013,0.007,-2.394,-179.057,-60.634
1747510095.65,0.043,-0.015,-0.011,0.001,-0.015,0.019,-2.395,-179.074,-60.647
1747510095.67,0.043,-0.019,-0.007,-0.027,-0.119,0.017,-2.384,-179.128,-60.680
1747510095.69,0.034,-0.018,-0.010,0.006,-0.001,0.011,-2.376,-179.175,-60.690
1747510095.71,0.038,-0.019,-0.009,0.006,0.003,0.013,-2.384,-179.181,-60.702
1747510095.73,0.052,0.002,-0.007,0.016,0.009,0.052,-2.393,-179.187,-60.736
1747510095.75,0.016,-0.031,-0.010,0.015,0.056,0.076,-2.389,-179.193,-60.783
1747510095.77,0.040,0.025,-0.011,-0.032,0.063,0.366,-2.368,-179.162,-60.986
1747510095.79,0.037,0.068,-0.013,0.002,0.024,0.539,-2.353,-179.153,-61.549
1747510095.81,0.014,-0.047,0.030,-0.056,0.379,0.513,-2.381,-179.044,-62.176
1747510095.83,0.065,-0.141,0.105,-0.025,0.801,0.611,-2.364,-178.215,-62.764
1747510095.85,0.088,-0.122,-0.055,0.020,0.567,0.800,-2.276,-177.534,-63.605
1747510095.87,0.011,-0.005,-0.106,0.016,0.131,0.540,-2.319,-177.241,-64.420
1747510095.89,0.010,0.078,0.001,-0.007,0.035,0.273,-2.337,-177.147,-64.847
1747510095.91,0.050,0.008,0.044,0.021,0.208,0.288,-2.363,-177.044,-65.166
1747510095.93,0.009,-0.024,-0.042,-0.032,0.099,0.305,-2.386,-176.859,-65.497
1747510095.95,0.055,0.011,0.119,0.071,0.492,0.540,-2.421,-176.664,-65.942
1747510095.97,0.038,0.117,-0.082,0.020,0.050,1.005,-2.490,-176.349,-66.826
1747510095.99,-0.038,0.011,-0.081,-0.054,-0.543,1.607,-2.544,-176.810,-68.278
1747510096.01,0.001,0.034,-0.070,-0.154,-0.930,1.973,-2.534,-177.729,-70.406
1747510096.03,-0.008,0.105,-0.313,0.660,-0.945,1.318,-2.441,-179.340,-72.376
1747510096.05,-0.220,-0.608,0.146,-0.189,-0.298,-0.262,-2.614,-179.625,-73.008
1747510096.07,0.089,0.009,0.039,-0.066,0.073,-0.487,-2.524,-179.559,-72.496
1747510096.09,0.102,-0.032,-0.007,0.020,-0.014,-0.404,-2.514,-179.550,-71.988
1747510096.11,0.208,0.183,0.004,0.212,0.066,-0.445,-2.561,-179.535,-71.344
1747510096.13,0.002,-0.109,-0.033,-0.014,-0.035,-0.002,-2.598,-179.536,-71.249
1747510096.15,-0.141,0.052,-0.019,-0.012,0.002,-0.325,-2.583,-179.549,-71.096
1747510096.17,-0.033,-0.024,-0.002,-0.030,0.007,-0.384,-2.541,-179.542,-70.643
1747510096.19,0.281,-0.091,-0.010,0.005,-0.077,0.029,-2.526,-179.562,-70.435
1747510096.21,-0.014,-0.027,0.055,-0.019,-0.895,-0.003,-2.517,-179.959,-70.460
1747510096.23,-0.071,-0.092,0.043,-0.031,-1.539,-0.892,-2.491,178.602,-70.109
1747510096.25,-0.190,-0.237,0.121,-0.215,-2.579,-1.596,-2.409,176.393,-68.537
1747510096.27,0.003,-0.003,0.093,-0.243,-3.606,-1.344,-2.303,172.870,-66.868
1747510096.29,-0.143,0.034,0.014,-0.396,-3.607,-1.607,-2.206,168.718,-65.166
1747510096.31,0.058,-0.011,-0.041,-0.536,-3.668,-1.596,-2.103,164.747,-63.186
1747510096.33,0.137,0.079,-0.021,-0.529,-4.299,-1.088,-1.983,160.206,-61.557
1747510096.35,-0.162,0.047,0.193,-1.013,-4.965,-2.047,-1.644,154.947,-59.722
1747510096.37,-0.055,-0.146,0.196,-1.686,-6.708,-2.409,-1.508,148.354,-56.661
1747510096.39,-0.196,-0.040,0.093,-2.422,-7.809,-2.901,-1.391,140.056,-52.903
1747510096.41,-0.024,-0.049,0.081,-3.431,-8.714,-2.906,-1.063,130.672,-48.218
1747510096.43,0.021,-0.113,-0.102,-4.253,-8.940,-2.231,-1.046,120.715,-42.687
1747510096.45,-0.090,0.282,-0.202,-4.042,-9.274,-1.358,-0.960,110.615,-37.473
1747510096.46,-0.042,0.324,-0.271,-3.409,-10.311,-0.516,-0.818,99.707,-33.056
1747510096.48,-0.177,0.214,-0.349,-2.565,-11.659,0.075,-0.826,87.200,-29.632
1747510096.50,0.200,0.003,-0.240,-1.325,-8.613,1.367,-0.412,74.776,-27.185
1747510096.52,0.013,0.058,0.159,0.443,-3.748,-0.029,0.280,68.161,-26.403
1747510096.54,-0.122,-0.036,0.145,1.634,-2.758,-1.281,0.089,64.294,-27.821
1747510096.56,0.247,-0.124,-0.054,2.131,-2.524,-0.932,-0.220,61.372,-30.402
1747510096.58,-0.058,-0.236,0.195,1.853,-3.110,-1.359,-0.125,58.304,-33.028
1747510096.60,-0.141,0.077,-0.015,1.550,-5.554,-1.420,-0.379,53.370,-35.542
1747510096.62,-0.028,0.000,0.116,1.418,-6.716,-1.571,-0.580,46.165,-37.947
1747510096.64,0.101,0.054,0.103,0.927,-6.197,-1.755,-0.877,38.842,-40.256
1747510096.66,0.275,-0.063,-0.035,0.947,-4.306,-1.413,-1.274,32.529,-42.399
1747510096.68,0.240,-0.008,0.133,0.606,-3.277,-1.510,-1.270,28.440,-44.256
1747510096.70,0.135,-0.035,0.071,0.615,-3.941,-1.376,-1.316,24.420,-46.037
1747510096.72,0.069,0.030,0.124,0.258,-4.248,-1.369,-1.436,19.141,-47.709
1747510096.74,0.152,0.001,-0.369,0.144,-0.107,-1.715,-1.791,16.659,-49.465
1747510096.76,-0.208,-0.010,-0.002,0.388,-0.272,-1.550,-2.061,16.624,-51.350
1747510096.78,0.025,0.062,-0.059,0.523,-0.031,-1.013,-1.955,16.415,-52.950
1747510096.80,0.026,0.009,0.005,0.549,-0.303,-0.740,-1.658,16.286,-54.040
1747510096.82,-0.136,0.029,0.115,0.776,-3.323,-0.574,-1.048,14.290,-54.926
1747510096.84,-0.105,-0.003,0.033,-0.427,-1.019,-0.894,-1.032,11.512,-55.820
1747510096.86,0.093,-0.009,-0.216,0.448,-0.692,-0.352,-1.245,10.721,-56.537
1747510096.88,-0.014,0.031,0.194,-0.227,-1.645,-0.517,-1.058,9.224,-57.014
1747510096.90,0.042,-0.037,-0.089,0.094,-1.864,-0.428,-1.330,7.143,-57.550
1747510096.92,0.006,-0.002,-0.011,0.076,-2.261,-0.521,-1.155,4.871,-58.077
1747510096.94,0.019,-0.015,0.209,-0.339,-4.921,-0.628,-1.418,1.054,-58.749
1747510096.96,0.813,0.208,-1.334,0.167,1.854,-0.239,-1.571,-1.439,-59.255
1747510096.98,-0.151,-0.116,-0.166,-0.404,0.298,-0.009,-1.568,-1.998,-59.446
1747510097.00,0.025,0.085,-0.383,-0.008,-0.261,0.019,-1.529,-1.929,-59.469
1747510097.02,0.021,0.019,-0.084,0.064,-0.078,0.014,-1.577,-1.809,-59.462
1747510097.04,0.013,-0.017,0.060,0.001,0.041,-0.003,-1.569,-1.802,-59.456
1747510097.06,0.025,0.001,-0.081,-0.000,0.003,0.006,-1.567,-1.802,-59.456
1747510097.08,0.032,-0.003,-0.025,-0.001,-0.017,0.002,-1.563,-1.789,-59.449
1747510097.10,0.006,-0.017,0.027,0.004,0.020,0.007,-1.563,-1.793,-59.442
1747510097.12,0.004,0.001,-0.072,-0.006,-0.009,-0.007,-1.561,-1.791,-59.439
1747510097.14,0.027,0.000,-0.018,0.001,-0.008,0.008,-1.562,-1.783,-59.436
1747510097.16,0.023,-0.020,0.014,0.000,-0.004,0.004,-1.561,-1.789,-59.431
1747510097.18,0.021,0.010,-0.075,0.001,0.004,0.009,-1.558,-1.784,-59.425
1747510097.20,0.007,-0.009,-0.008,-0.000,-0.016,0.007,-1.556,-1.772,-59.417
1747510097.22,0.008,-0.006,0.011,-0.011,-0.041,0.011,-1.556,-1.790,-59.411
1747510097.24,-0.019,0.051,-0.061,0.017,-0.064,0.327,-1.556,-1.818,-59.282
1747510097.26,-0.164,0.275,-0.005,0.014,0.012,1.166,-1.578,-1.765,-58.462
1747510097.28,-0.010,0.192,0.044,-0.007,0.014,1.732,-1.627,-1.641,-56.752
1747510097.30,0.017,0.052,-0.046,0.000,0.000,1.586,-1.682,-1.603,-54.780
1747510097.32,-0.135,0.181,0.005,-0.022,0.024,1.153,-1.745,-1.551,-53.246
1747510097.34,-0.203,0.192,-0.004,0.003,0.020,0.685,-1.782,-1.493,-52.210
1747510097.36,-0.203,-0.077,-0.037,-0.001,-0.028,0.149,-1.798,-1.481,-51.729
1747510097.38,-0.076,-0.168,-0.012,0.025,-0.168,0.320,-1.787,-1.548,-51.527
1747510097.40,0.162,-0.227,0.018,0.001,0.002,0.561,-1.785,-1.637,-51.023
1747510097.42,0.516,-0.027,-0.042,-0.001,-0.096,0.513,-1.809,-1.654,-50.326
1747510097.44,0.330,-0.621,0.005,-0.036,-0.077,-0.373,-1.819,-1.778,-50.417
1747510097.46,0.015,-0.175,-0.035,-0.026,0.012,-0.010,-1.826,-1.674,-50.669
1747510097.48,-0.008,0.011,-0.045,-0.004,-0.002,-0.047,-1.833,-1.664,-50.685
1747510097.50,-0.137,0.042,-0.024,-0.032,0.008,-0.570,-1.834,-1.759,-51.058
1747510097.52,0.017,0.001,-0.015,-0.019,0.072,-0.570,-1.827,-1.711,-51.824
1747510097.54,0.260,0.013,-0.035,0.053,0.097,-0.269,-1.833,-1.589,-52.166
1747510097.56,-0.102,0.227,-0.030,0.014,-0.029,-1.378,-1.794,-1.563,-53.042
1747510097.58,-0.050,0.042,-0.009,0.008,-0.008,-1.952,-1.736,-1.653,-55.114
1747510097.60,0.070,-0.209,-0.038,-0.006,-0.015,-1.259,-1.689,-1.737,-57.038
1747510097.62,-0.053,-0.233,-0.000,-0.017,0.067,-0.589,-1.670,-1.766,-57.962
1747510097.64,-0.122,-0.015,-0.005,-0.058,0.135,-0.868,-1.660,-1.733,-58.808
1747510097.66,-0.001,0.011,-0.044,-0.018,0.007,-0.935,-1.662,-1.710,-59.854
1747510097.68,0.038,0.002,-0.016,-0.012,0.021,-0.886,-1.641,-1.731,-60.913
1747510097.70,0.158,0.022,-0.011,-0.004,0.031,-0.637,-1.624,-1.732,-61.795
1747510097.72,0.109,0.015,-0.023,0.011,-0.003,-0.441,-1.600,-1.729,-62.401
1747510097.74,0.112,0.017,-0.015,0.010,-0.015,-0.233,-1.572,-1.755,-62.780
1747510097.76,0.048,0.004,-0.014,0.023,-0.050,-0.125,-1.547,-1.794,-62.993
1747510097.78,0.106,0.008,-0.034,0.053,-0.118,0.011,-1.510,-1.875,-63.022
1747510097.80,0.031,-0.004,0.010,0.025,-0.047,0.013,-1.454,-2.001,-63.004
1747510097.82,0.013,-0.001,-0.022,0.027,-0.042,0.011,-1.419,-2.063,-62.988
1747510097.84,0.004,-0.000,-0.016,-0.009,0.014,0.002,-1.405,-2.091,-62.981
1747510097.86,0.024,-0.005,-0.014,-0.015,0.027,0.000,-1.411,-2.072,-62.981
1747510097.88,0.032,-0.000,0.007,-0.008,0.015,0.005,-1.424,-2.044,-62.977
1747510097.90,0.011,-0.010,0.017,-0.052,0.136,-0.003,-1.456,-1.955,-62.977
1747510097.92,0.008,0.002,-0.014,-0.042,0.105,-0.003,-1.509,-1.820,-62.982
1747510097.94,0.020,-0.006,-0.026,-0.016,0.045,-0.000,-1.516,-1.782,-62.982
1747510097.96,0.030,0.000,-0.032,-0.001,0.015,0.002,-1.516,-1.763,-62.980
1747510097.98,0.027,-0.002,-0.017,0.004,0.016,0.006,-1.513,-1.736,-62.974
1747510098.00,0.010,-0.001,-0.016,0.005,-0.005,0.006,-1.510,-1.726,-62.967
1747510098.02,0.012,-0.001,-0.020,0.022,-0.048,0.003,-1.496,-1.749,-62.962
1747510098.04,0.027,-0.000,-0.018,0.023,-0.027,0.008,-1.459,-1.801,-62.952
1747510098.06,0.026,-0.004,0.001,-0.019,0.068,0.003,-1.480,-1.709,-62.947
1747510098.08,0.023,-0.001,-0.023,0.001,0.007,0.009,-1.487,-1.666,-62.940
1747510098.10,0.006,-0.001,-0.014,0.003,0.013,0.004,-1.482,-1.655,-62.935
1747510098.12,0.013,-0.003,-0.019,-0.004,0.005,0.002,-1.485,-1.633,-62.932
1747510098.14,0.031,0.001,-0.018,0.010,-0.033,0.005,-1.482,-1.633,-62.928
1747510098.16,0.025,-0.005,-0.014,-0.001,0.008,0.007,-1.483,-1.628,-62.922
1747510098.18,0.015,0.002,-0.016,-0.000,0.012,0.009,-1.481,-1.620,-62.914
1747510098.20,0.020,0.001,-0.016,-0.004,0.028,0.077,-1.475,-1.602,-62.892
1747510098.22,0.233,0.032,-0.018,0.006,-0.018,0.471,-1.491,-1.581,-62.522
1747510098.24,-0.032,-0.010,-0.017,-0.004,0.007,0.353,-1.508,-1.565,-62.024
1747510098.26,-0.139,-0.026,-0.012,-0.002,0.016,0.047,-1.514,-1.545,-61.808
1747510098.28,0.008,-0.004,-0.022,0.003,-0.002,0.001,-1.513,-1.536,-61.796
1747510098.30,0.016,0.001,-0.018,0.007,-0.024,0.004,-1.507,-1.550,-61.793
1747510098.32,0.023,-0.005,-0.014,0.002,-0.005,0.005,-1.503,-1.567,-61.787
1747510098.34,0.027,-0.000,-0.020,0.000,-0.011,0.010,-1.502,-1.579,-61.781
1747510098.36,0.010,-0.000,-0.017,0.002,-0.018,0.006,-1.497,-1.597,-61.773
1747510098.38,0.008,-0.003,-0.013,0.002,-0.027,0.004,-1.495,-1.621,-61.768
1747510098.40,0.030,-0.001,-0.019,0.011,-0.034,0.009,-1.487,-1.653,-61.761
1747510098.42,0.022,-0.006,0.001,0.017,-0.037,0.010,-1.481,-1.668,-61.751
1747510098.44,0.009,-0.002,0.007,0.011,-0.013,0.006,-1.468,-1.687,-61.742
1747510098.46,0.008,-0.004,-0.005,-0.012,0.039,-0.000,-1.473,-1.657,-61.737
1747510098.48,0.017,-0.002,-0.025,0.003,-0.015,0.004,-1.474,-1.641,-61.735
1747510098.50,0.029,-0.004,-0.015,0.002,0.001,0.006,-1.471,-1.638,-61.729
1747510098.52,0.017,-0.002,-0.016,-0.001,0.000,0.009,-1.468,-1.631,-61.721
1747510098.54,0.006,-0.003,-0.016,-0.001,0.001,0.001,-1.465,-1.626,-61.715
1747510098.56,0.020,-0.000,-0.019,0.002,-0.002,0.005,-1.464,-1.618,-61.712
1747510098.58,0.029,-0.002,-0.037,-0.001,-0.016,0.000,-1.459,-1.618,-61.709
1747510098.60,0.006,-0.003,0.018,0.009,-0.015,0.004,-1.454,-1.624,-61.705
1747510098.62,0.053,-0.003,-0.028,0.008,0.005,0.009,-1.447,-1.625,-61.697
1747510098.64,-0.015,-0.003,-0.034,0.010,-0.027,0.009,-1.433,-1.637,-61.686
1747510098.66,-0.015,0.005,0.011,0.000,0.011,-0.000,-1.425,-1.636,-61.683
1747510098.68,0.058,-0.008,-0.028,0.001,0.019,-0.000,-1.424,-1.617,-61.684
1747510098.70,0.029,-0.006,-0.026,-0.001,0.007,0.010,-1.424,-1.588,-61.679
1747510098.72,0.020,0.001,0.012,0.003,0.012,0.012,-1.436,-1.556,-61.667
1747510098.74,0.002,-0.005,-0.028,0.006,0.004,0.006,-1.431,-1.561,-61.656
1747510098.76,-0.015,-0.005,-0.022,0.006,0.000,0.003,-1.432,-1.538,-61.650
1747510098.78,0.059,0.005,-0.010,0.002,0.010,0.009,-1.425,-1.523,-61.644
1747510098.80,0.025,-0.017,-0.024,0.003,0.007,0.011,-1.423,-1.505,-61.629
1747510098.82,-0.013,-0.005,-0.007,0.005,0.002,0.007,-1.421,-1.499,-61.618
1747510098.84,0.043,0.001,-0.018,0.006,0.001,0.013,-1.413,-1.500,-61.608
1747510098.86,0.006,-0.014,-0.009,0.006,0.002,0.011,-1.407,-1.481,-61.595
1747510098.88,-0.013,-0.004,-0.012,0.012,-0.007,0.006,-1.396,-1.474,-61.585
1747510098.90,0.017,-0.012,-0.026,0.028,-0.038,0.003,-1.368,-1.502,-61.581
1747510098.92,0.046,-0.017,-0.008,0.031,-0.027,0.015,-1.334,-1.529,-61.571
1747510098.94,0.047,-0.008,-0.009,0.033,-0.010,0.016,-1.294,-1.552,-61.549
1747510098.96,-0.026,-0.015,-0.010,0.039,-0.020,0.006,-1.264,-1.543,-61.535
1747510098.98,-0.041,-0.005,0.005,0.035,-0.009,-0.006,-1.217,-1.565,-61.532
1747510099.00,0.029,-0.015,-0.015,0.046,-0.013,-0.006,-1.166,-1.570,-61.538
1747510099.02,0.066,-0.016,-0.027,0.050,-0.005,0.010,-1.109,-1.569,-61.533
1747510099.04,0.017,-0.002,-0.006,0.052,0.011,0.009,-1.053,-1.564,-61.522
1747510099.06,-0.045,-0.009,0.000,0.037,0.039,-0.012,-1.002,-1.551,-61.523
1747510099.08,0.003,-0.006,-0.022,0.040,0.044,-0.009,-0.966,-1.483,-61.536
1747510099.10,0.071,-0.002,-0.013,0.056,0.038,0.003,-0.908,-1.427,-61.539
1747510099.12,0.031,-0.006,-0.024,0.060,0.017,0.009,-0.843,-1.390,-61.529
1747510099.14,-0.019,-0.004,-0.028,0.058,-0.017,-0.002,-0.775,-1.397,-61.521
1747510099.16,-0.017,0.019,-0.013,0.056,-0.023,-0.009,-0.710,-1.421,-61.527
1747510099.18,0.029,-0.008,-0.025,0.054,-0.017,-0.007,-0.648,-1.434,-61.536
1747510099.20,0.049,0.021,-0.011,0.043,0.007,-0.000,-0.594,-1.432,-61.538
1747510099.22,-0.003,0.005,-0.025,0.041,0.003,-0.001,-0.545,-1.423,-61.535
1747510099.24,-0.005,0.015,-0.026,0.033,-0.014,-0.004,-0.506,-1.438,-61.538
1747510099.26,0.044,0.018,-0.035,0.033,-0.008,0.005,-0.467,-1.449,-61.539
1747510099.28,0.038,0.030,0.059,0.024,0.003,0.001,-0.444,-1.466,-61.534
1747510099.30,0.010,0.012,-0.082,0.008,0.005,0.003,-0.428,-1.479,-61.530
1747510099.32,0.010,0.046,0.017,0.000,0.010,0.002,-0.426,-1.504,-61.528
1747510099.34,0.016,0.015,0.000,-0.021,0.029,0.004,-0.445,-1.481,-61.527
1747510099.36,0.008,0.036,-0.064,-0.034,0.025,-0.001,-0.481,-1.435,-61.524
1747510099.38,0.019,0.012,-0.010,-0.039,-0.007,0.005,-0.520,-1.423,-61.521
1747510099.40,0.035,0.020,-0.027,-0.035,-0.046,0.005,-0.566,-1.454,-61.518
1747510099.41,0.003,0.026,-0.021,-0.046,-0.023,0.006,-0.614,-1.493,-61.513
1747510099.43,-0.002,0.008,-0.015,-0.062,-0.015,0.000,-0.682,-1.512,-61.512
1747510099.45,0.031,0.019,-0.047,-0.074,-0.006,0.005,-0.761,-1.521,-61.510
1747510099.47,0.025,0.024,-0.011,-0.079,0.009,0.010,-0.853,-1.508,-61.502
1747510099.49,0.012,0.001,-0.019,-0.091,0.017,0.006,-0.951,-1.499,-61.495
1747510099.51,0.008,0.024,-0.052,-0.103,0.006,0.006,-1.068,-1.472,-61.493
1747510099.53,0.022,0.009,-0.023,-0.104,-0.007,0.011,-1.188,-1.469,-61.488
1747510099.55,0.026,0.007,-0.031,-0.111,-0.010,0.009,-1.316,-1.468,-61.480
1747510099.57,0.000,0.011,-0.031,-0.119,0.001,0.010,-1.446,-1.469,-61.472
1747510099.59,-0.003,0.002,-0.018,-0.122,-0.008,0.004,-1.584,-1.469,-61.469
1747510099.61,0.024,0.004,-0.027,-0.128,-0.002,0.007,-1.727,-1.475,-61.466
1747510099.63,0.029,-0.003,-0.022,-0.136,0.008,0.012,-1.881,-1.467,-61.461
1747510099.65,0.009,0.002,-0.020,-0.137,-0.003,0.012,-2.040,-1.460,-61.453
1747510099.67,0.000,0.003,-0.026,-0.141,0.004,0.005,-2.198,-1.460,-61.448
1747510099.69,-0.010,-0.003,-0.020,-0.149,0.013,0.002,-2.360,-1.448,-61.450
1747510099.71,0.030,-0.004,-0.028,-0.153,0.011,0.001,-2.530,-1.428,-61.454
1747510099.73,0.050,-0.006,-0.031,-0.152,-0.005,0.011,-2.701,-1.425,-61.450
1747510099.75,-0.005,-0.002,-0.017,-0.159,-0.008,0.007,-2.877,-1.435,-61.443
1747510099.77,-0.008,-0.003,-0.026,-0.167,-0.004,0.003,-3.061,-1.445,-61.443
1747510099.79,0.020,-0.009,-0.025,-0.169,0.011,0.000,-3.247,-1.439,-61.445
1747510099.81,0.025,-0.004,-0.019,-0.173,0.021,0.006,-3.436,-1.412,-61.443
1747510099.83,0.027,-0.013,-0.028,-0.173,0.006,0.014,-3.630,-1.396,-61.438
1747510099.85,0.013,-0.008,-0.026,-0.176,0.002,0.010,-3.826,-1.395,-61.429
1747510099.87,-0.010,-0.004,-0.025,-0.177,-0.007,0.006,-4.027,-1.394,-61.425
1747510099.89,0.010,-0.011,-0.031,-0.181,-0.017,0.005,-4.228,-1.404,-61.424
1747510099.91,0.026,-0.005,-0.022,-0.186,0.005,0.007,-4.431,-1.416,-61.422
1747510099.93,-0.002,-0.011,-0.027,-0.189,-0.012,0.004,-4.642,-1.419,-61.421
1747510099.95,0.006,-0.017,-0.025,-0.188,-0.006,0.001,-4.855,-1.433,-61.426
1747510099.97,0.037,-0.013,-0.023,-0.194,0.012,0.007,-5.068,-1.425,-61.426
1747510099.99,0.023,-0.012,-0.023,-0.191,0.008,0.010,-5.283,-1.406,-61.421
1747510100.01,-0.006,-0.014,-0.023,-0.195,-0.006,0.006,-5.498,-1.401,-61.419
1747510100.03,0.003,-0.020,-0.030,-0.197,-0.015,0.004,-5.715,-1.417,-61.421
1747510100.05,0.043,-0.019,-0.020,-0.197,-0.003,0.009,-5.934,-1.429,-61.418
1747510100.07,0.023,-0.007,-0.016,-0.196,0.018,0.010,-6.153,-1.413,-61.410
1747510100.09,-0.022,-0.023,-0.032,-0.196,0.011,0.005,-6.369,-1.392,-61.406
1747510100.11,0.026,-0.023,-0.025,-0.148,0.011,0.013,-6.575,-1.385,-61.404
1747510100.13,0.023,-0.002,-0.008,-0.192,-0.000,0.018,-6.764,-1.362,-61.360
1747510100.15,0.026,-0.025,-0.020,-0.192,-0.002,0.019,-6.980,-1.351,-61.343
1747510100.17,0.001,-0.029,-0.025,-0.202,-0.009,0.017,-7.196,-1.357,-61.328
1747510100.19,0.025,-0.013,-0.029,-0.190,0.007,0.025,-7.408,-1.347,-61.309
1747510100.21,0.044,-0.008,0.030,-0.197,0.056,0.035,-7.617,-1.318,-61.275
1747510100.23,-0.046,-0.030,-0.075,-0.185,0.022,0.015,-7.817,-1.282,-61.251
1747510100.25,-0.046,0.005,0.015,-0.179,0.012,0.004,-8.019,-1.270,-61.247
1747510100.27,0.049,-0.038,-0.056,-0.164,0.051,0.027,-8.210,-1.252,-61.240
1747510100.29,0.194,-0.024,-0.007,-0.155,0.056,0.219,-8.385,-1.150,-61.065
1747510100.31,-0.106,0.010,-0.040,-0.178,-0.019,0.026,-8.582,-1.133,-60.968
1747510100.33,-0.092,-0.013,-0.008,-0.174,-0.031,0.003,-8.785,-1.179,-60.957
1747510100.35,-0.000,-0.017,-0.012,-0.172,-0.031,-0.001,-8.983,-1.223,-60.963
1747510100.37,0.095,-0.020,-0.034,-0.164,0.005,0.017,-9.176,-1.234,-60.959
1747510100.39,0.063,-0.010,-0.033,-0.165,0.028,0.029,-9.363,-1.209,-60.933
1747510100.41,-0.059,-0.019,-0.008,-0.169,0.036,0.014,-9.550,-1.168,-60.911
1747510100.43,-0.063,-0.008,-0.024,-0.165,0.012,-0.004,-9.740,-1.141,-60.910
1747510100.45,0.020,-0.016,-0.039,-0.166,-0.018,-0.002,-9.929,-1.142,-60.921
1747510100.47,0.110,-0.025,-0.043,-0.164,-0.016,0.019,-10.121,-1.164,-60.916
1747510100.49,0.042,-0.023,-0.019,-0.168,0.011,0.028,-10.310,-1.167,-60.893
1747510100.51,-0.084,-0.011,-0.024,-0.169,-0.012,0.005,-10.501,-1.167,-60.876
1747510100.53,-0.059,-0.014,-0.038,-0.176,-0.025,-0.012,-10.697,-1.188,-60.887
1747510100.55,0.079,-0.027,-0.027,-0.177,0.017,0.005,-10.897,-1.192,-60.899
1747510100.57,0.106,-0.031,-0.032,-0.174,0.048,0.026,-11.097,-1.149,-60.885
1747510100.59,-0.022,-0.023,-0.047,-0.176,0.023,0.019,-11.298,-1.101,-60.861
1747510100.61,-0.092,-0.020,-0.041,-0.181,-0.017,-0.007,-11.500,-1.103,-60.859
1747510100.63,0.007,-0.030,-0.032,-0.184,-0.010,-0.010,-11.707,-1.126,-60.875
1747510100.65,0.108,-0.037,-0.041,-0.177,0.021,0.021,-11.912,-1.117,-60.873
1747510100.67,0.161,-0.133,-0.062,-0.180,0.012,0.414,-12.110,-1.039,-60.697
1747510100.69,-0.141,-0.005,-0.032,-0.185,0.009,0.322,-12.328,-0.916,-60.170
1747510100.71,-0.114,0.082,-0.041,-0.188,-0.014,-0.009,-12.541,-0.898,-60.055
1747510100.73,0.046,-0.049,-0.049,-0.188,-0.023,-0.002,-12.755,-0.922,-60.068
1747510100.75,0.097,-0.049,-0.056,-0.184,0.013,0.017,-12.967,-0.924,-60.062
1747510100.77,0.011,-0.046,-0.045,-0.188,0.022,0.020,-13.176,-0.895,-60.041
1747510100.79,-0.065,-0.049,-0.046,-0.185,0.004,0.002,-13.389,-0.880,-60.031
1747510100.81,-0.021,-0.051,-0.054,-0.187,-0.025,-0.006,-13.600,-0.891,-60.039
1747510100.83,0.062,-0.056,-0.050,-0.180,-0.005,0.005,-13.806,-0.907,-60.046
1747510100.85,0.052,-0.065,-0.064,-0.174,0.006,0.013,-14.004,-0.902,-60.037
1747510100.87,-0.020,-0.063,-0.061,-0.170,-0.008,0.009,-14.196,-0.900,-60.026
1747510100.89,-0.033,-0.062,-0.044,-0.163,-0.002,-0.001,-14.381,-0.907,-60.028
1747510100.91,0.019,-0.062,-0.049,-0.158,-0.002,-0.002,-14.557,-0.911,-60.036
1747510100.93,0.042,-0.078,-0.072,-0.148,-0.005,0.007,-14.728,-0.911,-60.035
1747510100.95,0.018,-0.076,-0.059,-0.139,-0.002,0.008,-14.889,-0.910,-60.028
1747510100.97,-0.010,-0.064,-0.051,-0.131,0.003,0.003,-15.039,-0.908,-60.024
1747510100.99,-0.003,-0.040,-0.018,-0.114,-0.004,-0.001,-15.172,-0.915,-60.025
1747510101.01,0.004,-0.086,-0.073,-0.102,-0.007,0.001,-15.287,-0.917,-60.027
1747510101.03,0.018,-0.091,-0.063,-0.087,0.005,0.003,-15.387,-0.919,-60.026
1747510101.05,0.041,-0.069,-0.052,-0.069,0.015,0.010,-15.469,-0.906,-60.019
1747510101.07,-0.004,-0.079,-0.041,-0.055,0.012,0.006,-15.535,-0.889,-60.009
1747510101.09,-0.016,-0.079,-0.054,-0.040,0.002,-0.000,-15.577,-0.876,-60.006
1747510101.11,0.005,-0.079,-0.050,-0.017,-0.007,0.000,-15.596,-0.876,-60.007
1747510101.13,0.027,-0.064,-0.025,-0.001,0.010,0.003,-15.596,-0.868,-60.004
1747510101.15,0.024,-0.084,-0.055,0.025,0.016,0.009,-15.573,-0.851,-59.995
1747510101.17,-0.092,0.081,-0.046,0.019,0.047,0.144,-15.532,-0.809,-59.902
1747510101.19,0.043,-0.123,-0.013,0.069,-0.002,-0.003,-15.465,-0.773,-59.881
1747510101.21,0.011,-0.060,-0.020,0.086,0.024,0.003,-15.374,-0.755,-59.879
1747510101.23,0.012,-0.062,-0.034,0.112,-0.001,0.000,-15.254,-0.747,-59.877
1747510101.25,0.022,-0.072,-0.040,0.137,0.008,0.004,-15.110,-0.746,-59.872
1747510101.27,0.018,-0.049,-0.014,0.164,0.003,0.005,-14.929,-0.731,-59.862
1747510101.29,-0.007,-0.037,-0.008,0.185,0.009,0.003,-14.730,-0.720,-59.854
1747510101.31,-0.017,-0.051,-0.019,0.209,-0.016,-0.005,-14.503,-0.720,-59.853
1747510101.33,0.028,-0.032,-0.002,0.234,-0.012,-0.001,-14.245,-0.737,-59.853
1747510101.35,0.042,-0.025,0.003,0.251,-0.002,0.006,-13.945,-0.731,-59.843
1747510101.37,-0.009,-0.029,0.007,0.279,0.001,0.002,-13.632,-0.727,-59.834
1747510101.39,-0.016,-0.022,0.016,0.297,0.002,-0.001,-13.289,-0.733,-59.831
1747510101.41,0.027,-0.007,0.023,0.322,-0.008,-0.000,-12.932,-0.717,-59.826
1747510101.43,0.023,-0.003,0.028,0.340,0.004,0.003,-12.557,-0.693,-59.814
1747510101.45,-0.000,-0.004,0.031,0.357,0.002,-0.001,-12.159,-0.686,-59.806
1747510101.47,0.000,0.004,0.033,0.377,-0.009,0.000,-11.740,-0.693,-59.802
1747510101.49,0.022,0.012,0.042,0.393,0.007,0.003,-11.301,-0.694,-59.798
1747510101.51,0.027,0.026,0.047,0.407,0.011,0.006,-10.843,-0.681,-59.788
1747510101.53,-0.010,0.024,0.055,0.424,0.005,-0.002,-10.368,-0.670,-59.780
1747510101.55,-0.003,0.040,0.060,0.434,-0.003,-0.004,-9.877,-0.668,-59.777
1747510101.57,0.023,0.045,0.060,0.448,-0.003,0.002,-9.372,-0.669,-59.774
1747510101.59,0.022,0.035,0.052,0.466,-0.013,0.003,-8.850,-0.676,-59.766
1747510101.61,0.010,0.074,0.079,0.472,-0.014,0.001,-8.316,-0.691,-59.757
1747510101.63,0.009,0.064,0.067,0.483,-0.019,-0.003,-7.771,-0.707,-59.750
1747510101.65,0.006,0.072,0.074,0.491,-0.005,-0.002,-7.215,-0.719,-59.744
1747510101.67,0.014,0.083,0.073,0.497,-0.005,0.001,-6.650,-0.723,-59.738
1747510101.69,0.016,0.087,0.062,0.507,-0.027,0.001,-6.079,-0.714,-59.729
1747510101.71,0.016,0.102,0.074,0.511,-0.016,0.003,-5.500,-0.720,-59.721
1747510101.73,0.013,0.096,0.069,0.507,0.005,0.002,-4.916,-0.730,-59.713
1747510101.75,0.008,0.122,0.074,0.511,0.019,-0.001,-4.333,-0.713,-59.705
1747510101.77,0.018,0.104,0.057,0.520,0.002,-0.001,-3.744,-0.703,-59.699
1747510101.79,0.016,0.140,0.062,0.518,-0.012,0.002,-3.150,-0.711,-59.691
1747510101.81,0.004,0.118,0.054,0.520,-0.020,-0.003,-2.557,-0.730,-59.684
1747510101.83,0.022,0.138,0.048,0.521,-0.030,0.000,-1.962,-0.760,-59.677
1747510101.85,0.015,0.131,0.050,0.521,-0.018,-0.001,-1.367,-0.790,-59.668
1747510101.87,0.012,0.140,0.045,0.519,-0.007,0.002,-0.773,-0.802,-59.659
1747510101.89,0.014,0.141,0.044,0.516,0.000,0.002,-0.182,-0.803,-59.648
1747510101.91,-0.003,0.141,0.045,0.520,-0.001,-0.002,0.408,-0.798,-59.641
1747510101.93,0.015,0.138,0.017,0.509,0.000,-0.002,0.991,-0.798,-59.633
1747510101.95,0.036,0.143,0.014,0.508,-0.028,0.003,1.573,-0.811,-59.625
1747510101.97,0.001,0.146,0.030,0.504,-0.025,0.001,2.148,-0.842,-59.613
1747510101.99,0.009,0.147,0.019,0.494,-0.018,-0.003,2.719,-0.872,-59.606
1747510102.01,0.030,0.139,0.013,0.490,-0.027,0.003,3.282,-0.902,-59.597
1747510102.03,-0.007,0.145,0.018,0.477,0.003,0.000,3.834,-0.915,-59.587
1747510102.05,0.011,0.147,0.016,0.470,0.010,0.002,4.375,-0.912,-59.579
1747510102.07,0.033,0.133,-0.000,0.459,-0.005,0.001,4.905,-0.911,-59.570
1747510102.09,0.007,0.143,0.004,0.446,-0.004,-0.000,5.422,-0.918,-59.560
1747510102.11,0.007,0.142,0.006,0.440,-0.011,0.001,5.930,-0.928,-59.550
1747510102.13,0.022,0.133,-0.004,0.428,-0.018,0.002,6.426,-0.948,-59.540
1747510102.15,0.017,0.128,-0.001,0.411,-0.025,0.004,6.905,-0.975,-59.529
1747510102.17,-0.002,0.132,-0.002,0.396,-0.009,-0.000,7.366,-0.998,-59.519
1747510102.19,0.011,0.126,-0.006,0.382,-0.002,0.001,7.808,-0.999,-59.513
1747510102.21,0.032,0.127,-0.006,0.365,-0.017,0.005,8.234,-1.012,-59.503
1747510102.23,0.007,0.111,-0.016,0.346,-0.017,0.004,8.640,-1.035,-59.492
1747510102.25,0.005,0.119,-0.011,0.326,-0.015,0.003,9.023,-1.055,-59.483
1747510102.27,0.020,0.114,-0.011,0.308,-0.013,0.001,9.387,-1.070,-59.476
1747510102.29,0.013,0.108,-0.020,0.285,-0.019,0.001,9.726,-1.083,-59.468
1747510102.31,0.010,0.099,-0.023,0.267,-0.013,0.003,10.043,-1.104,-59.461
1747510102.33,0.015,0.106,-0.013,0.246,-0.004,0.004,10.334,-1.116,-59.453
1747510102.35,0.009,0.095,-0.027,0.224,-0.022,0.001,10.600,-1.129,-59.445
1747510102.37,0.008,0.084,-0.028,0.202,-0.022,0.001,10.843,-1.156,-59.439
1747510102.39,0.017,0.093,-0.033,0.176,-0.010,-0.001,11.058,-1.175,-59.434
1747510102.41,0.015,0.085,-0.033,0.151,-0.010,0.002,11.191,-1.184,-59.429
1747510102.43,0.011,0.071,-0.034,0.126,-0.003,0.002,11.300,-1.186,-59.423
1747510102.45,0.015,0.072,-0.036,0.100,0.001,0.002,11.395,-1.186,-59.419
1747510102.46,0.003,0.067,-0.036,0.075,0.009,0.002,11.466,-1.179,-59.415
1747510102.48,0.006,0.057,-0.048,0.048,0.003,0.003,11.513,-1.166,-59.414
1747510102.50,0.021,0.050,-0.047,0.025,-0.008,0.002,11.541,-1.170,-59.410
1747510102.52,0.010,-0.010,-0.072,-0.002,-0.017,0.005,11.543,-1.185,-59.406
1747510102.54,0.017,0.050,-0.049,-0.024,-0.025,0.005,11.521,-1.207,-59.402
1747510102.56,0.010,0.035,-0.057,-0.044,-0.037,0.003,11.478,-1.249,-59.397
1747510102.58,-0.014,0.032,-0.053,-0.083,0.001,0.002,11.408,-1.291,-59.395
1747510102.60,0.022,0.005,-0.054,-0.098,-0.020,0.007,11.309,-1.322,-59.393
1747510102.62,0.025,0.006,-0.061,-0.126,-0.006,0.007,11.174,-1.327,-59.389
1747510102.64,-0.003,0.026,-0.066,-0.151,-0.011,0.003,11.015,-1.336,-59.385
1747510102.66,0.006,-0.004,-0.071,-0.171,-0.026,0.004,10.827,-1.350,-59.385
1747510102.68,0.016,0.003,-0.072,-0.190,-0.046,0.008,10.623,-1.400,-59.383
1747510102.70,0.007,-0.008,-0.086,-0.203,-0.129,0.007,10.395,-1.480,-59.382
1747510102.72,0.005,-0.014,-0.054,-0.251,-0.004,0.009,10.134,-1.547,-59.381
1747510102.74,0.019,-0.022,-0.062,-0.276,-0.001,0.012,9.834,-1.555,-59.379
1747510102.76,0.019,-0.026,-0.114,-0.295,0.007,0.012,9.508,-1.545,-59.377
1747510102.78,-0.009,-0.017,-0.040,-0.311,-0.007,0.008,9.154,-1.529,-59.374
1747510102.80,-0.002,-0.055,-0.067,-0.336,0.002,0.009,8.784,-1.527,-59.377
1747510102.82,0.013,-0.049,-0.106,-0.360,0.006,0.008,8.386,-1.515,-59.380
1747510102.84,0.019,-0.027,-0.085,-0.388,0.036,0.009,7.965,-1.497,-59.381
1747510102.86,0.016,-0.063,-0.082,-0.408,0.027,0.005,7.512,-1.461,-59.381
1747510102.88,0.007,-0.064,-0.079,-0.421,0.003,0.015,7.038,-1.440,-59.380
1747510102.90,-0.000,-0.066,-0.065,-0.433,-0.018,0.010,6.553,-1.459,-59.379
1747510102.92,-0.001,-0.074,-0.080,-0.445,-0.017,0.012,6.042,-1.457,-59.379
1747510102.94,0.007,-0.073,-0.082,-0.472,-0.009,0.013,5.515,-1.460,-59.378
1747510102.96,0.013,-0.093,-0.084,-0.487,-0.004,0.016,4.969,-1.465,-59.377
1747510102.98,0.005,-0.078,-0.072,-0.508,0.016,0.013,4.403,-1.464,-59.375
1747510103.00,0.011,-0.090,-0.093,-0.514,0.005,0.013,3.822,-1.459,-59.374
1747510103.02,0.012,-0.109,-0.069,-0.523,0.010,0.018,3.228,-1.448,-59.372
1747510103.04,0.002,-0.096,-0.064,-0.534,0.012,0.014,2.623,-1.437,-59.369
1747510103.06,0.000,-0.105,-0.091,-0.545,0.010,0.012,2.007,-1.425,-59.368
1747510103.08,-0.004,-0.100,-0.075,-0.543,-0.023,0.009,1.384,-1.427,-59.369
1747510103.10,0.010,-0.119,-0.074,-0.550,-0.023,0.016,0.760,-1.458,-59.371
1747510103.12,0.024,-0.108,-0.075,-0.553,-0.022,0.018,0.129,-1.483,-59.369
1747510103.14,0.009,-0.114,-0.053,-0.556,-0.007,0.019,-0.508,-1.482,-59.365
1747510103.16,-0.011,-0.115,-0.067,-0.569,0.006,0.014,-1.150,-1.479,-59.361
1747510103.18,0.002,-0.115,-0.077,-0.570,0.012,0.015,-1.801,-1.461,-59.362
1747510103.20,0.016,-0.114,-0.066,-0.570,0.014,0.015,-2.450,-1.446,-59.362
1747510103.22,0.014,-0.122,-0.069,-0.564,0.013,0.016,-3.096,-1.430,-59.360
1747510103.24,0.009,-0.111,-0.060,-0.557,0.016,0.018,-3.736,-1.418,-59.355
1747510103.26,-0.006,-0.117,-0.062,-0.554,0.015,0.012,-4.371,-1.401,-59.352
1747510103.28,-0.002,-0.114,-0.059,-0.549,0.006,0.014,-4.999,-1.392,-59.352
1747510103.30,0.012,-0.115,-0.060,-0.538,-0.000,0.014,-5.619,-1.386,-59.351
1747510103.32,0.016,-0.120,-0.044,-0.524,-0.008,0.018,-6.232,-1.365,-59.347
1747510103.34,0.017,-0.114,-0.054,-0.523,0.019,0.022,-6.831,-1.359,-59.338
1747510103.36,0.002,-0.114,-0.054,-0.519,0.052,0.020,-7.426,-1.322,-59.328
1747510103.38,-0.005,-0.112,-0.045,-0.512,0.089,0.017,-8.017,-1.238,-59.319
1747510103.40,0.006,-0.114,-0.046,-0.511,0.136,0.015,-8.602,-1.098,-59.312
1747510103.42,0.027,-0.110,-0.083,-0.476,0.029,0.023,-9.164,-1.002,-59.301
1747510103.44,0.020,-0.109,-0.063,-0.450,-0.032,0.026,-9.696,-1.002,-59.284
1747510103.46,-0.027,-0.105,-0.044,-0.444,-0.033,0.017,-10.200,-1.046,-59.268
1747510103.48,-0.030,-0.110,-0.068,-0.435,-0.000,0.009,-10.696,-1.074,-59.263
1747510103.50,0.019,-0.112,-0.043,-0.424,0.027,0.007,-11.186,-1.060,-59.266
1747510103.52,0.032,-0.115,-0.055,-0.410,0.049,0.016,-11.663,-1.019,-59.262
1747510103.54,0.014,-0.119,-0.064,-0.398,0.068,0.016,-12.124,-0.947,-59.250
1747510103.56,-0.011,-0.115,-0.061,-0.376,0.043,0.010,-12.564,-0.881,-59.241
1747510103.58,-0.022,-0.111,-0.060,-0.347,0.008,0.005,-12.978,-0.848,-59.240
1747510103.60,0.004,-0.116,-0.061,-0.330,-0.006,0.003,-13.364,-0.840,-59.241
1747510103.62,0.032,-0.125,-0.070,-0.312,-0.014,0.008,-13.730,-0.850,-59.242
1747510103.64,0.026,-0.119,-0.062,-0.269,-0.048,0.011,-14.063,-0.883,-59.234
1747510103.66,-0.009,-0.117,-0.050,-0.248,-0.051,0.011,-14.359,-0.940,-59.223
1747510103.68,-0.028,-0.120,-0.049,-0.235,-0.018,0.002,-14.633,-0.983,-59.219
1747510103.70,0.005,-0.121,-0.058,-0.216,0.018,-0.000,-14.890,-0.987,-59.224
1747510103.72,0.035,-0.117,-0.052,-0.194,0.046,0.005,-15.125,-0.952,-59.225
1747510103.74,0.025,-0.117,-0.047,-0.163,0.051,0.010,-15.329,-0.891,-59.217
1747510103.76,-0.010,-0.118,-0.052,-0.127,0.056,0.008,-15.480,-0.836,-59.210
1747510103.78,-0.019,-0.102,-0.035,-0.097,0.022,0.000,-15.590,-0.801,-59.206
1747510103.80,0.003,-0.097,-0.034,-0.062,0.018,0.000,-15.657,-0.775,-59.206
1747510103.82,0.016,-0.106,-0.050,-0.026,0.007,0.004,-15.682,-0.753,-59.203
1747510103.84,0.023,-0.102,-0.043,0.012,0.010,0.005,-15.667,-0.740,-59.199
1747510103.86,0.009,-0.084,-0.022,0.044,0.012,0.004,-15.610,-0.731,-59.192
1747510103.88,-0.012,-0.073,-0.012,0.080,0.000,0.001,-15.511,-0.728,-59.187
1747510103.90,-0.003,-0.077,-0.018,0.113,-0.002,-0.003,-15.363,-0.724,-59.186
1747510103.92,0.028,-0.068,-0.016,0.153,-0.009,0.005,-15.162,-0.703,-59.179
1747510103.94,0.020,-0.051,0.004,0.181,0.019,0.006,-14.930,-0.681,-59.168
1747510103.96,-0.004,-0.045,-0.002,0.216,0.008,0.004,-14.669,-0.669,-59.162
1747510103.98,0.001,-0.025,0.027,0.247,0.009,0.000,-14.373,-0.661,-59.156
1747510104.00,0.005,-0.020,0.022,0.280,0.012,-0.001,-14.042,-0.642,-59.150
1747510104.02,0.008,-0.011,0.031,0.307,0.006,0.000,-13.696,-0.622,-59.144
1747510104.04,0.015,-0.015,0.027,0.332,0.011,0.001,-13.324,-0.612,-59.140
1747510104.06,0.016,-0.004,0.038,0.360,0.018,0.004,-12.927,-0.596,-59.132
1747510104.08,0.008,0.017,0.050,0.384,0.010,0.002,-12.502,-0.576,-59.123
1747510104.10,-0.004,0.028,0.060,0.403,-0.007,-0.002,-12.057,-0.558,-59.119
1747510104.12,0.004,0.030,0.066,0.427,0.003,-0.003,-11.582,-0.559,-59.116
1747510104.14,0.014,0.032,0.063,0.447,-0.016,0.001,-11.087,-0.567,-59.107
1747510104.16,0.018,0.044,0.068,0.463,-0.003,0.002,-10.567,-0.569,-59.100
1747510104.18,0.012,0.055,0.078,0.475,0.000,0.002,-10.031,-0.569,-59.093
1747510104.20,0.003,0.062,0.085,0.492,0.000,0.000,-9.476,-0.569,-59.086
1747510104.22,0.009,0.066,0.079,0.503,-0.006,-0.003,-8.907,-0.569,-59.081
1747510104.24,0.017,0.082,0.082,0.514,-0.010,0.001,-8.326,-0.579,-59.075
1747510104.26,0.009,0.092,0.088,0.524,-0.008,-0.001,-7.732,-0.590,-59.068
1747510104.28,0.008,0.098,0.092,0.531,-0.005,0.000,-7.129,-0.595,-59.061
1747510104.30,0.014,0.117,0.084,0.534,-0.003,-0.000,-6.520,-0.600,-59.054
1747510104.32,0.011,0.114,0.085,0.543,0.002,0.001,-5.904,-0.599,-59.048
1747510104.34,0.014,0.117,0.085,0.549,-0.006,0.002,-5.281,-0.597,-59.041
1747510104.36,0.011,0.122,0.081,0.554,-0.012,0.001,-4.650,-0.605,-59.036
1747510104.38,0.009,0.136,0.079,0.558,-0.017,0.001,-4.017,-0.624,-59.028
1747510104.40,0.015,0.142,0.073,0.557,-0.019,0.002,-3.382,-0.640,-59.021
1747510104.42,0.020,0.149,0.067,0.559,-0.015,-0.001,-2.745,-0.660,-59.012
1747510104.44,0.009,0.152,0.065,0.557,-0.010,0.000,-2.110,-0.677,-59.005
1747510104.46,0.010,0.156,0.061,0.552,-0.000,0.000,-1.478,-0.683,-58.996
1747510104.48,0.015,0.155,0.051,0.551,-0.006,-0.001,-0.847,-0.683,-58.989
1747510104.50,0.012,0.164,0.045,0.550,-0.022,-0.002,-0.217,-0.700,-58.982
1747510104.52,0.010,0.159,0.040,0.554,-0.041,-0.002,0.412,-0.736,-58.974
1747510104.54,0.015,0.164,0.048,0.540,-0.010,0.001,1.035,-0.759,-58.965
1747510104.56,0.021,0.163,0.033,0.530,-0.003,0.004,1.649,-0.779,-58.955
1747510104.58,0.005,0.164,0.030,0.526,0.014,0.003,2.251,-0.772,-58.944
1747510104.60,0.003,0.163,0.022,0.520,0.012,-0.002,2.846,-0.755,-58.937
1747510104.62,0.018,0.160,0.016,0.508,0.009,0.001,3.436,-0.742,-58.930
1747510104.64,0.017,0.161,0.003,0.501,-0.026,0.001,4.014,-0.754,-58.922
1747510104.66,0.012,0.156,0.003,0.501,-0.071,0.002,4.581,-0.798,-58.914
1747510104.68,0.016,0.152,0.010,0.478,-0.034,0.003,5.134,-0.845,-58.905
1747510104.70,0.009,0.148,0.007,0.463,-0.012,0.002,5.670,-0.872,-58.896
1747510104.72,0.001,0.144,-0.004,0.451,-0.012,-0.002,6.191,-0.885,-58.888
1747510104.74,0.014,0.136,-0.005,0.429,0.000,0.002,6.693,-0.892,-58.880
1747510104.76,0.024,0.135,-0.013,0.416,-0.006,0.002,7.177,-0.899,-58.870
1747510104.78,0.006,0.128,-0.012,0.399,-0.017,0.002,7.642,-0.911,-58.860
1747510104.80,0.005,0.126,-0.011,0.376,-0.020,0.002,8.083,-0.929,-58.852
1747510104.82,0.019,0.118,-0.019,0.360,-0.016,0.001,8.505,-0.951,-58.844
1747510104.84,0.004,0.117,-0.010,0.337,-0.005,0.001,8.904,-0.966,-58.834
1747510104.86,0.009,0.112,-0.020,0.321,-0.023,0.001,9.281,-0.979,-58.827
1747510104.88,0.024,0.103,-0.025,0.299,-0.034,0.003,9.635,-1.009,-58.818
1747510104.90,0.008,0.100,-0.022,0.287,-0.042,0.002,9.967,-1.055,-58.809
1747510104.92,0.003,0.095,-0.026,0.257,-0.028,0.001,10.277,-1.106,-58.802
1747510104.94,0.017,0.093,-0.023,0.236,-0.022,0.004,10.557,-1.130,-58.794
1747510104.96,0.007,0.082,-0.024,0.214,-0.003,0.003,10.810,-1.144,-58.785
1747510104.98,0.004,0.078,-0.026,0.169,0.062,-0.001,11.031,-1.114,-58.779
1747510105.00,0.019,0.082,-0.045,0.162,0.008,0.002,11.198,-1.075,-58.776
1747510105.02,0.017,0.066,-0.042,0.142,-0.021,0.004,11.332,-1.077,-58.770
1747510105.04,0.007,0.066,-0.037,0.126,-0.052,0.003,11.454,-1.118,-58.764
1747510105.06,0.000,0.060,-0.037,0.103,-0.043,0.002,11.559,-1.167,-58.758
1747510105.08,0.006,0.045,-0.041,0.063,0.053,-0.001,11.638,-1.197,-58.754
1747510105.10,0.023,0.057,-0.079,0.059,-0.038,0.005,11.694,-1.212,-58.749
1747510105.12,0.019,0.032,-0.046,0.029,-0.035,0.007,11.726,-1.230,-58.743
1747510105.14,0.007,0.034,-0.042,-0.005,0.005,0.006,11.728,-1.237,-58.737
1747510105.16,-0.001,0.038,-0.044,-0.024,-0.001,0.002,11.706,-1.236,-58.733
1747510105.18,0.000,0.020,-0.056,-0.044,-0.006,0.002,11.660,-1.239,-58.733
1747510105.20,0.020,0.020,-0.050,-0.071,0.017,0.006,11.592,-1.249,-58.731
1747510105.22,0.031,0.006,-0.061,-0.102,0.007,0.008,11.500,-1.253,-58.726
1747510105.24,-0.021,0.023,-0.052,-0.106,-0.026,0.006,11.375,-1.251,-58.719
1747510105.26,-0.001,-0.011,-0.064,-0.131,-0.017,0.003,11.236,-1.274,-58.719
1747510105.28,0.034,-0.004,-0.060,-0.144,-0.040,0.011,11.072,-1.294,-58.716
1747510105.30,-0.004,0.001,-0.049,-0.176,0.001,0.007,10.886,-1.305,-58.710
1747510105.32,-0.002,-0.022,-0.079,-0.189,-0.035,0.003,10.678,-1.320,-58.710
1747510105.34,0.017,-0.002,-0.053,-0.215,-0.000,0.007,10.447,-1.336,-58.710
1747510105.36,0.009,-0.025,-0.065,-0.238,0.006,0.005,10.188,-1.340,-58.708
1747510105.38,0.003,-0.029,-0.072,-0.260,0.012,0.005,9.905,-1.338,-58.708
1747510105.40,0.024,-0.020,-0.074,-0.279,0.024,0.009,9.603,-1.334,-58.705
1747510105.42,-0.004,-0.039,-0.057,-0.304,0.039,0.007,9.273,-1.302,-58.702
1747510105.44,-0.010,-0.031,-0.066,-0.305,0.002,0.004,8.923,-1.267,-58.703
1747510105.46,0.018,-0.032,-0.075,-0.315,-0.023,0.007,8.564,-1.261,-58.704
1747510105.47,0.010,-0.056,-0.064,-0.345,0.021,0.009,8.183,-1.253,-58.703
1747510105.49,0.014,-0.047,-0.066,-0.365,0.032,0.012,7.777,-1.227,-58.700
1747510105.51,0.005,-0.042,-0.078,-0.366,-0.009,0.009,7.361,-1.221,-58.697
1747510105.53,-0.008,-0.064,-0.064,-0.384,-0.001,0.007,6.932,-1.225,-58.697
1747510105.56,0.012,-0.051,-0.070,-0.398,0.005,0.007,6.484,-1.216,-58.700
1747510105.57,0.018,-0.063,-0.070,-0.409,0.002,0.010,6.024,-1.217,-58.699
1747510105.59,0.005,-0.066,-0.068,-0.418,0.000,0.011,5.548,-1.214,-58.697
1747510105.61,0.009,-0.067,-0.075,-0.428,-0.023,0.011,5.072,-1.244,-58.694
1747510105.63,0.009,-0.071,-0.065,-0.434,-0.019,0.011,4.581,-1.267,-58.691
1747510105.65,-0.005,-0.070,-0.060,-0.444,-0.014,0.012,4.080,-1.287,-58.688
1747510105.67,0.004,-0.079,-0.067,-0.456,-0.018,0.011,3.568,-1.309,-58.687
1747510105.69,0.011,-0.075,-0.064,-0.468,-0.007,0.012,3.042,-1.323,-58.687
1747510105.71,0.015,-0.086,-0.065,-0.477,0.004,0.013,2.502,-1.325,-58.687
1747510105.73,0.009,-0.082,-0.058,-0.487,0.031,0.016,1.952,-1.306,-58.684
1747510105.75,-0.003,-0.084,-0.052,-0.499,0.055,0.009,1.386,-1.255,-58.682
1747510105.77,-0.007,-0.086,-0.053,-0.510,0.074,0.012,0.808,-1.179,-58.683
1747510105.79,0.009,-0.086,-0.057,-0.513,0.071,0.008,0.220,-1.087,-58.684
1747510105.81,0.018,-0.086,-0.058,-0.499,0.028,0.011,-0.352,-1.040,-58.682
1747510105.83,0.009,-0.085,-0.063,-0.495,0.019,0.012,-0.917,-1.013,-58.678
1747510105.85,-0.003,-0.090,-0.052,-0.492,0.010,0.011,-1.482,-0.992,-58.674
1747510105.87,0.010,-0.085,-0.048,-0.487,0.004,0.014,-2.041,-0.984,-58.671
1747510105.89,0.012,-0.089,-0.051,-0.472,-0.028,0.013,-2.590,-0.996,-58.664
1747510105.91,0.007,-0.087,-0.047,-0.469,-0.017,0.019,-3.127,-1.014,-58.656
1747510105.93,-0.002,-0.082,-0.043,-0.474,0.004,0.013,-3.660,-1.033,-58.649
1747510105.95,-0.008,-0.085,-0.049,-0.470,0.014,0.010,-4.200,-1.018,-58.645
1747510105.97,0.016,-0.084,-0.044,-0.462,0.008,0.012,-4.731,-1.010,-58.644
1747510105.99,0.021,-0.080,-0.040,-0.457,0.032,0.015,-5.254,-0.986,-58.639
1747510106.01,-0.002,-0.079,-0.039,-0.445,0.020,0.013,-5.770,-0.950,-58.632
1747510106.03,-0.012,-0.079,-0.039,-0.432,-0.001,0.009,-6.271,-0.940,-58.627
1747510106.05,0.007,-0.076,-0.041,-0.427,0.001,0.009,-6.760,-0.945,-58.625
1747510106.07,0.028,-0.077,-0.036,-0.421,0.025,0.013,-7.244,-0.926,-58.620
1747510106.09,0.019,-0.075,-0.040,-0.409,0.017,0.017,-7.717,-0.902,-58.610
1747510106.11,-0.004,-0.071,-0.036,-0.391,-0.003,0.015,-8.173,-0.895,-58.599
1747510106.13,-0.004,-0.066,-0.034,-0.380,-0.004,0.013,-8.615,-0.896,-58.590
1747510106.15,0.007,-0.071,-0.033,-0.374,-0.002,0.013,-9.045,-0.896,-58.581
1747510106.17,0.019,-0.068,-0.043,-0.358,-0.007,0.017,-9.464,-0.896,-58.571
1747510106.19,0.005,-0.063,-0.038,-0.339,-0.033,0.016,-9.863,-0.919,-58.559
1747510106.21,-0.012,-0.065,-0.028,-0.349,0.017,0.009,-10.255,-0.928,-58.549
1747510106.23,0.000,-0.065,-0.038,-0.338,0.016,0.008,-10.654,-0.898,-58.548
1747510106.25,0.011,-0.063,-0.035,-0.322,-0.001,0.009,-11.031,-0.889,-58.542
1747510106.27,0.009,-0.065,-0.040,-0.313,0.001,0.010,-11.392,-0.891,-58.536
1747510106.29,0.006,-0.068,-0.042,-0.297,-0.019,0.009,-11.742,-0.897,-58.530
1747510106.31,0.012,-0.065,-0.039,-0.291,-0.002,0.011,-12.075,-0.920,-58.524
1747510106.33,0.004,-0.063,-0.036,-0.282,0.005,0.009,-12.405,-0.912,-58.520
1747510106.35,-0.004,-0.070,-0.043,-0.272,-0.003,0.007,-12.723,-0.908,-58.515
1747510106.37,0.009,-0.069,-0.045,-0.256,-0.009,0.010,-13.024,-0.914,-58.509
1747510106.39,0.019,-0.067,-0.039,-0.244,0.001,0.008,-13.311,-0.915,-58.503
1747510106.41,0.002,-0.071,-0.041,-0.232,0.000,0.009,-13.581,-0.917,-58.496
1747510106.43,-0.007,-0.069,-0.040,-0.226,0.021,0.004,-13.843,-0.893,-58.491
1747510106.45,0.004,-0.069,-0.042,-0.213,0.020,0.006,-14.087,-0.865,-58.488
1747510106.47,0.012,-0.074,-0.044,-0.200,0.021,0.006,-14.310,-0.835,-58.485
1747510106.49,0.012,-0.072,-0.044,-0.180,0.006,0.009,-14.515,-0.813,-58.479
1747510106.51,0.002,-0.071,-0.034,-0.170,0.016,0.005,-14.701,-0.798,-58.473
1747510106.53,0.001,-0.072,-0.038,-0.151,0.017,0.005,-14.868,-0.781,-58.468
1747510106.55,0.006,-0.068,-0.042,-0.130,0.009,0.007,-15.013,-0.763,-58.464
1747510106.57,0.004,-0.066,-0.033,-0.108,0.003,0.005,-15.137,-0.745,-58.459
1747510106.59,0.009,-0.075,-0.037,-0.091,0.003,0.007,-15.236,-0.737,-58.455
1747510106.61,0.010,-0.067,-0.034,-0.077,0.024,0.005,-15.319,-0.717,-58.450
1747510106.63,0.007,-0.066,-0.031,-0.044,0.004,0.006,-15.374,-0.700,-58.444
1747510106.65,0.002,-0.064,-0.030,-0.028,-0.005,0.006,-15.398,-0.699,-58.435
1747510106.67,0.002,-0.061,-0.033,-0.007,0.003,0.005,-15.400,-0.691,-58.429
1747510106.69,0.002,-0.055,-0.020,0.014,-0.000,0.002,-15.377,-0.681,-58.424
1747510106.71,0.010,-0.055,-0.022,0.033,0.027,0.002,-15.329,-0.670,-58.420
1747510106.73,0.012,-0.060,-0.036,0.055,0.022,0.006,-15.257,-0.643,-58.413
1747510106.75,0.002,-0.049,-0.022,0.077,0.016,0.003,-15.159,-0.620,-58.405
1747510106.77,-0.001,-0.036,-0.012,0.103,0.013,-0.001,-15.033,-0.609,-58.404
1747510106.79,0.007,-0.041,-0.020,0.126,0.013,0.001,-14.879,-0.588,-58.399
1747510106.81,0.014,-0.045,-0.013,0.150,0.003,0.002,-14.692,-0.576,-58.393
1747510106.83,0.010,-0.023,-0.005,0.174,0.009,0.003,-14.483,-0.569,-58.389
1747510106.85,0.001,-0.020,0.006,0.194,0.006,0.003,-14.258,-0.560,-58.384
1747510106.87,0.000,-0.020,0.006,0.217,-0.003,0.001,-14.008,-0.555,-58.379
1747510106.89,0.011,-0.010,0.008,0.237,-0.000,0.001,-13.732,-0.546,-58.374
1747510106.91,0.011,-0.002,0.019,0.256,-0.005,0.003,-13.443,-0.538,-58.367
1747510106.93,0.005,0.001,0.019,0.274,-0.006,-0.001,-13.138,-0.542,-58.362
1747510106.95,0.008,0.002,0.020,0.292,-0.001,0.000,-12.813,-0.548,-58.357
1747510106.97,0.008,0.014,0.031,0.307,0.003,-0.002,-12.475,-0.544,-58.353
1747510106.99,0.007,0.017,0.032,0.322,0.009,0.001,-12.120,-0.531,-58.346
1747510107.01,0.004,0.023,0.039,0.340,0.007,0.001,-11.746,-0.518,-58.342
1747510107.03,0.010,0.026,0.038,0.353,-0.003,-0.000,-11.351,-0.511,-58.339
1747510107.05,0.011,0.037,0.049,0.364,0.000,-0.002,-10.942,-0.512,-58.335
1747510107.07,0.006,0.043,0.047,0.377,0.007,0.001,-10.518,-0.507,-58.329
1747510107.09,0.005,0.045,0.047,0.383,0.001,0.001,-10.083,-0.503,-58.324
1747510107.11,0.006,0.055,0.056,0.391,0.005,0.000,-9.639,-0.499,-58.320
1747510107.13,0.010,0.053,0.051,0.400,0.008,0.004,-9.187,-0.490,-58.315
1747510107.15,0.014,0.062,0.052,0.407,0.005,0.002,-8.727,-0.486,-58.309
1747510107.17,0.006,0.070,0.054,0.412,-0.012,0.000,-8.259,-0.489,-58.304
1747510107.19,0.005,0.071,0.055,0.422,-0.012,0.001,-7.781,-0.498,-58.299
1747510107.21,0.013,0.077,0.049,0.423,-0.018,-0.000,-7.299,-0.515,-58.294
1747510107.23,0.012,0.080,0.056,0.428,-0.019,0.004,-6.814,-0.533,-58.287
1747510107.25,0.001,0.085,0.057,0.425,-0.006,0.000,-6.326,-0.547,-58.280
1747510107.27,0.006,0.087,0.051,0.420,0.006,0.000,-5.841,-0.548,-58.276
1747510107.29,0.019,0.087,0.048,0.423,0.011,0.002,-5.358,-0.535,-58.270
1747510107.31,0.007,0.094,0.044,0.426,0.000,-0.001,-4.871,-0.529,-58.265
1747510107.33,0.009,0.095,0.036,0.426,-0.019,-0.000,-4.384,-0.542,-58.258
1747510107.35,0.014,0.096,0.041,0.423,-0.021,0.001,-3.899,-0.563,-58.252
1747510107.37,0.004,0.098,0.039,0.423,-0.015,0.001,-3.412,-0.584,-58.246
1747510107.39,-0.002,0.104,0.034,0.418,-0.003,-0.000,-2.931,-0.594,-58.241
1747510107.41,0.022,0.093,0.028,0.413,-0.003,-0.000,-2.457,-0.591,-58.237
1747510107.43,0.025,0.102,0.022,0.414,-0.011,0.003,-1.982,-0.597,-58.229
1747510107.45,-0.007,0.100,0.025,0.409,-0.011,-0.000,-1.514,-0.608,-58.223
1747510107.47,0.000,0.101,0.025,0.403,-0.011,-0.001,-1.049,-0.621,-58.219
1747510107.49,0.014,0.098,0.019,0.399,-0.002,0.003,-0.591,-0.630,-58.213
1747510107.51,0.007,0.106,0.017,0.395,-0.001,-0.000,-0.139,-0.632,-58.207
1747510107.53,0.005,0.089,0.010,0.385,-0.011,0.001,0.307,-0.635,-58.202
1747510107.55,0.031,0.099,-0.007,0.381,-0.008,0.003,0.744,-0.650,-58.196
1747510107.57,0.004,0.088,0.002,0.381,-0.020,0.005,1.178,-0.665,-58.186
1747510107.59,-0.004,0.095,0.010,0.371,-0.022,0.002,1.608,-0.687,-58.180
1747510107.61,0.021,0.085,-0.001,0.372,-0.021,0.003,2.032,-0.708,-58.173
1747510107.63,-0.007,0.090,0.004,0.361,-0.005,0.001,2.451,-0.725,-58.164
1747510107.65,-0.005,0.084,0.001,0.355,0.000,-0.001,2.858,-0.728,-58.160
1747510107.67,0.042,0.078,-0.018,0.348,-0.008,0.006,3.258,-0.734,-58.153
1747510107.69,0.021,0.082,-0.013,0.342,-0.012,0.006,3.654,-0.748,-58.141
1747510107.71,-0.018,0.080,0.001,0.337,-0.009,-0.001,4.041,-0.759,-58.131
1747510107.73,-0.001,0.077,-0.009,0.330,-0.007,-0.002,4.420,-0.765,-58.126
1747510107.75,0.013,0.075,-0.008,0.324,-0.011,0.003,4.794,-0.776,-58.120
1747510107.77,0.014,0.071,-0.018,0.315,-0.015,0.002,5.160,-0.791,-58.113
1747510107.79,0.017,0.074,-0.014,0.310,-0.012,0.004,5.517,-0.808,-58.106
1747510107.81,0.008,0.068,-0.011,0.303,-0.015,0.003,5.868,-0.822,-58.097
1747510107.83,-0.002,0.069,-0.005,0.297,-0.010,0.001,6.210,-0.837,-58.090
1747510107.85,0.007,0.068,-0.014,0.286,-0.010,0.001,6.542,-0.852,-58.083
1747510107.87,0.009,0.068,-0.012,0.280,-0.010,-0.000,6.866,-0.862,-58.077
1747510107.89,0.016,0.063,-0.013,0.274,-0.008,0.002,7.183,-0.872,-58.072
1747510107.91,0.015,0.065,-0.012,0.271,-0.010,0.004,7.494,-0.885,-58.064
1747510107.93,0.001,0.067,-0.009,0.258,-0.002,0.002,7.797,-0.892,-58.057
1747510107.95,-0.003,0.065,-0.012,0.255,-0.006,-0.001,8.092,-0.901,-58.052
1747510107.97,0.009,0.061,-0.014,0.249,-0.011,-0.000,8.381,-0.911,-58.048
1747510107.99,0.020,0.060,-0.020,0.242,-0.012,0.001,8.659,-0.922,-58.042
1747510108.01,0.012,0.060,-0.018,0.232,-0.017,0.004,8.929,-0.944,-58.034
1747510108.03,-0.001,0.062,-0.013,0.220,-0.009,-0.000,9.151,-0.963,-58.027
1747510108.05,0.002,0.060,-0.009,0.212,0.001,-0.001,9.360,-0.964,-58.023
1747510108.07,0.011,0.058,-0.015,0.204,-0.001,0.002,9.557,-0.954,-58.018
1747510108.09,0.012,0.055,-0.016,0.195,0.004,0.002,9.744,-0.945,-58.016
1747510108.11,0.017,0.056,-0.018,0.189,0.004,0.005,9.923,-0.943,-58.010
1747510108.13,0.002,0.061,-0.008,0.180,0.009,0.001,10.094,-0.938,-58.002
1747510108.15,-0.005,0.052,-0.017,0.170,0.007,-0.001,10.258,-0.925,-57.998
1747510108.17,0.014,0.054,-0.018,0.160,0.009,0.001,10.411,-0.907,-57.996
1747510108.19,0.012,0.061,-0.010,0.151,-0.001,0.004,10.553,-0.892,-57.992
1747510108.21,0.000,0.048,-0.025,0.145,-0.008,-0.000,10.685,-0.898,-57.988
1747510108.23,0.015,0.046,-0.026,0.130,-0.018,0.000,10.808,-0.914,-57.984
1747510108.25,0.016,0.053,-0.015,0.124,-0.020,0.005,10.922,-0.932,-57.978
1747510108.27,-0.006,0.049,-0.013,0.112,-0.017,0.003,11.022,-0.945,-57.973
1747510108.29,-0.001,0.043,-0.022,0.103,-0.022,0.002,11.115,-0.968,-57.970
1747510108.31,0.014,0.044,-0.022,0.091,-0.013,0.000,11.198,-0.982,-57.968
1747510108.33,0.013,0.042,-0.025,0.079,-0.019,0.004,11.268,-0.989,-57.965
1747510108.35,0.009,0.037,-0.024,0.063,-0.013,0.004,11.328,-1.013,-57.959
1747510108.37,0.006,0.031,-0.024,0.046,0.008,0.003,11.375,-1.018,-57.954
1747510108.39,-0.001,0.037,-0.022,0.032,0.019,0.002,11.403,-0.996,-57.950
1747510108.41,-0.002,0.032,-0.030,0.023,0.002,0.001,11.419,-0.977,-57.949
1747510108.43,0.014,0.026,-0.035,0.017,-0.026,0.001,11.431,-0.986,-57.948
1747510108.45,0.015,0.027,-0.036,0.002,-0.038,0.007,11.434,-1.023,-57.943
1747510108.46,0.006,0.023,-0.032,-0.014,-0.023,0.003,11.423,-1.064,-57.938
1747510108.49,0.007,0.019,-0.030,-0.027,-0.026,0.007,11.392,-1.089,-57.933
1747510108.50,-0.004,0.026,-0.031,-0.038,-0.019,-0.000,11.348,-1.104,-57.930
1747510108.52,0.001,0.010,-0.037,-0.061,0.002,-0.001,11.286,-1.107,-57.931
1747510108.54,0.024,0.011,-0.048,-0.071,-0.003,0.007,11.208,-1.107,-57.927
1747510108.56,0.009,0.009,-0.040,-0.085,-0.007,0.007,11.117,-1.105,-57.922
1747510108.58,-0.011,0.003,-0.039,-0.096,0.008,0.003,11.014,-1.121,-57.918
1747510108.60,0.008,0.007,-0.054,-0.109,-0.015,0.003,10.899,-1.143,-57.918
1747510108.62,0.017,-0.005,-0.045,-0.117,-0.029,0.006,10.766,-1.145,-57.915
1747510108.64,0.001,-0.001,-0.037,-0.136,-0.005,0.004,10.618,-1.156,-57.912
1747510108.66,0.001,-0.004,-0.041,-0.152,-0.010,0.006,10.452,-1.165,-57.909
1747510108.68,0.008,-0.011,-0.041,-0.164,-0.001,0.003,10.270,-1.169,-57.909
1747510108.70,0.003,-0.014,-0.038,-0.179,-0.003,0.009,10.073,-1.166,-57.907
1747510108.72,0.015,-0.010,-0.056,-0.183,0.005,0.007,9.864,-1.161,-57.904
1747510108.74,-0.010,-0.018,-0.025,-0.199,-0.011,0.005,9.642,-1.153,-57.903
1747510108.76,0.005,-0.033,-0.051,-0.216,0.019,0.005,9.405,-1.145,-57.904
1747510108.78,0.019,-0.021,-0.069,-0.226,0.003,0.006,9.154,-1.138,-57.903
1747510108.80,-0.001,-0.013,-0.046,-0.236,-0.002,0.007,8.892,-1.138,-57.899
1747510108.82,0.001,-0.042,-0.044,-0.240,-0.015,0.006,8.620,-1.149,-57.897
1747510108.84,0.016,-0.028,-0.043,-0.251,-0.005,0.008,8.339,-1.159,-57.895
1747510108.86,0.005,-0.031,-0.050,-0.267,0.019,0.008,8.044,-1.156,-57.892
1747510108.88,-0.010,-0.031,-0.066,-0.274,-0.007,0.006,7.735,-1.153,-57.890
1747510108.90,0.006,-0.037,-0.040,-0.282,-0.010,0.006,7.414,-1.139,-57.891
1747510108.92,0.010,-0.053,-0.046,-0.295,-0.003,0.008,7.085,-1.148,-57.892
1747510108.94,0.023,-0.038,-0.053,-0.293,-0.020,0.011,6.745,-1.147,-57.888
1747510108.96,-0.001,-0.036,-0.042,-0.313,0.003,0.009,6.398,-1.157,-57.883
1747510108.98,-0.017,-0.057,-0.044,-0.316,0.002,0.005,6.038,-1.155,-57.882
1747510109.00,0.002,-0.042,-0.051,-0.326,0.016,0.004,5.670,-1.144,-57.882
1747510109.02,0.023,-0.050,-0.057,-0.331,0.000,0.009,5.295,-1.137,-57.882
1747510109.04,0.011,-0.059,-0.046,-0.337,0.002,0.009,4.914,-1.135,-57.877
1747510109.06,-0.006,-0.048,-0.044,-0.341,-0.000,0.009,4.526,-1.138,-57.874
1747510109.08,-0.005,-0.051,-0.040,-0.347,0.005,0.007,4.131,-1.136,-57.872
1747510109.10,0.001,-0.052,-0.041,-0.349,0.007,0.007,3.733,-1.129,-57.873
1747510109.12,0.018,-0.065,-0.051,-0.354,0.007,0.011,3.330,-1.123,-57.870
1747510109.14,0.009,-0.049,-0.040,-0.360,0.013,0.009,2.921,-1.111,-57.866
1747510109.16,-0.001,-0.066,-0.028,-0.379,0.070,0.011,2.496,-1.057,-57.863
1747510109.18,0.001,-0.056,-0.039,-0.365,0.017,0.013,2.079,-1.032,-57.858
1747510109.20,-0.001,-0.056,-0.031,-0.361,0.014,0.010,1.665,-1.017,-57.854
1747510109.22,0.001,-0.061,-0.038,-0.361,0.008,0.011,1.254,-1.006,-57.849
1747510109.24,0.007,-0.057,-0.045,-0.352,-0.011,0.008,0.847,-1.007,-57.846
1747510109.26,0.011,-0.062,-0.036,-0.353,-0.011,0.011,0.446,-1.024,-57.842
1747510109.28,0.006,-0.054,-0.032,-0.357,0.009,0.011,0.041,-1.028,-57.836
1747510109.30,-0.002,-0.059,-0.037,-0.362,0.011,0.010,-0.370,-1.015,-57.831
1747510109.32,0.000,-0.052,-0.031,-0.358,0.016,0.008,-0.781,-1.001,-57.830
1747510109.34,0.007,-0.056,-0.032,-0.356,0.010,0.007,-1.189,-0.988,-57.827
1747510109.36,0.009,-0.055,-0.034,-0.357,0.007,0.011,-1.596,-0.978,-57.823
1747510109.38,0.008,-0.056,-0.030,-0.351,0.019,0.011,-1.999,-0.959,-57.816
1747510109.40,0.008,-0.052,-0.031,-0.344,0.006,0.011,-2.394,-0.949,-57.811
1747510109.42,0.003,-0.050,-0.031,-0.340,0.008,0.013,-2.785,-0.940,-57.804
1747510109.44,-0.004,-0.053,-0.023,-0.334,0.012,0.008,-3.173,-0.924,-57.798
1747510109.46,0.008,-0.050,-0.027,-0.331,0.020,0.011,-3.552,-0.909,-57.793
1747510109.48,0.014,-0.050,-0.033,-0.331,0.019,0.014,-3.930,-0.887,-57.786
1747510109.50,-0.002,-0.049,-0.026,-0.328,0.020,0.012,-4.308,-0.860,-57.778
1747510109.52,-0.006,-0.046,-0.030,-0.317,0.003,0.009,-4.676,-0.849,-57.771
1747510109.54,0.007,-0.044,-0.020,-0.311,0.010,0.008,-5.035,-0.840,-57.768
1747510109.56,0.017,-0.045,-0.021,-0.305,0.015,0.014,-5.388,-0.827,-57.761
1747510109.58,0.003,-0.041,-0.025,-0.296,0.013,0.009,-5.732,-0.812,-57.753
1747510109.60,-0.005,-0.039,-0.026,-0.288,-0.003,0.010,-6.066,-0.806,-57.745
1747510109.62,0.000,-0.042,-0.030,-0.283,-0.006,0.005,-6.393,-0.814,-57.741
1747510109.64,0.011,-0.038,-0.020,-0.288,0.007,0.007,-6.720,-0.808,-57.737
1747510109.66,0.007,-0.039,-0.024,-0.281,0.009,0.010,-7.043,-0.798,-57.731
1747510109.68,-0.003,-0.038,-0.023,-0.282,0.011,0.008,-7.363,-0.784,-57.725
1747510109.70,-0.004,-0.036,-0.024,-0.280,0.013,0.009,-7.683,-0.771,-57.720
1747510109.72,0.014,-0.036,-0.027,-0.273,0.007,0.005,-7.998,-0.758,-57.717
1747510109.74,0.009,-0.038,-0.027,-0.264,0.001,0.008,-8.303,-0.753,-57.712
1747510109.76,0.005,-0.036,-0.025,-0.258,0.000,0.009,-8.600,-0.752,-57.707
1747510109.78,0.008,-0.033,-0.024,-0.254,0.007,0.010,-8.891,-0.749,-57.699
1747510109.80,-0.004,-0.035,-0.021,-0.250,0.015,0.007,-9.178,-0.736,-57.694
1747510109.82,0.005,-0.036,-0.027,-0.247,0.007,0.011,-9.461,-0.722,-57.688
1747510109.84,0.016,-0.035,-0.035,-0.243,0.009,0.010,-9.736,-0.708,-57.680
1747510109.86,0.016,-0.033,-0.030,-0.243,0.010,0.014,-10.004,-0.690,-57.669
1747510109.88,-0.004,-0.033,-0.029,-0.242,0.010,0.010,-10.269,-0.676,-57.658
1747510109.90,-0.019,-0.036,-0.028,-0.235,0.003,0.006,-10.531,-0.668,-57.652
1747510109.92,0.008,-0.032,-0.028,-0.233,0.004,0.007,-10.789,-0.661,-57.648
1747510109.94,0.014,-0.037,-0.030,-0.227,0.008,0.008,-11.039,-0.650,-57.641
1747510109.96,0.005,-0.039,-0.038,-0.227,0.004,0.010,-11.289,-0.640,-57.634
1747510109.98,0.007,-0.039,-0.040,-0.225,-0.000,0.009,-11.540,-0.638,-57.627
1747510110.00,-0.002,-0.037,-0.030,-0.222,-0.005,0.007,-11.786,-0.637,-57.621
1747510110.02,-0.003,-0.042,-0.037,-0.219,-0.008,0.007,-12.027,-0.639,-57.615
1747510110.04,0.004,-0.041,-0.036,-0.214,0.011,0.006,-12.264,-0.637,-57.610
1747510110.06,0.009,-0.045,-0.039,-0.214,0.014,0.009,-12.500,-0.618,-57.604
1747510110.08,0.009,-0.047,-0.045,-0.212,0.008,0.007,-12.737,-0.602,-57.596
1747510110.10,-0.000,-0.045,-0.042,-0.205,-0.001,0.007,-12.968,-0.594,-57.590
1747510110.12,-0.002,-0.048,-0.043,-0.203,-0.005,0.006,-13.192,-0.596,-57.584
1747510110.14,0.001,-0.050,-0.041,-0.195,0.000,0.007,-13.410,-0.597,-57.580
1747510110.16,0.007,-0.052,-0.044,-0.192,0.002,0.007,-13.623,-0.597,-57.575
1747510110.18,0.006,-0.054,-0.040,-0.186,0.012,0.009,-13.832,-0.585,-57.568
1747510110.20,0.001,-0.056,-0.044,-0.182,0.012,0.006,-14.033,-0.573,-57.563
1747510110.22,0.001,-0.057,-0.049,-0.174,0.011,0.006,-14.228,-0.558,-57.557
1747510110.24,0.002,-0.059,-0.045,-0.165,0.006,0.004,-14.416,-0.546,-57.553
1747510110.26,0.004,-0.059,-0.045,-0.159,0.001,0.006,-14.592,-0.540,-57.548
1747510110.28,0.002,-0.065,-0.050,-0.147,0.001,0.002,-14.757,-0.535,-57.545
1747510110.30,0.007,-0.064,-0.044,-0.136,0.010,0.007,-14.909,-0.531,-57.539
1747510110.32,0.002,-0.063,-0.043,-0.122,0.015,0.005,-15.051,-0.513,-57.534
1747510110.34,-0.007,-0.068,-0.050,-0.112,0.008,0.003,-15.177,-0.501,-57.529
1747510110.36,0.003,-0.067,-0.047,-0.100,0.006,0.003,-15.288,-0.494,-57.527
1747510110.38,0.013,-0.065,-0.044,-0.083,0.001,0.006,-15.382,-0.490,-57.522
1747510110.40,0.002,-0.069,-0.046,-0.067,-0.005,0.005,-15.458,-0.490,-57.517
1747510110.42,-0.006,-0.068,-0.042,-0.053,0.001,0.004,-15.516,-0.495,-57.513
1747510110.44,0.001,-0.064,-0.037,-0.035,0.001,0.004,-15.557,-0.491,-57.510
1747510110.46,0.006,-0.067,-0.041,-0.017,0.000,0.005,-15.576,-0.488,-57.506
1747510110.48,0.010,-0.068,-0.043,0.002,0.014,0.004,-15.576,-0.475,-57.501
1747510110.50,0.003,-0.061,-0.034,0.021,0.010,0.004,-15.551,-0.464,-57.496
1747510110.52,-0.009,-0.054,-0.026,0.038,0.005,0.003,-15.505,-0.455,-57.491
1747510110.54,-0.007,-0.056,-0.026,0.058,-0.003,-0.001,-15.437,-0.452,-57.490
1747510110.56,0.011,-0.060,-0.034,0.080,0.001,0.002,-15.343,-0.451,-57.488
1747510110.58,0.018,-0.055,-0.029,0.102,0.009,0.007,-15.225,-0.443,-57.482
1747510110.60,0.002,-0.042,-0.014,0.125,0.001,0.002,-15.082,-0.436,-57.475
1747510110.62,-0.011,-0.041,-0.014,0.148,-0.011,0.002,-14.912,-0.444,-57.473
1747510110.64,-0.002,-0.038,-0.009,0.168,-0.005,-0.001,-14.709,-0.450,-57.472
1747510110.66,0.015,-0.030,-0.005,0.188,0.001,0.002,-14.481,-0.440,-57.467
1747510110.68,0.011,-0.031,-0.008,0.209,0.004,0.003,-14.238,-0.431,-57.461
1747510110.70,-0.005,-0.019,0.005,0.226,0.001,0.004,-13.976,-0.433,-57.458
1747510110.72,-0.001,-0.010,0.014,0.245,-0.001,-0.002,-13.695,-0.436,-57.456
1747510110.74,0.008,-0.010,0.016,0.267,0.000,0.000,-13.395,-0.429,-57.454
1747510110.76,0.008,-0.016,0.008,0.284,0.010,0.003,-13.076,-0.418,-57.449
1747510110.78,0.004,-0.002,0.020,0.301,0.001,-0.000,-12.740,-0.411,-57.446
1747510110.80,0.000,0.015,0.032,0.315,0.002,-0.001,-12.394,-0.412,-57.444
1747510110.82,0.003,0.008,0.028,0.330,0.003,-0.003,-12.031,-0.408,-57.441
1747510110.84,0.009,0.012,0.031,0.342,0.005,0.001,-11.646,-0.402,-57.438
1747510110.86,0.005,0.026,0.041,0.358,0.004,0.004,-11.245,-0.394,-57.433
1747510110.88,-0.001,0.035,0.046,0.371,-0.006,-0.001,-10.828,-0.393,-57.429
1747510110.90,0.008,0.032,0.044,0.386,-0.001,-0.000,-10.397,-0.395,-57.428
1747510110.92,0.016,0.027,0.037,0.395,-0.007,-0.001,-9.951,-0.399,-57.424
1747510110.94,0.002,0.049,0.055,0.405,-0.003,0.001,-9.495,-0.401,-57.419
1747510110.96,-0.004,0.052,0.056,0.409,-0.001,-0.001,-9.031,-0.403,-57.417
1747510110.98,0.007,0.052,0.052,0.416,0.004,-0.001,-8.559,-0.402,-57.416
1747510111.00,0.015,0.059,0.052,0.422,0.000,0.001,-8.079,-0.401,-57.413
1747510111.02,0.004,0.065,0.054,0.431,0.000,0.000,-7.591,-0.400,-57.408
1747510111.04,0.001,0.074,0.057,0.438,-0.012,0.001,-7.095,-0.405,-57.403
1747510111.06,0.009,0.067,0.050,0.440,-0.009,0.001,-6.595,-0.416,-57.399
1747510111.08,0.008,0.082,0.054,0.446,-0.011,0.002,-6.089,-0.426,-57.394
1747510111.10,0.001,0.079,0.055,0.447,-0.003,-0.000,-5.578,-0.433,-57.390
1747510111.12,0.011,0.087,0.052,0.447,0.006,-0.001,-5.067,-0.429,-57.386
1747510111.14,0.009,0.091,0.047,0.453,-0.010,0.001,-4.553,-0.430,-57.381
1747510111.16,0.003,0.091,0.050,0.455,-0.008,0.002,-4.033,-0.440,-57.376
1747510111.18,0.011,0.099,0.045,0.454,0.001,-0.000,-3.515,-0.446,-57.372
1747510111.20,0.002,0.095,0.042,0.453,0.006,-0.002,-2.998,-0.440,-57.367
1747510111.22,0.000,0.107,0.042,0.454,0.008,-0.005,-2.481,-0.433,-57.364
1747510111.24,0.022,0.102,0.031,0.459,-0.008,0.001,-1.962,-0.432,-57.361
1747510111.26,0.009,0.112,0.035,0.453,-0.014,0.003,-1.440,-0.445,-57.354
1747510111.28,-0.007,0.106,0.038,0.451,-0.014,-0.002,-0.922,-0.460,-57.350
1747510111.30,0.010,0.114,0.026,0.452,-0.020,0.000,-0.406,-0.477,-57.346
1747510111.32,0.013,0.108,0.026,0.456,-0.023,0.001,0.113,-0.504,-57.341
1747510111.34,0.007,0.117,0.022,0.446,-0.018,0.001,0.628,-0.526,-57.336
1747510111.36,0.009,0.108,0.020,0.442,-0.006,0.004,1.135,-0.540,-57.330
1747510111.38,0.001,0.115,0.017,0.437,0.002,-0.002,1.636,-0.543,-57.323
1747510111.40,0.007,0.113,0.012,0.432,-0.000,0.002,2.132,-0.540,-57.319
1747510111.42,0.012,0.112,0.010,0.430,-0.001,-0.001,2.624,-0.538,-57.313
1747510111.44,0.002,0.113,0.008,0.424,-0.013,0.001,3.111,-0.547,-57.308
1747510111.45,0.012,0.111,0.003,0.419,-0.011,0.002,3.591,-0.561,-57.304
1747510111.48,0.013,0.110,0.002,0.413,-0.016,0.002,4.064,-0.579,-57.296
1747510111.50,-0.001,0.108,0.001,0.403,-0.011,0.002,4.530,-0.596,-57.289
1747510111.51,-0.001,0.108,0.007,0.395,-0.005,0.001,4.985,-0.604,-57.283
1747510111.53,0.009,0.104,-0.002,0.389,-0.006,0.001,5.432,-0.607,-57.277
1747510111.55,0.012,0.104,-0.009,0.380,-0.013,0.003,5.871,-0.618,-57.270
1747510111.58,0.008,0.102,-0.005,0.369,-0.014,-0.000,6.298,-0.636,-57.263
1747510111.59,0.006,0.098,-0.010,0.359,-0.018,-0.000,6.714,-0.654,-57.257
1747510111.61,0.005,0.098,-0.009,0.349,-0.015,-0.001,7.119,-0.674,-57.251
1747510111.63,0.004,0.096,-0.005,0.334,-0.008,0.001,7.511,-0.694,-57.244
1747510111.65,0.006,0.093,-0.010,0.324,0.002,-0.003,7.887,-0.698,-57.240
1747510111.67,0.014,0.092,-0.012,0.315,0.002,0.001,8.251,-0.696,-57.234
1747510111.69,0.002,0.088,-0.013,0.296,-0.005,0.002,8.600,-0.700,-57.228
1747510111.71,0.004,0.082,-0.015,0.283,-0.002,0.002,8.933,-0.703,-57.224
1747510111.73,0.008,0.087,-0.013,0.268,0.001,0.001,9.251,-0.710,-57.218
1747510111.75,0.001,0.080,-0.017,0.256,-0.003,0.002,9.552,-0.714,-57.212
1747510111.77,0.010,0.078,-0.021,0.244,-0.014,-0.001,9.838,-0.725,-57.207
1747510111.79,0.009,0.075,-0.025,0.229,-0.034,0.001,10.107,-0.753,-57.203
1747510111.81,0.003,0.070,-0.020,0.215,-0.029,0.002,10.360,-0.790,-57.196
1747510111.83,0.007,0.074,-0.018,0.198,-0.029,0.004,10.576,-0.825,-57.190
1747510111.85,0.003,0.063,-0.024,0.179,-0.018,-0.002,10.749,-0.845,-57.186
1747510111.87,0.005,0.070,-0.013,0.163,-0.013,0.002,10.897,-0.854,-57.182
1747510111.89,0.006,0.060,-0.026,0.149,-0.010,0.003,11.035,-0.869,-57.177
1747510111.91,0.007,0.062,-0.020,0.129,-0.001,0.003,11.157,-0.868,-57.174
1747510111.93,0.007,0.055,-0.032,0.110,-0.002,0.002,11.264,-0.869,-57.169
1747510111.95,0.003,0.050,-0.030,0.096,0.005,0.003,11.354,-0.869,-57.165
1747510111.97,0.005,0.050,-0.029,0.074,0.016,0.003,11.425,-0.855,-57.163
1747510111.99,0.006,0.043,-0.037,0.060,0.008,0.001,11.482,-0.839,-57.159
1747510112.01,0.002,0.041,-0.035,0.040,-0.005,0.003,11.525,-0.836,-57.156
1747510112.03,0.007,0.033,-0.039,0.023,-0.012,0.004,11.550,-0.847,-57.151
1747510112.05,0.003,0.028,-0.038,0.009,-0.025,0.005,11.559,-0.868,-57.147
1747510112.07,0.002,0.015,-0.057,-0.010,-0.028,0.002,11.554,-0.896,-57.143
1747510112.09,0.010,0.024,-0.043,-0.024,-0.025,0.004,11.530,-0.931,-57.138
1747510112.11,-0.001,0.023,-0.033,-0.044,-0.016,0.003,11.484,-0.952,-57.133
1747510112.13,0.006,0.020,-0.052,-0.065,-0.002,0.004,11.417,-0.960,-57.131
1747510112.15,0.010,0.013,-0.045,-0.083,-0.004,0.002,11.331,-0.962,-57.129
1747510112.17,-0.001,0.009,-0.047,-0.099,-0.001,0.005,11.225,-0.966,-57.125
1747510112.19,-0.003,0.000,-0.050,-0.116,-0.016,0.004,11.099,-0.974,-57.125
1747510112.21,0.010,-0.009,-0.051,-0.136,0.010,0.002,10.954,-0.974,-57.124
1747510112.23,0.004,0.007,-0.050,-0.151,-0.009,0.007,10.788,-0.974,-57.121
1747510112.25,-0.000,-0.019,-0.062,-0.169,-0.012,0.009,10.605,-0.986,-57.118
1747510112.27,0.012,-0.011,-0.052,-0.188,-0.000,0.007,10.401,-0.993,-57.115
1747510112.29,-0.004,-0.011,-0.049,-0.201,0.002,0.006,10.179,-0.998,-57.110
1747510112.31,-0.006,-0.026,-0.057,-0.214,-0.000,0.005,9.941,-0.998,-57.108
1747510112.33,0.003,-0.010,-0.052,-0.230,0.002,0.004,9.686,-1.000,-57.108
1747510112.35,0.014,-0.038,-0.067,-0.248,0.003,0.006,9.413,-0.995,-57.107
1747510112.37,0.011,-0.031,-0.060,-0.262,-0.004,0.010,9.122,-0.992,-57.103
1747510112.39,-0.003,-0.030,-0.054,-0.275,-0.007,0.008,8.817,-0.998,-57.099
1747510112.41,-0.010,-0.041,-0.054,-0.286,0.001,0.005,8.496,-0.999,-57.097
1747510112.43,-0.002,-0.033,-0.056,-0.300,-0.001,0.004,8.159,-0.996,-57.097
1747510112.45,0.017,-0.043,-0.063,-0.316,0.005,0.005,7.809,-0.993,-57.097
1747510112.47,0.009,-0.044,-0.060,-0.325,0.001,0.012,7.444,-0.991,-57.093
1747510112.49,0.000,-0.051,-0.062,-0.336,-0.012,0.008,7.068,-0.999,-57.088
1747510112.51,-0.004,-0.041,-0.052,-0.350,-0.005,0.008,6.679,-1.010,-57.086
1747510112.53,-0.002,-0.049,-0.053,-0.357,-0.000,0.006,6.276,-1.014,-57.085
1747510112.55,0.008,-0.057,-0.059,-0.366,0.006,0.006,5.860,-1.007,-57.084
1747510112.57,0.005,-0.051,-0.053,-0.384,0.021,0.009,5.433,-0.989,-57.082
1747510112.59,0.001,-0.059,-0.059,-0.390,0.006,0.008,4.998,-0.989,-57.079
1747510112.61,0.001,-0.056,-0.053,-0.391,0.002,0.010,4.551,-0.984,-57.077
1747510112.63,0.002,-0.059,-0.048,-0.399,0.009,0.011,4.098,-0.981,-57.074
1747510112.65,0.000,-0.063,-0.052,-0.408,0.008,0.006,3.638,-0.972,-57.071
1747510112.67,0.002,-0.061,-0.051,-0.415,0.015,0.010,3.169,-0.959,-57.069
1747510112.69,0.005,-0.066,-0.056,-0.419,0.009,0.008,2.690,-0.946,-57.066
1747510112.71,0.005,-0.067,-0.054,-0.425,0.003,0.009,2.206,-0.939,-57.064
1747510112.74,0.003,-0.065,-0.052,-0.429,-0.003,0.011,1.718,-0.940,-57.061
1747510112.75,-0.007,-0.067,-0.052,-0.434,-0.007,0.008,1.225,-0.948,-57.057
1747510112.77,-0.004,-0.071,-0.046,-0.439,0.005,0.009,0.726,-0.948,-57.054
1747510112.79,0.013,-0.067,-0.054,-0.442,0.007,0.009,0.224,-0.943,-57.051
1747510112.81,0.006,-0.074,-0.051,-0.445,0.013,0.012,-0.282,-0.933,-57.046
1747510112.83,0.002,-0.069,-0.066,-0.453,0.029,0.010,-0.803,-0.884,-57.043
1747510112.85,0.000,-0.073,-0.043,-0.446,0.020,0.011,-1.317,-0.863,-57.038
1747510112.87,-0.000,-0.068,-0.056,-0.441,0.002,0.009,-1.825,-0.852,-57.035
1747510112.89,0.004,-0.074,-0.044,-0.439,0.012,0.012,-2.327,-0.844,-57.030
1747510112.91,0.001,-0.071,-0.042,-0.442,0.021,0.010,-2.831,-0.826,-57.024
1747510112.93,-0.002,-0.076,-0.050,-0.441,0.018,0.008,-3.334,-0.805,-57.020
1747510112.95,0.006,-0.068,-0.042,-0.434,0.017,0.012,-3.834,-0.784,-57.014
1747510112.97,0.002,-0.081,-0.040,-0.431,0.007,0.011,-4.327,-0.771,-57.007
1747510112.99,-0.000,-0.067,-0.051,-0.422,-0.017,0.012,-4.815,-0.777,-57.001
1747510113.01,0.002,-0.074,-0.040,-0.416,-0.020,0.011,-5.293,-0.797,-56.994
1747510113.03,0.004,-0.074,-0.035,-0.412,-0.007,0.013,-5.765,-0.818,-56.987
1747510113.05,0.009,-0.067,-0.041,-0.407,0.003,0.013,-6.233,-0.822,-56.978
1747510113.07,0.002,-0.072,-0.035,-0.405,0.015,0.012,-6.695,-0.809,-56.968
1747510113.09,-0.002,-0.068,-0.029,-0.402,0.036,0.015,-7.158,-0.772,-56.959
1747510113.11,-0.004,-0.064,-0.048,-0.394,0.025,0.010,-7.613,-0.732,-56.951
1747510113.13,0.001,-0.067,-0.035,-0.384,0.016,0.011,-8.057,-0.707,-56.946
1747510113.15,0.010,-0.069,-0.041,-0.370,-0.002,0.012,-8.489,-0.695,-56.939
1747510113.17,0.005,-0.062,-0.030,-0.367,0.013,0.013,-8.909,-0.688,-56.930
1747510113.19,-0.003,-0.064,-0.042,-0.356,0.012,0.011,-9.323,-0.672,-56.922
1747510113.21,0.000,-0.065,-0.029,-0.348,0.021,0.010,-9.726,-0.652,-56.915
1747510113.23,0.001,-0.064,-0.038,-0.339,0.011,0.009,-10.120,-0.632,-56.908
1747510113.25,0.003,-0.065,-0.044,-0.330,-0.001,0.011,-10.503,-0.624,-56.901
1747510113.27,0.007,-0.063,-0.037,-0.324,-0.002,0.011,-10.876,-0.627,-56.892
1747510113.29,-0.001,-0.065,-0.035,-0.312,0.005,0.006,-11.238,-0.625,-56.885
1747510113.31,0.002,-0.063,-0.041,-0.304,0.005,0.009,-11.590,-0.618,-56.879
1747510113.33,-0.002,-0.066,-0.038,-0.298,0.014,0.012,-11.934,-0.605,-56.871
1747510113.35,0.002,-0.065,-0.039,-0.287,0.012,0.007,-12.267,-0.590,-56.864
1747510113.37,0.006,-0.068,-0.044,-0.277,0.016,0.009,-12.591,-0.574,-56.857
1747510113.39,0.001,-0.072,-0.044,-0.270,0.010,0.009,-12.902,-0.559,-56.851
1747510113.41,-0.001,-0.066,-0.040,-0.260,0.009,0.007,-13.202,-0.544,-56.844
1747510113.43,-0.007,-0.068,-0.040,-0.246,0.008,0.008,-13.489,-0.533,-56.839
1747510113.45,0.000,-0.073,-0.045,-0.235,0.005,0.008,-13.764,-0.524,-56.835
1747510113.47,0.014,-0.071,-0.042,-0.222,0.005,0.011,-14.024,-0.518,-56.829
1747510113.49,0.002,-0.070,-0.043,-0.204,0.010,0.008,-14.261,-0.508,-56.822
1747510113.51,-0.011,-0.073,-0.041,-0.192,0.006,0.005,-14.475,-0.496,-56.817
1747510113.53,-0.004,-0.073,-0.041,-0.180,0.005,0.005,-14.673,-0.490,-56.814
1747510113.55,0.007,-0.070,-0.039,-0.166,0.006,0.003,-14.855,-0.481,-56.811
1747510113.57,0.011,-0.070,-0.040,-0.144,0.004,0.007,-15.017,-0.475,-56.805
1747510113.59,0.002,-0.074,-0.045,-0.127,0.006,0.006,-15.158,-0.470,-56.798
1747510113.61,-0.007,-0.067,-0.035,-0.110,0.002,0.008,-15.279,-0.467,-56.791
1747510113.63,-0.004,-0.061,-0.027,-0.089,0.003,0.002,-15.377,-0.460,-56.788
1747510113.65,0.000,-0.067,-0.038,-0.073,0.007,0.001,-15.453,-0.456,-56.786
1747510113.67,0.009,-0.064,-0.035,-0.053,0.009,0.005,-15.507,-0.444,-56.784
1747510113.69,0.006,-0.058,-0.028,-0.032,0.012,0.005,-15.539,-0.434,-56.779
1747510113.71,-0.000,-0.055,-0.024,-0.014,0.015,0.005,-15.549,-0.419,-56.773
1747510113.73,-0.006,-0.054,-0.022,0.009,0.016,0.003,-15.533,-0.400,-56.768
1747510113.75,0.000,-0.047,-0.018,0.031,0.006,0.004,-15.488,-0.382,-56.764
1747510113.77,0.006,-0.047,-0.020,0.049,0.006,0.003,-15.418,-0.371,-56.758
1747510113.79,0.010,-0.045,-0.024,0.068,-0.008,0.006,-15.326,-0.370,-56.753
1747510113.81,0.004,-0.038,-0.016,0.094,-0.005,0.006,-15.209,-0.385,-56.746
1747510113.83,-0.006,-0.030,-0.003,0.115,-0.003,0.004,-15.068,-0.391,-56.740
1747510113.85,-0.007,-0.030,-0.001,0.130,-0.016,-0.003,-14.907,-0.394,-56.736
1747510113.87,0.006,-0.032,0.001,0.149,0.009,0.002,-14.725,-0.388,-56.732
1747510113.89,0.015,-0.021,-0.008,0.168,0.013,0.003,-14.528,-0.372,-56.728
1747510113.91,-0.001,-0.016,0.012,0.189,0.015,0.003,-14.312,-0.360,-56.723
1747510113.93,-0.010,-0.009,0.004,0.207,-0.002,0.001,-14.080,-0.355,-56.721
1747510113.95,-0.000,-0.010,0.016,0.229,-0.001,0.002,-13.821,-0.355,-56.718
1747510113.97,0.012,0.001,0.015,0.240,0.011,0.002,-13.549,-0.340,-56.714
1747510113.99,0.003,0.001,0.013,0.253,0.011,0.002,-13.267,-0.325,-56.709
1747510114.01,-0.004,0.007,0.019,0.270,0.010,0.002,-12.972,-0.314,-56.707
1747510114.03,0.003,0.008,0.021,0.284,0.008,-0.002,-12.660,-0.306,-56.707
1747510114.05,0.011,0.015,0.026,0.300,0.009,-0.001,-12.333,-0.292,-56.706
1747510114.07,0.005,0.020,0.029,0.312,-0.003,0.002,-11.990,-0.287,-56.704
1747510114.09,-0.002,0.025,0.032,0.325,-0.010,0.001,-11.630,-0.293,-56.701
1747510114.11,0.004,0.026,0.032,0.335,-0.007,-0.000,-11.251,-0.302,-56.698
1747510114.13,0.008,0.032,0.037,0.347,0.002,0.002,-10.861,-0.304,-56.694
1747510114.15,-0.001,0.037,0.043,0.358,0.002,0.002,-10.459,-0.301,-56.688
1747510114.17,0.001,0.037,0.038,0.363,0.000,0.000,-10.047,-0.300,-56.688
1747510114.19,0.012,0.041,0.039,0.375,-0.008,0.004,-9.626,-0.303,-56.685
1747510114.21,0.005,0.042,0.042,0.378,-0.008,-0.001,-9.196,-0.312,-56.681
1747510114.23,-0.001,0.051,0.044,0.386,-0.007,-0.000,-8.758,-0.320,-56.679
1747510114.25,0.003,0.058,0.048,0.389,-0.003,-0.000,-8.315,-0.326,-56.678
1747510114.27,0.009,0.054,0.042,0.396,-0.004,0.003,-7.867,-0.327,-56.675
1747510114.29,0.002,0.059,0.044,0.401,-0.002,-0.000,-7.412,-0.331,-56.672
1747510114.31,0.001,0.066,0.045,0.404,-0.006,-0.002,-6.953,-0.336,-56.670
1747510114.33,0.011,0.066,0.041,0.411,-0.017,0.001,-6.487,-0.348,-56.667
1747510114.35,0.007,0.071,0.043,0.412,-0.017,0.002,-6.017,-0.368,-56.663
1747510114.37,-0.005,0.073,0.043,0.408,-0.005,-0.001,-5.548,-0.384,-56.660
1747510114.39,0.006,0.079,0.044,0.411,0.000,0.003,-5.078,-0.386,-56.656
1747510114.41,0.014,0.075,0.037,0.412,0.006,-0.000,-4.606,-0.381,-56.652
1747510114.43,0.002,0.082,0.037,0.411,0.007,-0.001,-4.135,-0.372,-56.648
1747510114.45,0.001,0.084,0.036,0.415,0.001,-0.001,-3.664,-0.364,-56.646
1747510114.46,0.010,0.084,0.033,0.415,-0.001,0.000,-3.191,-0.366,-56.644
1747510114.48,0.007,0.087,0.030,0.415,-0.009,-0.002,-2.715,-0.376,-56.640
1747510114.50,0.001,0.092,0.034,0.412,0.000,-0.001,-2.242,-0.383,-56.637
1747510114.52,0.004,0.089,0.026,0.415,0.004,0.000,-1.771,-0.377,-56.633
1747510114.54,0.004,0.091,0.026,0.411,-0.001,0.000,-1.299,-0.373,-56.630
1747510114.56,0.009,0.091,0.021,0.413,-0.010,0.003,-0.826,-0.378,-56.628
1747510114.58,0.010,0.094,0.016,0.412,-0.022,0.003,-0.357,-0.399,-56.623
1747510114.60,0.001,0.094,0.018,0.409,-0.029,0.001,0.113,-0.428,-56.617
1747510114.62,-0.001,0.096,0.019,0.407,-0.025,-0.001,0.579,-0.458,-56.614
1747510114.64,0.015,0.092,0.015,0.401,-0.004,0.002,1.040,-0.475,-56.610
1747510114.66,0.004,0.094,0.008,0.396,0.006,0.002,1.494,-0.471,-56.603
1747510114.68,-0.012,0.092,0.011,0.393,-0.005,-0.002,1.944,-0.468,-56.600
1747510114.70,0.013,0.094,-0.001,0.393,-0.021,0.000,2.394,-0.479,-56.597
1747510114.72,0.022,0.091,-0.000,0.391,-0.033,0.004,2.839,-0.507,-56.592
1747510114.74,-0.007,0.094,0.006,0.381,-0.022,0.000,3.281,-0.540,-56.586
1747510114.76,-0.000,0.092,0.003,0.377,-0.007,0.001,3.714,-0.557,-56.583
1747510114.78,0.015,0.090,0.001,0.371,0.003,0.003,4.141,-0.559,-56.578
1747510114.80,-0.001,0.091,0.005,0.368,0.003,0.003,4.563,-0.558,-56.570
1747510114.82,0.000,0.090,-0.007,0.359,-0.003,-0.000,4.978,-0.557,-56.565
1747510114.84,0.005,0.091,-0.003,0.352,-0.009,-0.001,5.385,-0.563,-56.562
1747510114.86,0.003,0.086,-0.002,0.345,-0.000,-0.000,5.784,-0.563,-56.559
1747510114.88,0.010,0.088,-0.011,0.343,-0.009,0.000,6.175,-0.564,-56.555
1747510114.90,0.015,0.086,-0.009,0.331,-0.021,0.002,6.560,-0.583,-56.549
1747510114.92,0.009,0.085,-0.008,0.323,-0.020,0.005,6.936,-0.610,-56.542
1747510114.94,-0.010,0.089,-0.002,0.315,-0.012,-0.000,7.299,-0.629,-56.536
1747510114.96,-0.011,0.083,-0.003,0.304,-0.000,-0.003,7.652,-0.635,-56.533
1747510114.98,0.015,0.084,-0.008,0.295,0.006,0.002,7.995,-0.632,-56.530
1747510115.00,0.014,0.080,-0.017,0.288,-0.004,0.002,8.327,-0.632,-56.525
1747510115.02,0.005,0.080,-0.016,0.278,-0.013,0.001,8.648,-0.644,-56.519
1747510115.04,0.007,0.079,-0.011,0.267,-0.014,0.005,8.959,-0.660,-56.511
1747510115.06,-0.001,0.079,-0.008,0.253,-0.010,0.001,9.255,-0.677,-56.503
1747510115.08,-0.006,0.080,-0.006,0.242,0.004,0.000,9.537,-0.679,-56.498
1747510115.10,0.005,0.077,-0.015,0.230,-0.005,-0.003,9.806,-0.679,-56.495
1747510115.12,0.016,0.076,-0.019,0.219,-0.008,0.002,10.064,-0.689,-56.491
1747510115.14,0.009,0.078,-0.013,0.208,-0.013,0.001,10.265,-0.700,-56.485
1747510115.16,-0.003,0.071,-0.018,0.194,-0.016,-0.001,10.447,-0.723,-56.479
1747510115.18,0.003,0.068,-0.019,0.180,-0.014,-0.001,10.614,-0.738,-56.478
1747510115.20,0.012,0.067,-0.020,0.165,-0.019,0.002,10.767,-0.748,-56.476
1747510115.22,0.006,0.061,-0.018,0.146,0.000,0.001,10.901,-0.755,-56.473
1747510115.24,0.000,0.062,-0.021,0.135,-0.003,0.002,11.019,-0.756,-56.467
1747510115.26,-0.003,0.061,-0.020,0.117,-0.002,0.004,11.126,-0.760,-56.463
1747510115.28,0.003,0.056,-0.029,0.104,-0.009,0.004,11.215,-0.760,-56.461
1747510115.30,0.013,0.052,-0.029,0.087,-0.013,0.003,11.293,-0.770,-56.458
1747510115.32,0.010,0.044,-0.034,0.065,-0.005,0.002,11.360,-0.789,-56.454
1747510115.34,-0.005,0.048,-0.035,0.051,-0.014,0.002,11.411,-0.811,-56.451
1747510115.36,-0.001,0.042,-0.031,0.033,-0.021,0.001,11.440,-0.824,-56.448
1747510115.38,0.010,0.034,-0.027,0.024,-0.032,0.002,11.456,-0.830,-56.445
1747510115.40,0.005,0.034,-0.025,-0.008,0.005,0.005,11.457,-0.840,-56.440
1747510115.42,-0.004,0.027,-0.040,-0.014,-0.023,0.003,11.440,-0.865,-56.436
1747510115.44,0.001,0.026,-0.042,-0.048,0.027,0.000,11.400,-0.879,-56.432
1747510115.46,0.005,0.023,-0.048,-0.054,-0.016,0.003,11.342,-0.890,-56.430
1747510115.48,0.008,0.011,-0.049,-0.074,-0.013,0.006,11.265,-0.911,-56.427
1747510115.50,0.009,0.016,-0.036,-0.100,-0.003,0.006,11.165,-0.926,-56.422
1747510115.52,-0.005,-0.007,-0.088,-0.119,0.010,0.004,11.037,-0.909,-56.418
1747510115.54,-0.010,0.016,-0.016,-0.127,0.002,0.003,10.899,-0.902,-56.417
1747510115.56,-0.005,-0.011,-0.054,-0.136,-0.027,0.002,10.743,-0.911,-56.417
1747510115.58,0.031,-0.014,-0.070,-0.169,-0.002,0.006,10.567,-0.919,-56.415
1747510115.60,0.012,-0.000,-0.042,-0.184,0.006,0.009,10.368,-0.919,-56.409
1747510115.62,-0.020,-0.020,-0.043,-0.197,0.003,0.003,10.144,-0.902,-56.405
1747510115.64,-0.025,-0.007,-0.050,-0.226,0.027,-0.002,9.903,-0.894,-56.408
1747510115.66,0.028,-0.040,-0.072,-0.243,0.022,0.004,9.628,-0.837,-56.413
1747510115.68,0.025,-0.015,-0.047,-0.256,0.036,0.009,9.345,-0.799,-56.405
1747510115.70,-0.026,-0.030,-0.055,-0.261,0.005,0.005,9.056,-0.791,-56.397
1747510115.72,-0.018,-0.034,-0.056,-0.272,-0.011,0.001,8.752,-0.798,-56.396
1747510115.74,0.003,-0.017,-0.050,-0.299,0.014,0.003,8.435,-0.807,-56.398
1747510115.76,0.028,-0.058,-0.086,-0.292,-0.031,0.007,8.107,-0.839,-56.397
1747510115.78,0.011,-0.039,-0.040,-0.322,0.016,0.012,7.754,-0.842,-56.391
1747510115.80,-0.014,-0.067,-0.060,-0.319,-0.020,0.006,7.393,-0.867,-56.384
1747510115.82,-0.033,-0.090,-0.063,-0.335,0.008,0.004,7.018,-0.866,-56.383
1747510115.84,0.006,-0.022,-0.048,-0.350,0.010,0.004,6.627,-0.850,-56.386
1747510115.86,0.048,-0.063,-0.063,-0.357,0.017,0.012,6.224,-0.839,-56.382
1747510115.88,-0.014,-0.050,-0.059,-0.371,0.030,0.012,5.807,-0.813,-56.372
1747510115.90,-0.021,-0.078,-0.063,-0.372,0.025,0.003,5.380,-0.779,-56.370
1747510115.92,-0.001,-0.045,-0.041,-0.380,0.035,0.002,4.950,-0.745,-56.371
1747510115.94,0.014,-0.052,-0.061,-0.395,0.019,0.008,4.508,-0.714,-56.371
1747510115.96,0.003,-0.074,-0.066,-0.406,-0.000,0.009,4.052,-0.703,-56.369
1747510115.98,-0.012,-0.051,-0.055,-0.415,-0.005,0.008,3.583,-0.708,-56.365
1747510116.00,0.015,-0.074,-0.059,-0.422,-0.008,0.010,3.105,-0.716,-56.362
1747510116.02,0.002,-0.064,-0.052,-0.429,-0.007,0.013,2.619,-0.726,-56.354
1747510116.04,-0.012,-0.083,-0.052,-0.440,-0.015,0.011,2.123,-0.740,-56.346
1747510116.06,-0.004,-0.059,-0.050,-0.449,0.013,0.009,1.619,-0.744,-56.341
1747510116.08,0.007,-0.079,-0.050,-0.449,0.019,0.012,1.103,-0.721,-56.336
1747510116.10,0.007,-0.075,-0.057,-0.440,0.001,0.011,0.597,-0.689,-56.326
1747510116.12,0.005,-0.072,-0.051,-0.442,-0.001,0.013,0.095,-0.695,-56.317
1747510116.14,-0.004,-0.075,-0.047,-0.444,0.003,0.011,-0.410,-0.690,-56.309
1747510116.16,-0.005,-0.077,-0.044,-0.444,0.010,0.009,-0.917,-0.690,-56.304
1747510116.18,-0.002,-0.073,-0.047,-0.446,0.007,0.010,-1.425,-0.680,-56.299
1747510116.20,0.005,-0.076,-0.052,-0.435,-0.009,0.008,-1.929,-0.678,-56.295
1747510116.22,0.006,-0.080,-0.049,-0.421,-0.039,0.015,-2.419,-0.704,-56.286
1747510116.24,-0.002,-0.074,-0.040,-0.426,-0.027,0.013,-2.901,-0.751,-56.276
1747510116.26,-0.001,-0.073,-0.052,-0.418,-0.036,0.010,-3.385,-0.784,-56.268
1747510116.28,-0.001,-0.080,-0.034,-0.424,0.007,0.010,-3.872,-0.796,-56.261
1747510116.30,-0.000,-0.070,-0.044,-0.425,0.003,0.010,-4.359,-0.795,-56.256
1747510116.32,0.006,-0.078,-0.048,-0.416,-0.017,0.014,-4.842,-0.793,-56.248
1747510116.34,-0.000,-0.071,-0.032,-0.412,-0.012,0.012,-5.316,-0.804,-56.240
1747510116.36,-0.008,-0.072,-0.040,-0.413,0.004,0.011,-5.789,-0.806,-56.233
1747510116.38,0.003,-0.073,-0.033,-0.410,0.024,0.011,-6.258,-0.791,-56.228
1747510116.40,0.007,-0.069,-0.034,-0.412,0.046,0.014,-6.728,-0.749,-56.221
1747510116.42,-0.002,-0.071,-0.043,-0.403,0.043,0.008,-7.194,-0.700,-56.213
1747510116.44,0.001,-0.068,-0.031,-0.406,0.057,0.011,-7.655,-0.639,-56.205
1747510116.46,0.001,-0.066,-0.048,-0.374,-0.002,0.012,-8.100,-0.605,-56.197
1747510116.48,-0.002,-0.068,-0.037,-0.363,-0.029,0.011,-8.519,-0.617,-56.189
1747510116.50,0.005,-0.067,-0.034,-0.356,-0.005,0.013,-8.924,-0.642,-56.179
1747510116.52,-0.002,-0.064,-0.041,-0.348,0.000,0.013,-9.324,-0.644,-56.170
1747510116.54,-0.005,-0.065,-0.033,-0.350,0.035,0.009,-9.720,-0.633,-56.162
1747510116.56,0.004,-0.066,-0.044,-0.346,0.028,0.010,-10.117,-0.596,-56.156
1747510116.58,0.004,-0.064,-0.035,-0.342,0.030,0.011,-10.509,-0.561,-56.149
1747510116.60,-0.002,-0.067,-0.044,-0.324,0.010,0.009,-10.888,-0.536,-56.141
1747510116.62,-0.006,-0.064,-0.040,-0.311,-0.001,0.007,-11.249,-0.532,-56.135
1747510116.64,-0.001,-0.065,-0.038,-0.301,-0.003,0.008,-11.598,-0.537,-56.130
1747510116.66,0.008,-0.068,-0.040,-0.298,0.005,0.008,-11.941,-0.536,-56.124
1747510116.68,0.004,-0.067,-0.037,-0.295,0.027,0.009,-12.280,-0.517,-56.116
1747510116.70,-0.006,-0.070,-0.040,-0.284,0.022,0.009,-12.613,-0.485,-56.110
1747510116.72,-0.002,-0.070,-0.046,-0.266,0.011,0.008,-12.927,-0.462,-56.101
1747510116.74,0.003,-0.067,-0.053,-0.258,0.002,0.009,-13.224,-0.465,-56.093
1747510116.76,0.003,-0.073,-0.037,-0.249,0.014,0.009,-13.513,-0.440,-56.085
1747510116.78,-0.002,-0.078,-0.051,-0.237,0.005,0.006,-13.789,-0.426,-56.077
1747510116.80,-0.001,-0.072,-0.050,-0.226,0.011,0.007,-14.050,-0.430,-56.070
1747510116.82,-0.003,-0.074,-0.042,-0.219,0.002,0.005,-14.302,-0.412,-56.067
1747510116.84,0.003,-0.080,-0.041,-0.198,-0.004,0.004,-14.526,-0.397,-56.061
1747510116.86,0.002,-0.075,-0.049,-0.182,-0.005,0.007,-14.729,-0.396,-56.055
1747510116.88,-0.002,-0.072,-0.035,-0.160,-0.018,0.006,-14.909,-0.407,-56.048
1747510116.90,-0.004,-0.079,-0.039,-0.154,0.009,0.004,-15.074,-0.409,-56.043
1747510116.92,-0.002,-0.077,-0.060,-0.141,0.015,0.007,-15.223,-0.420,-56.040
1747510116.94,0.005,-0.072,-0.042,-0.124,0.016,0.005,-15.361,-0.396,-56.037
1747510116.96,0.002,-0.071,-0.030,-0.101,0.007,0.006,-15.473,-0.378,-56.031
1747510116.98,-0.002,-0.079,-0.056,-0.078,-0.001,0.008,-15.559,-0.374,-56.026
1747510117.00,-0.001,-0.073,-0.029,-0.061,0.017,0.005,-15.622,-0.362,-56.020
1747510117.02,0.006,-0.064,-0.032,-0.041,0.014,0.005,-15.664,-0.341,-56.012
1747510117.04,-0.009,-0.068,-0.040,-0.018,0.002,0.005,-15.680,-0.329,-56.006
1747510117.06,-0.005,-0.069,-0.037,0.005,-0.003,0.001,-15.669,-0.332,-56.004
1747510117.08,0.008,-0.062,-0.025,0.026,-0.001,0.002,-15.632,-0.337,-56.001
1747510117.10,0.009,-0.055,-0.023,0.047,0.006,0.004,-15.572,-0.327,-55.995
1747510117.12,-0.007,-0.059,-0.024,0.072,0.004,0.004,-15.484,-0.316,-55.991
1747510117.14,-0.008,-0.048,-0.014,0.095,0.001,0.001,-15.363,-0.323,-55.987
1747510117.16,0.010,-0.042,-0.019,0.118,-0.001,0.002,-15.215,-0.320,-55.984
1747510117.18,0.001,-0.043,-0.011,0.138,0.015,0.005,-15.041,-0.311,-55.978
1747510117.20,-0.004,-0.041,-0.011,0.162,-0.000,0.002,-14.844,-0.302,-55.976
1747510117.22,0.001,-0.031,-0.001,0.190,-0.013,0.002,-14.622,-0.311,-55.975
1747510117.24,0.004,-0.019,0.012,0.208,0.004,0.001,-14.379,-0.313,-55.971
1747510117.26,-0.001,-0.022,-0.001,0.237,-0.020,0.001,-14.108,-0.328,-55.967
1747510117.28,0.001,-0.013,0.008,0.259,-0.030,0.001,-13.815,-0.351,-55.966
1747510117.30,0.005,-0.006,0.018,0.273,-0.027,-0.003,-13.502,-0.390,-55.965
1747510117.32,0.005,-0.002,0.019,0.289,-0.020,-0.004,-13.183,-0.413,-55.963
1747510117.34,0.001,0.000,0.029,0.301,0.006,-0.003,-12.845,-0.428,-55.961
1747510117.36,0.001,0.004,0.022,0.319,-0.013,-0.001,-12.493,-0.430,-55.960
1747510117.38,0.001,0.022,0.044,0.330,0.011,0.002,-12.122,-0.431,-55.957
1747510117.40,0.004,0.020,0.032,0.348,0.003,-0.000,-11.738,-0.413,-55.955
1747510117.42,-0.000,0.024,0.035,0.362,-0.021,-0.006,-11.332,-0.424,-55.952
1747510117.44,0.004,0.032,0.047,0.371,-0.011,-0.005,-10.913,-0.448,-55.953
1747510117.46,0.012,0.033,0.034,0.381,0.013,-0.001,-10.487,-0.426,-55.951
1747510117.47,0.000,0.042,0.048,0.390,-0.004,-0.002,-10.045,-0.425,-55.948
1747510117.49,-0.003,0.043,0.056,0.400,-0.001,-0.003,-9.588,-0.440,-55.947
1747510117.51,0.007,0.049,0.057,0.400,0.032,0.000,-9.129,-0.422,-55.944
1747510117.53,0.006,0.054,0.050,0.415,0.014,-0.002,-8.665,-0.391,-55.940
1747510117.55,-0.007,0.061,0.051,0.425,-0.021,-0.002,-8.184,-0.395,-55.938
1747510117.57,0.009,0.068,0.052,0.437,-0.037,-0.004,-7.693,-0.427,-55.937
1747510117.59,0.012,0.066,0.059,0.436,-0.023,-0.000,-7.194,-0.464,-55.936
1747510117.61,-0.002,0.071,0.047,0.442,-0.050,-0.003,-6.691,-0.524,-55.935
1747510117.63,0.001,0.078,0.067,0.440,0.003,-0.002,-6.187,-0.543,-55.933
1747510117.65,0.010,0.080,0.055,0.448,0.004,-0.002,-5.682,-0.536,-55.931
1747510117.67,0.002,0.080,0.056,0.444,0.014,-0.000,-5.176,-0.522,-55.926
1747510117.69,0.000,0.091,0.054,0.440,0.035,-0.001,-4.669,-0.492,-55.924
1747510117.71,0.005,0.086,0.047,0.445,0.032,-0.001,-4.163,-0.453,-55.923
1747510117.73,0.008,0.093,0.040,0.452,0.013,0.002,-3.651,-0.427,-55.920
1747510117.75,0.003,0.099,0.042,0.451,-0.013,-0.001,-3.135,-0.427,-55.917
1747510117.77,0.002,0.098,0.042,0.452,-0.007,-0.002,-2.618,-0.439,-55.915
1747510117.79,0.007,0.103,0.038,0.454,-0.007,-0.000,-2.100,-0.446,-55.912
1747510117.81,0.004,0.104,0.035,0.450,-0.000,-0.001,-1.584,-0.452,-55.909
1747510117.83,0.004,0.105,0.031,0.449,0.006,0.002,-1.070,-0.450,-55.904
1747510117.85,0.007,0.107,0.030,0.448,0.011,0.002,-0.560,-0.440,-55.900
1747510117.87,0.009,0.110,0.022,0.443,0.007,0.001,-0.052,-0.428,-55.895
1747510117.89,-0.003,0.109,0.026,0.439,0.000,0.002,0.452,-0.423,-55.890
1747510117.91,0.002,0.114,0.017,0.437,-0.001,0.000,0.956,-0.421,-55.886
1747510117.93,0.006,0.112,0.012,0.444,-0.029,-0.001,1.459,-0.442,-55.882
1747510117.95,0.010,0.110,0.012,0.439,-0.030,-0.000,1.963,-0.479,-55.879
1747510117.97,0.008,0.111,0.012,0.429,-0.015,0.001,2.459,-0.515,-55.874
1747510117.99,-0.008,0.104,0.017,0.417,-0.012,-0.001,2.939,-0.529,-55.868
1747510118.01,0.012,0.110,-0.005,0.418,-0.013,-0.001,3.417,-0.542,-55.866
1747510118.03,0.005,0.104,0.012,0.403,0.013,0.003,3.885,-0.542,-55.860
1747510118.05,0.004,0.110,0.001,0.392,0.023,-0.001,4.340,-0.518,-55.855
1747510118.07,0.006,0.101,-0.006,0.392,0.007,0.001,4.790,-0.498,-55.851
1747510118.09,-0.005,0.107,0.007,0.388,0.013,0.002,5.235,-0.487,-55.846
1747510118.11,0.000,0.105,-0.003,0.381,0.007,0.001,5.676,-0.478,-55.841
1747510118.13,0.013,0.097,-0.011,0.375,-0.012,-0.000,6.107,-0.483,-55.837
1747510118.15,0.008,0.102,-0.003,0.362,-0.011,0.001,6.528,-0.503,-55.833
1747510118.17,0.001,0.100,-0.009,0.352,-0.009,0.000,6.934,-0.514,-55.827
1747510118.19,0.003,0.097,-0.010,0.342,-0.011,-0.000,7.330,-0.521,-55.823
1747510118.21,0.002,0.093,-0.002,0.330,-0.009,0.001,7.715,-0.532,-55.818
1747510118.23,-0.001,0.099,-0.002,0.318,-0.009,0.000,8.084,-0.542,-55.813
1747510118.25,0.003,0.095,-0.018,0.305,-0.013,-0.001,8.441,-0.556,-55.809
1747510118.27,0.011,0.087,-0.011,0.292,-0.012,0.002,8.783,-0.572,-55.805
1747510118.29,0.013,0.090,-0.007,0.279,-0.005,0.003,9.110,-0.582,-55.799
1747510118.31,-0.006,0.089,-0.011,0.267,-0.004,0.002,9.421,-0.587,-55.793
1747510118.33,-0.003,0.083,-0.016,0.251,0.000,-0.001,9.717,-0.586,-55.789
1747510118.35,0.011,0.090,-0.013,0.239,-0.010,0.002,9.998,-0.593,-55.785
1747510118.37,0.004,0.077,-0.023,0.221,-0.013,0.002,10.262,-0.606,-55.780
1747510118.39,0.007,0.079,-0.019,0.203,-0.016,0.006,10.505,-0.621,-55.776
1747510118.41,0.000,0.082,-0.022,0.187,-0.016,0.001,10.684,-0.642,-55.771
1747510118.43,-0.008,0.072,-0.017,0.172,-0.016,0.002,10.836,-0.654,-55.768
1747510118.45,0.017,0.070,-0.027,0.152,-0.014,0.004,10.970,-0.666,-55.765
1747510118.47,0.015,0.066,-0.031,0.141,-0.011,0.005,11.090,-0.679,-55.759
1747510118.49,-0.014,0.065,-0.018,0.121,-0.017,-0.001,11.190,-0.688,-55.754
1747510118.51,-0.003,0.059,-0.030,0.091,-0.003,-0.001,11.277,-0.708,-55.751
1747510118.53,0.012,0.053,-0.031,0.083,0.008,0.002,11.349,-0.718,-55.751
1747510118.55,0.005,0.046,-0.043,0.057,-0.010,0.005,11.402,-0.714,-55.748
1747510118.57,0.005,0.046,-0.033,0.039,-0.016,0.001,11.436,-0.722,-55.743
1747510118.59,0.005,0.040,-0.034,0.015,0.004,0.006,11.451,-0.735,-55.737
1747510118.61,-0.006,0.032,-0.043,-0.005,0.003,0.003,11.444,-0.729,-55.732
1747510118.63,-0.001,0.033,-0.041,-0.026,0.000,0.001,11.419,-0.725,-55.731
1747510118.65,0.007,0.028,-0.048,-0.046,-0.002,0.002,11.371,-0.726,-55.728
1747510118.67,0.006,0.016,-0.055,-0.064,-0.004,0.006,11.303,-0.728,-55.725
1747510118.69,0.003,0.012,-0.034,-0.086,-0.009,0.004,11.212,-0.735,-55.720
1747510118.71,0.000,0.004,-0.074,-0.103,-0.013,0.002,11.099,-0.736,-55.719
1747510118.73,-0.006,0.011,-0.030,-0.124,-0.006,0.002,10.965,-0.740,-55.715
1747510118.75,0.000,-0.013,-0.069,-0.145,-0.013,0.007,10.812,-0.754,-55.714
1747510118.77,0.014,-0.009,-0.069,-0.160,-0.017,0.006,10.637,-0.773,-55.711
1747510118.79,0.001,-0.007,-0.045,-0.178,-0.027,0.004,10.439,-0.774,-55.707
1747510118.81,-0.002,-0.019,-0.040,-0.201,-0.010,0.005,10.216,-0.770,-55.705
1747510118.83,-0.005,-0.002,-0.056,-0.216,-0.017,0.002,9.978,-0.781,-55.704
1747510118.85,0.004,-0.035,-0.071,-0.236,-0.004,0.004,9.720,-0.795,-55.704
1747510118.87,0.005,-0.023,-0.059,-0.255,0.010,0.009,9.440,-0.795,-55.699
1747510118.89,0.001,-0.035,-0.071,-0.265,-0.012,0.003,9.141,-0.797,-55.696
1747510118.91,-0.004,-0.034,-0.065,-0.286,-0.003,0.006,8.824,-0.797,-55.693
1747510118.93,-0.010,-0.035,-0.055,-0.312,0.013,0.002,8.484,-0.789,-55.692
1747510118.95,0.012,-0.054,-0.069,-0.325,0.026,0.007,8.122,-0.766,-55.693
1747510118.97,0.015,-0.039,-0.060,-0.336,0.018,0.008,7.746,-0.744,-55.692
1747510118.99,-0.003,-0.054,-0.069,-0.351,0.014,0.007,7.355,-0.727,-55.688
1747510119.01,-0.015,-0.054,-0.075,-0.364,-0.008,0.006,6.948,-0.723,-55.684
1747510119.03,-0.006,-0.055,-0.061,-0.366,-0.043,0.007,6.531,-0.749,-55.683
1747510119.05,0.013,-0.062,-0.059,-0.385,-0.012,0.011,6.101,-0.785,-55.681
1747510119.07,-0.005,-0.065,-0.036,-0.399,-0.010,0.011,5.636,-0.743,-55.676
1747510119.09,-0.000,-0.074,-0.059,-0.408,0.002,0.010,5.172,-0.740,-55.671
1747510119.11,0.002,-0.060,-0.064,-0.424,0.006,0.007,4.693,-0.729,-55.667
1747510119.13,-0.003,-0.072,-0.058,-0.433,0.009,0.009,4.202,-0.720,-55.665
1747510119.15,-0.005,-0.078,-0.060,-0.442,0.011,0.008,3.702,-0.706,-55.662
1747510119.17,-0.001,-0.075,-0.062,-0.444,0.001,0.008,3.196,-0.698,-55.659
1747510119.19,0.008,-0.080,-0.063,-0.448,-0.004,0.013,2.687,-0.705,-55.654
1747510119.21,0.002,-0.081,-0.061,-0.458,-0.006,0.011,2.170,-0.709,-55.647
1747510119.23,-0.005,-0.080,-0.054,-0.466,0.005,0.010,1.642,-0.711,-55.642
1747510119.25,-0.005,-0.079,-0.059,-0.472,0.007,0.007,1.106,-0.701,-55.639
1747510119.27,-0.000,-0.086,-0.052,-0.477,0.024,0.009,0.565,-0.680,-55.634
1747510119.29,0.002,-0.083,-0.063,-0.479,0.008,0.009,0.020,-0.665,-55.629
1747510119.31,0.001,-0.088,-0.058,-0.475,-0.002,0.014,-0.525,-0.663,-55.623
1747510119.33,-0.002,-0.084,-0.045,-0.482,0.014,0.011,-1.071,-0.662,-55.618
1747510119.35,-0.005,-0.088,-0.059,-0.478,0.006,0.010,-1.618,-0.656,-55.613
1747510119.37,-0.004,-0.085,-0.046,-0.477,0.002,0.012,-2.162,-0.653,-55.607
1747510119.39,0.002,-0.086,-0.049,-0.479,0.011,0.012,-2.707,-0.646,-55.602
1747510119.41,0.006,-0.086,-0.058,-0.472,0.006,0.010,-3.250,-0.634,-55.595
1747510119.43,-0.003,-0.085,-0.042,-0.468,0.004,0.011,-3.789,-0.628,-55.588
1747510119.45,-0.003,-0.086,-0.054,-0.469,0.003,0.011,-4.325,-0.625,-55.582
1747510119.47,-0.001,-0.084,-0.047,-0.460,0.004,0.011,-4.855,-0.621,-55.575
1747510119.49,0.001,-0.086,-0.038,-0.457,0.012,0.010,-5.379,-0.613,-55.568
1747510119.51,0.001,-0.087,-0.044,-0.450,0.014,0.012,-5.897,-0.598,-55.563
1747510119.53,-0.001,-0.084,-0.042,-0.444,0.025,0.011,-6.410,-0.578,-55.557
1747510119.55,0.004,-0.085,-0.045,-0.436,0.025,0.012,-6.910,-0.555,-55.549
1747510119.57,-0.002,-0.085,-0.036,-0.420,0.045,0.011,-7.401,-0.522,-55.542
1747510119.59,0.262,-0.391,-0.068,-0.373,0.289,0.437,-7.826,-0.225,-55.356
1747510119.61,0.018,-0.154,0.006,-0.487,-0.351,0.719,-8.346,-0.372,-54.658
1747510119.63,-0.139,0.147,-0.043,-0.416,-0.065,0.299,-8.828,-0.322,-54.034
1747510119.65,-0.111,0.032,-0.040,-0.394,0.026,0.009,-9.284,-0.300,-53.944
1747510119.67,-0.054,-0.105,-0.051,-0.376,0.048,-0.035,-9.724,-0.266,-53.930
1747510119.69,-0.354,-0.168,-0.035,-0.355,0.028,-0.867,-10.140,-0.321,-54.451
1747510119.71,0.112,-0.001,-0.028,-0.324,0.130,-1.038,-10.519,-0.465,-55.691
1747510119.73,0.270,-0.120,-0.040,-0.314,0.184,-0.221,-10.876,-0.424,-56.451
1747510119.75,0.123,-0.066,-0.028,-0.336,-0.032,0.239,-11.242,-0.268,-56.379
1747510119.77,0.066,-0.053,-0.037,-0.330,-0.074,0.354,-11.642,-0.351,-56.025
1747510119.79,-0.054,-0.027,-0.039,-0.332,-0.064,0.090,-12.023,-0.366,-55.747
1747510119.81,-0.051,-0.020,-0.036,-0.316,-0.033,-0.125,-12.387,-0.417,-55.787
1747510119.83,-0.027,-0.074,-0.042,-0.325,-0.041,-0.100,-12.748,-0.501,-55.955
1747510119.85,-0.006,-0.070,-0.042,-0.329,-0.024,-0.061,-13.119,-0.561,-56.044
1747510119.87,0.043,-0.020,-0.042,-0.336,-0.019,-0.079,-13.503,-0.607,-56.139
1747510119.89,-0.034,-0.091,-0.037,-0.321,-0.054,-0.102,-13.878,-0.676,-56.249
1747510119.91,0.010,-0.038,-0.046,-0.327,-0.101,-0.154,-14.249,-0.801,-56.412
1747510119.93,-0.010,-0.087,-0.059,-0.330,-0.226,-0.124,-14.619,-1.035,-56.573
1747510119.95,-0.002,-0.080,-0.052,-0.313,-0.300,-0.087,-14.989,-1.387,-56.700
1747510119.97,-0.009,-0.089,-0.065,-0.284,-0.421,-0.051,-15.328,-1.827,-56.800
1747510119.99,0.004,-0.059,-0.024,-0.263,-0.353,-0.086,-15.643,-2.306,-56.883
1747510120.01,0.011,-0.057,-0.025,-0.247,-0.307,-0.116,-15.921,-2.704,-57.022
1747510120.03,0.003,-0.050,-0.041,-0.221,-0.321,-0.119,-16.191,-3.090,-57.176
1747510120.05,0.010,-0.076,-0.120,-0.185,-0.578,-0.057,-16.431,-3.653,-57.300
1747510120.07,0.024,-0.086,-0.126,0.003,-0.701,-0.008,-16.570,-4.423,-57.359
1747510120.09,-0.016,-0.007,-0.041,0.205,-0.544,-0.011,-16.405,-5.107,-57.335
1747510120.11,-0.094,0.028,0.010,0.085,-0.591,-0.218,-16.219,-5.755,-57.439
1747510120.13,0.026,-0.010,-0.106,0.217,-0.649,-0.192,-16.057,-6.556,-57.692
1747510120.15,0.085,-0.083,-0.120,0.520,-0.594,0.080,-15.617,-7.241,-57.732
1747510120.17,0.074,-0.084,-0.046,0.556,-0.739,0.292,-15.005,-7.915,-57.368
1747510120.19,-0.016,-0.013,-0.153,0.668,-1.129,0.624,-14.402,-8.815,-56.739
1747510120.21,-0.072,0.058,-0.160,0.901,-1.242,0.447,-13.670,-10.035,-55.913
1747510120.23,-0.159,0.209,-0.184,1.439,-0.631,-0.156,-12.365,-11.068,-55.466
1747510120.25,-0.221,0.022,-0.186,1.158,-0.185,-0.610,-10.746,-11.516,-55.678
1747510120.27,0.240,-0.795,-0.426,1.201,-0.660,-0.166,-9.298,-11.999,-55.917
1747510120.29,0.048,0.441,-1.020,2.746,-1.037,1.067,-7.115,-12.878,-54.910
1747510120.31,-0.035,-0.109,0.239,1.840,-0.747,-0.016,-4.321,-13.763,-53.589
1747510120.33,-0.075,0.151,-0.048,0.643,-0.410,0.335,-3.166,-14.237,-53.137
1747510120.35,-0.276,0.212,-0.278,1.211,-0.296,0.042,-2.337,-14.632,-52.692
1747510120.37,0.077,0.192,-0.366,2.125,-0.747,0.691,-0.481,-15.164,-51.842
1747510120.39,-0.036,0.107,-0.236,1.991,-1.236,1.211,1.505,-16.433,-50.077
1747510120.41,-0.224,0.387,-0.006,1.614,-0.430,0.527,3.163,-17.565,-48.445
1747510120.43,-0.232,0.287,0.003,1.108,0.064,-0.015,4.597,-17.709,-47.786
1747510120.45,-0.067,0.084,-0.127,0.657,-0.336,0.527,5.492,-17.832,-47.269
1747510120.46,-0.014,0.023,-0.211,0.311,-1.025,1.104,5.678,-18.802,-46.160
1747510120.48,-0.144,0.200,-0.229,0.766,-0.758,0.686,5.805,-20.016,-44.928
1747510120.50,-0.219,0.271,-0.182,1.199,-0.300,0.007,6.835,-20.616,-44.182
1747510120.52,-0.113,0.091,-0.074,0.905,-0.486,0.129,7.968,-21.066,-43.728
1747510120.54,-0.022,0.094,-0.173,0.989,-0.950,0.432,8.793,-22.001,-43.028
1747510120.56,0.013,0.112,-0.165,1.207,-0.931,0.511,9.769,-23.299,-41.977
1747510120.58,-0.169,0.120,-0.000,0.857,-0.733,0.077,10.740,-24.371,-41.166
1747510120.60,-0.024,0.124,0.005,0.517,-0.968,0.063,11.424,-25.390,-40.808
1747510120.62,0.031,0.087,-0.005,0.379,-1.244,0.214,11.785,-26.758,-40.437
1747510120.64,0.042,0.086,-0.042,0.447,-1.104,0.126,12.089,-28.278,-40.004
1747510120.66,-0.082,0.127,0.067,0.227,-0.478,-0.381,12.535,-29.167,-39.911
1747510120.68,-0.006,0.099,0.042,-0.015,-0.730,-0.546,12.894,-29.693,-40.399
1747510120.70,0.103,0.041,0.005,0.138,-0.961,-0.397,13.197,-30.600,-40.835
1747510120.72,0.153,0.070,0.028,0.138,-0.887,-0.310,13.569,-31.621,-41.097
1747510120.74,0.113,0.114,0.176,-0.237,-0.663,-0.523,13.778,-32.415,-41.484
1747510120.76,0.064,0.122,0.207,-0.637,-0.468,-0.853,13.777,-32.829,-42.485
1747510120.78,0.196,0.106,0.110,-0.656,-0.172,-0.832,13.677,-32.898,-43.767
1747510120.80,0.202,0.095,0.109,-0.814,0.020,-0.738,13.480,-32.680,-44.995
1747510120.82,0.151,0.085,0.124,-0.978,-0.265,-0.816,13.053,-32.489,-46.332
1747510120.84,0.198,0.157,0.176,-0.847,-0.092,-0.883,12.710,-32.426,-47.758
1747510120.86,0.233,0.068,0.106,-0.923,-0.078,-0.831,12.386,-32.085,-49.200
1747510120.88,0.397,-0.119,-0.055,-0.661,0.174,-0.435,11.982,-31.784,-50.331
1747510120.90,0.384,-0.115,-0.052,-0.104,0.771,0.049,11.733,-31.150,-50.787
1747510120.92,0.294,-0.120,0.195,-0.318,1.693,0.561,11.409,-29.687,-50.580
1747510120.94,0.290,-0.063,0.308,-0.947,2.174,0.804,10.378,-27.563,-50.155
1747510120.96,0.050,0.084,0.399,-1.688,2.518,0.279,8.756,-24.880,-50.227
1747510120.98,0.047,0.125,0.452,-2.814,2.415,-0.409,6.358,-21.745,-51.470
1747510121.00,0.072,-0.011,-0.037,-3.099,1.273,-0.082,3.219,-19.477,-52.940
1747510121.02,0.051,-0.236,-0.246,-2.098,1.500,0.534,0.281,-18.001,-53.771
1747510121.04,-0.074,-0.194,-0.078,-1.270,2.080,1.088,-1.786,-15.967,-53.348
1747510121.06,-0.188,-0.037,0.213,-1.064,2.494,0.837,-3.345,-13.269,-52.596
1747510121.08,-0.195,-0.002,0.072,-0.620,2.337,1.008,-4.537,-10.421,-51.828
1747510121.10,-0.076,-0.067,-0.116,0.334,2.060,1.096,-4.910,-7.822,-50.621
1747510121.12,0.059,-0.027,-0.188,1.060,1.230,0.947,-4.230,-5.797,-49.362
1747510121.14,0.081,0.082,-0.202,1.747,0.895,0.684,-2.724,-4.623,-48.247
1747510121.16,-0.060,0.115,0.035,2.069,0.953,-0.022,-0.516,-3.542,-47.710
1747510121.18,-0.089,0.063,0.094,1.847,0.886,-0.149,1.752,-2.509,-47.737
1747510121.20,-0.183,0.017,0.025,1.622,0.911,0.106,3.717,-1.479,-47.736
1747510121.22,-0.190,0.031,0.009,1.455,1.065,0.236,5.485,-0.346,-47.482
1747510121.24,-0.004,0.071,0.071,1.594,1.246,-0.184,7.219,0.966,-47.429
1747510121.26,0.085,0.090,0.104,1.298,0.877,-0.285,8.918,2.338,-47.805
1747510121.28,-0.007,0.038,0.134,0.515,0.312,-0.124,9.964,3.020,-48.086
1747510121.30,-0.101,0.026,0.019,0.018,-0.003,0.039,10.190,3.193,-48.172
1747510121.32,-0.199,0.034,-0.058,0.354,0.513,0.225,10.352,3.424,-48.036
1747510121.34,-0.056,0.021,0.012,0.785,0.817,0.081,11.085,4.185,-47.818
1747510121.36,-0.009,0.000,0.100,0.522,0.626,-0.357,11.814,5.114,-48.099
1747510121.38,0.024,0.005,0.155,0.305,0.160,-0.290,12.242,5.652,-48.530
1747510121.40,-0.083,0.031,0.081,0.349,0.361,-0.233,12.565,5.982,-48.853
1747510121.42,-0.145,0.013,-0.011,0.485,0.687,-0.189,13.016,6.657,-49.170
1747510121.44,-0.024,0.026,0.007,0.555,0.723,0.123,13.605,7.559,-49.302
1747510121.46,0.075,0.018,0.239,0.924,-0.425,-0.108,14.530,7.634,-49.361
1747510121.48,-0.009,-0.038,0.071,0.804,-0.587,-0.653,15.503,7.027,-49.967
1747510121.50,-0.066,0.020,0.048,0.250,-0.537,-0.612,16.050,6.614,-50.819
1747510121.52,-0.044,-0.007,0.088,-0.310,-0.476,-0.611,15.894,6.210,-51.523
1747510121.54,0.049,0.059,0.033,-0.282,-0.479,-0.587,15.434,5.880,-52.204
1747510121.56,-0.050,0.037,-0.109,0.135,-0.759,-0.461,15.272,5.341,-52.806
1747510121.58,-0.082,-0.016,-0.147,0.417,-0.770,-0.438,15.584,4.562,-53.316
1747510121.60,-0.028,-0.053,-0.063,0.375,-0.495,-0.597,16.001,4.020,-53.989
1747510121.62,-0.005,-0.007,0.001,0.207,-0.576,-0.708,16.292,3.660,-54.789
1747510121.64,-0.003,-0.035,-0.057,0.204,-0.786,-0.691,16.436,3.110,-55.646
1747510121.66,-0.057,0.019,-0.078,0.375,-0.664,-0.741,16.748,2.472,-56.475
1747510121.68,-0.085,0.037,-0.065,0.385,-0.240,-0.788,17.159,2.239,-57.439
1747510121.70,-0.084,-0.018,-0.030,0.239,-0.081,-0.626,17.473,2.338,-58.307
1747510121.72,-0.043,-0.019,-0.048,0.246,-0.150,-0.541,17.705,2.437,-58.996
1747510121.74,-0.055,0.025,-0.034,0.441,-0.328,-0.616,18.064,2.372,-59.695
1747510121.76,-0.052,0.024,-0.037,0.631,-0.433,-0.719,18.640,2.192,-60.528
1747510121.78,-0.092,0.040,-0.070,0.730,-0.169,-0.771,19.410,2.134,-61.451
1747510121.80,-0.097,0.079,0.015,0.739,0.005,-0.770,20.207,2.388,-62.438
1747510121.82,-0.087,0.054,0.059,0.738,-0.160,-0.780,21.017,2.671,-63.413
1747510121.84,-0.070,0.053,0.084,0.534,-0.199,-0.855,21.710,2.846,-64.462
1747510121.86,-0.059,0.024,0.043,0.255,-0.141,-0.760,22.119,3.011,-65.476
1747510121.88,-0.101,0.044,0.033,0.088,0.125,-0.777,22.246,3.343,-66.430
1747510121.90,-0.135,0.076,0.005,0.078,0.410,-0.846,22.267,4.068,-67.437
1747510121.92,-0.104,0.048,-0.100,0.445,0.368,-0.806,22.446,4.925,-68.484
1747510121.94,-0.077,0.073,-0.087,0.914,0.128,-0.848,23.169,5.649,-69.577
1747510121.96,-0.034,0.055,-0.003,0.799,-0.031,-0.851,24.095,6.155,-70.760
1747510121.98,-0.050,0.056,0.098,0.300,0.019,-0.808,24.622,6.603,-71.876
1747510122.00,-0.095,0.061,0.056,0.088,0.078,-0.730,24.694,7.052,-72.846
1747510122.02,-0.112,0.058,-0.056,0.211,0.249,-0.709,24.753,7.633,-73.770
1747510122.04,-0.092,0.032,-0.104,0.413,0.169,-0.669,24.995,8.282,-74.697
1747510122.06,-0.074,0.062,-0.117,0.612,-0.140,-0.645,25.462,8.684,-75.689
1747510122.08,-0.092,0.091,-0.007,0.635,0.106,-0.701,26.085,9.031,-76.664
1747510122.10,-0.070,0.065,0.024,0.476,0.331,-0.656,26.572,9.764,-77.669
1747510122.12,-0.028,0.071,0.095,0.302,0.203,-0.553,26.897,10.439,-78.498
1747510122.14,-0.021,0.058,0.293,0.166,-0.421,-0.737,27.213,10.699,-79.464
1747510122.16,0.012,-0.002,0.040,-0.408,-0.303,-0.713,26.850,10.609,-80.428
1747510122.18,-0.029,0.090,-0.180,0.121,-0.426,-0.693,26.470,10.571,-81.304
1747510122.20,0.028,0.081,-0.092,0.774,-0.566,-0.743,26.900,10.505,-82.388
