Time,AccX,AccY,AccZ,GyroX,GyroY,GyroZ,Pitch,Roll,Yaw
1747675548.64,-0.001,-0.000,-0.015,-0.001,-0.001,-0.004,1.111,0.820,28.894
1747675548.65,-0.002,0.001,-0.014,0.002,0.001,0.001,1.112,0.821,28.893
1747675548.66,-0.002,0.001,-0.015,-0.001,0.001,0.001,1.112,0.822,28.894
1747675548.67,-0.002,0.001,-0.016,-0.001,-0.001,0.002,1.112,0.822,28.895
1747675548.68,-0.001,-0.000,-0.016,0.000,0.001,-0.001,1.111,0.822,28.895
1747675548.69,-0.000,-0.001,-0.015,0.001,0.001,-0.002,1.111,0.822,28.893
1747675548.70,0.000,-0.000,-0.014,-0.001,0.001,-0.001,1.111,0.822,28.893
1747675548.71,0.001,-0.000,-0.015,0.000,-0.000,-0.001,1.111,0.823,28.893
1747675548.72,0.002,0.000,-0.017,0.001,-0.003,-0.002,1.110,0.822,28.893
1747675548.73,0.001,0.000,-0.015,-0.003,0.000,-0.001,1.110,0.821,28.892
1747675548.74,0.001,0.001,-0.015,-0.001,-0.001,-0.002,1.110,0.821,28.891
1747675548.75,0.002,-0.001,-0.016,-0.001,0.000,0.000,1.109,0.821,28.891
1747675548.76,-0.000,-0.002,-0.015,-0.002,-0.001,0.002,1.109,0.821,28.892
1747675548.77,0.000,0.000,-0.015,0.001,-0.001,-0.000,1.109,0.820,28.893
1747675548.78,-0.000,0.000,-0.015,-0.001,0.001,0.002,1.109,0.821,28.893
1747675548.79,-0.000,0.000,-0.015,0.001,-0.000,0.000,1.109,0.820,28.893
1747675548.80,-0.000,0.000,-0.015,0.001,-0.001,0.002,1.110,0.819,28.894
1747675548.81,-0.000,0.000,-0.014,-0.000,-0.003,-0.000,1.112,0.819,28.893
1747675548.82,-0.001,0.000,-0.014,-0.000,-0.001,0.000,1.111,0.819,28.893
1747675548.83,-0.002,-0.001,-0.016,0.000,-0.002,0.001,1.112,0.818,28.894
1747675548.84,-0.002,-0.001,-0.016,0.000,-0.001,0.001,1.112,0.817,28.894
1747675548.85,-0.002,-0.001,-0.016,-0.001,0.004,-0.004,1.112,0.818,28.894
1747675548.86,-0.001,-0.001,-0.016,0.001,0.003,0.000,1.112,0.819,28.893
1747675548.87,-0.000,-0.001,-0.015,-0.000,-0.001,-0.002,1.112,0.820,28.892
1747675548.88,0.000,-0.000,-0.015,0.000,-0.000,0.003,1.112,0.819,28.892
1747675548.89,0.001,0.000,-0.015,0.000,-0.001,-0.003,1.112,0.819,28.892
1747675548.90,0.002,0.001,-0.016,0.001,-0.000,-0.003,1.112,0.819,28.891
1747675548.91,0.000,0.000,-0.016,-0.001,-0.001,0.000,1.112,0.819,28.891
1747675548.92,0.000,0.001,-0.016,-0.001,0.000,-0.002,1.112,0.818,28.891
1747675548.93,0.000,0.001,-0.013,0.001,-0.002,0.000,1.112,0.819,28.891
1747675548.94,0.001,0.001,-0.015,0.001,0.000,0.001,1.112,0.819,28.891
1747675548.95,0.001,0.000,-0.016,-0.001,-0.000,-0.001,1.112,0.818,28.890
1747675548.96,0.001,0.001,-0.016,0.001,0.000,-0.002,1.111,0.818,28.890
1747675548.97,0.001,-0.001,-0.017,-0.001,0.002,0.000,1.111,0.818,28.890
1747675548.98,-0.001,-0.002,-0.015,-0.000,0.001,-0.002,1.111,0.819,28.890
1747675548.99,-0.000,-0.001,-0.016,0.002,0.000,-0.002,1.111,0.820,28.890
1747675549.00,-0.000,-0.002,-0.016,-0.001,0.001,0.000,1.111,0.820,28.889
1747675549.01,-0.000,0.000,-0.015,-0.000,0.002,0.000,1.110,0.820,28.889
1747675549.02,-0.001,0.001,-0.015,0.001,0.002,-0.002,1.110,0.821,28.889
1747675549.03,-0.000,0.001,-0.015,0.001,0.003,-0.001,1.111,0.822,28.888
1747675549.04,-0.001,0.000,-0.016,0.001,0.002,-0.001,1.111,0.822,28.888
1747675549.05,0.000,0.001,-0.014,-0.002,0.001,0.001,1.110,0.822,28.888
1747675549.06,-0.000,0.001,-0.015,-0.000,-0.000,-0.001,1.110,0.822,28.889
1747675549.07,-0.000,0.000,-0.015,0.000,-0.000,-0.001,1.110,0.822,28.888
1747675549.07,-0.001,0.000,-0.015,-0.000,-0.001,0.002,1.111,0.822,28.888
1747675549.08,-0.001,-0.001,-0.015,-0.000,-0.001,0.000,1.111,0.822,28.888
1747675549.10,-0.001,-0.001,-0.016,-0.001,-0.001,0.001,1.111,0.822,28.888
1747675549.10,-0.000,-0.001,-0.016,0.000,-0.001,-0.000,1.109,0.821,28.888
1747675549.12,-0.000,-0.002,-0.016,-0.002,0.000,-0.003,1.109,0.822,28.887
1747675549.12,0.000,-0.003,-0.016,-0.002,0.002,0.000,1.108,0.822,28.887
1747675549.14,0.000,-0.002,-0.016,0.001,0.002,-0.001,1.108,0.823,28.886
1747675549.14,0.001,-0.002,-0.017,-0.000,0.001,-0.000,1.107,0.824,28.886
1747675549.15,0.001,-0.001,-0.015,0.001,0.000,0.001,1.108,0.824,28.886
1747675549.16,0.001,0.000,-0.015,0.000,0.001,-0.001,1.107,0.824,28.885
1747675549.17,0.000,0.001,-0.016,0.002,-0.000,-0.003,1.108,0.824,28.886
1747675549.18,0.000,0.001,-0.014,0.001,-0.000,0.001,1.109,0.824,28.886
1747675549.19,-0.000,0.000,-0.015,-0.000,0.003,-0.001,1.109,0.824,28.886
1747675549.20,-0.000,0.001,-0.015,0.001,-0.000,0.002,1.109,0.825,28.886
1747675549.21,-0.000,0.000,-0.016,0.000,0.000,0.000,1.110,0.824,28.887
1747675549.22,-0.000,0.000,-0.015,0.001,-0.005,0.000,1.109,0.824,28.886
1747675549.23,-0.000,0.000,-0.016,0.002,0.001,0.000,1.110,0.823,28.886
1747675549.24,-0.000,-0.001,-0.016,-0.001,-0.001,-0.001,1.109,0.823,28.886
1747675549.25,-0.001,-0.001,-0.016,-0.001,0.000,-0.001,1.109,0.822,28.886
1747675549.26,-0.002,-0.001,-0.015,0.000,0.000,0.001,1.109,0.823,28.886
1747675549.27,-0.000,-0.002,-0.016,-0.002,0.001,-0.002,1.109,0.823,28.886
1747675549.28,-0.000,-0.002,-0.016,0.003,-0.001,0.003,1.109,0.823,28.886
1747675549.29,-0.001,-0.001,-0.017,-0.002,0.000,-0.001,1.109,0.822,28.887
1747675549.30,-0.001,-0.000,-0.016,-0.000,-0.001,0.001,1.108,0.822,28.887
1747675549.31,-0.000,0.001,-0.016,-0.002,0.000,-0.002,1.108,0.821,28.886
1747675549.32,0.001,0.001,-0.014,-0.001,-0.002,-0.001,1.107,0.821,28.886
1747675549.33,0.001,0.001,-0.013,-0.002,0.001,0.001,1.107,0.821,28.886
1747675549.34,0.001,0.002,-0.016,-0.001,0.000,-0.000,1.107,0.820,28.886
1747675549.35,0.001,0.002,-0.015,-0.002,0.002,0.002,1.107,0.820,28.886
1747675549.36,-0.000,0.000,-0.016,0.001,0.002,-0.001,1.106,0.821,28.887
1747675549.37,-0.000,0.001,-0.015,-0.000,-0.000,-0.001,1.106,0.821,28.886
1747675549.38,-0.000,-0.000,-0.015,-0.001,0.002,0.000,1.107,0.821,28.886
1747675549.39,-0.001,-0.001,-0.016,0.002,0.004,0.000,1.107,0.822,28.886
1747675549.40,-0.002,-0.001,-0.017,-0.001,-0.000,0.000,1.107,0.822,28.886
1747675549.41,-0.002,-0.001,-0.018,-0.003,0.002,0.002,1.106,0.822,28.886
1747675549.42,-0.002,-0.001,-0.018,0.001,0.001,0.003,1.105,0.823,28.887
1747675549.43,-0.003,-0.002,-0.016,0.002,-0.001,0.002,1.105,0.823,28.888
1747675549.44,-0.002,-0.002,-0.017,0.000,-0.001,0.001,1.105,0.823,28.889
1747675549.45,-0.001,-0.001,-0.016,0.001,-0.003,-0.000,1.106,0.822,28.888
1747675549.46,-0.001,0.001,-0.015,-0.000,0.002,-0.002,1.106,0.822,28.888
1747675549.47,0.000,-0.000,-0.015,0.001,-0.002,-0.000,1.106,0.822,28.887
1747675549.48,0.001,0.000,-0.015,0.002,-0.000,-0.002,1.108,0.821,28.886
1747675549.49,0.001,0.001,-0.016,-0.001,-0.000,-0.001,1.107,0.821,28.886
1747675549.50,0.001,0.001,-0.017,-0.002,0.001,-0.003,1.107,0.822,28.885
1747675549.51,0.001,0.001,-0.015,0.002,-0.000,-0.000,1.107,0.822,28.885
1747675549.52,0.002,0.001,-0.015,0.001,-0.001,-0.003,1.108,0.821,28.884
1747675549.53,0.002,-0.001,-0.016,0.000,-0.001,-0.004,1.108,0.821,28.883
1747675549.54,0.001,-0.001,-0.016,-0.001,-0.002,-0.001,1.108,0.820,28.882
1747675549.55,0.002,-0.002,-0.016,-0.000,0.000,-0.000,1.107,0.819,28.882
1747675549.56,0.002,-0.002,-0.015,-0.001,-0.002,0.002,1.106,0.818,28.882
1747675549.57,0.001,-0.001,-0.016,0.002,-0.001,0.001,1.106,0.818,28.881
1747675549.58,0.001,-0.001,-0.015,-0.001,-0.000,0.001,1.106,0.817,28.882
1747675549.59,0.001,-0.002,-0.016,0.001,-0.003,-0.002,1.105,0.817,28.881
1747675549.60,-0.001,-0.001,-0.015,-0.001,0.000,0.001,1.106,0.817,28.881
1747675549.61,-0.002,0.000,-0.015,0.000,-0.000,-0.001,1.106,0.817,28.880
1747675549.62,-0.002,0.001,-0.016,0.002,-0.001,-0.000,1.106,0.817,28.879
1747675549.63,-0.003,0.000,-0.015,-0.000,0.001,0.001,1.107,0.818,28.879
1747675549.64,-0.002,-0.000,-0.014,0.000,0.003,-0.000,1.108,0.818,28.878
1747675549.65,-0.001,0.001,-0.015,-0.001,-0.001,-0.003,1.108,0.819,28.877
1747675549.66,-0.001,0.002,-0.015,0.001,0.001,0.002,1.108,0.819,28.877
1747675549.67,-0.001,0.000,-0.016,0.002,-0.001,0.002,1.109,0.819,28.877
1747675549.68,-0.000,0.001,-0.015,0.003,-0.001,-0.001,1.110,0.818,28.877
1747675549.69,-0.000,0.001,-0.016,0.001,0.000,0.001,1.110,0.818,28.878
1747675549.70,0.000,-0.001,-0.016,-0.001,-0.001,0.001,1.110,0.818,28.879
1747675549.71,-0.000,-0.001,-0.017,0.002,0.000,-0.001,1.110,0.818,28.879
1747675549.72,-0.000,-0.002,-0.017,-0.003,0.003,0.001,1.110,0.818,28.879
1747675549.73,0.001,-0.002,-0.017,-0.002,0.001,-0.002,1.110,0.818,28.879
1747675549.74,0.001,-0.001,-0.017,-0.003,0.001,-0.000,1.109,0.819,28.879
1747675549.75,0.001,-0.001,-0.016,-0.002,-0.001,0.000,1.108,0.818,28.879
1747675549.76,0.002,-0.001,-0.017,0.001,-0.002,0.001,1.107,0.818,28.878
1747675549.77,0.001,-0.000,-0.015,0.003,0.001,0.002,1.108,0.818,28.878
1747675549.78,0.002,-0.000,-0.014,-0.002,0.003,0.002,1.108,0.818,28.879
1747675549.79,0.001,0.000,-0.014,-0.003,0.002,0.000,1.107,0.819,28.879
1747675549.80,0.001,0.001,-0.015,0.001,-0.003,-0.001,1.107,0.818,28.879
1747675549.81,-0.001,0.000,-0.014,-0.001,-0.001,-0.000,1.107,0.817,28.879
1747675549.82,-0.001,0.001,-0.015,0.001,-0.001,0.001,1.107,0.816,28.879
1747675549.83,-0.001,0.001,-0.014,-0.001,-0.002,-0.001,1.108,0.816,28.878
1747675549.84,-0.001,0.000,-0.015,-0.000,-0.001,0.001,1.108,0.816,28.877
1747675549.85,-0.002,-0.000,-0.016,0.002,0.000,0.000,1.109,0.816,28.877
1747675549.86,-0.002,-0.000,-0.017,0.000,0.000,-0.002,1.110,0.815,28.877
1747675549.87,-0.003,-0.001,-0.017,0.000,0.000,-0.003,1.109,0.816,28.877
1747675549.88,-0.001,-0.000,-0.016,0.001,0.002,0.001,1.109,0.816,28.877
1747675549.89,-0.000,-0.002,-0.016,-0.001,0.003,-0.001,1.109,0.816,28.877
1747675549.90,0.000,-0.002,-0.016,0.000,-0.002,-0.000,1.108,0.817,28.877
1747675549.91,0.001,-0.001,-0.016,-0.000,0.003,0.002,1.108,0.817,28.877
1747675549.92,0.001,-0.001,-0.015,-0.001,0.001,0.000,1.107,0.819,28.877
1747675549.93,0.001,0.001,-0.015,0.000,-0.000,0.000,1.107,0.819,28.876
1747675549.94,0.000,0.000,-0.015,0.001,-0.001,-0.001,1.106,0.819,28.876
1747675549.95,0.001,0.001,-0.015,-0.000,0.000,0.001,1.107,0.819,28.877
1747675549.96,0.001,0.001,-0.014,-0.002,-0.001,-0.000,1.107,0.819,28.877
1747675549.97,0.001,0.001,-0.014,0.000,0.000,0.001,1.107,0.819,28.878
1747675549.98,0.002,0.001,-0.015,-0.002,0.001,-0.000,1.106,0.820,28.878
1747675549.99,0.002,0.000,-0.015,0.000,-0.002,-0.001,1.107,0.819,28.877
1747675550.00,0.001,0.000,-0.016,0.002,-0.002,-0.000,1.107,0.817,28.876
1747675550.01,0.001,-0.001,-0.016,0.002,0.000,-0.001,1.108,0.817,28.877
1747675550.02,-0.000,-0.001,-0.015,-0.000,0.000,-0.002,1.109,0.817,28.877
1747675550.03,-0.002,0.001,-0.016,0.001,-0.001,0.000,1.109,0.818,28.876
1747675550.04,-0.001,-0.001,-0.016,0.001,0.000,0.001,1.111,0.818,28.876
1747675550.05,-0.001,-0.002,-0.016,-0.000,0.000,-0.000,1.110,0.818,28.876
1747675550.06,-0.001,-0.001,-0.016,0.002,-0.002,-0.001,1.111,0.819,28.876
1747675550.07,-0.000,-0.000,-0.016,-0.000,-0.000,0.002,1.111,0.818,28.876
1747675550.08,-0.001,-0.000,-0.015,0.000,-0.000,-0.003,1.111,0.819,28.877
1747675550.09,-0.001,-0.000,-0.015,-0.000,-0.001,0.001,1.111,0.818,28.877
1747675550.10,-0.001,-0.001,-0.015,0.000,0.001,0.002,1.111,0.818,28.877
1747675550.11,-0.001,-0.000,-0.015,0.000,-0.001,0.001,1.111,0.818,28.878
1747675550.12,-0.001,0.001,-0.015,-0.001,-0.002,-0.001,1.111,0.818,28.878
1747675550.13,-0.000,-0.000,-0.015,0.000,-0.003,0.002,1.111,0.817,28.878
1747675550.14,0.000,-0.000,-0.015,0.002,0.001,-0.002,1.112,0.816,28.879
1747675550.15,0.001,-0.000,-0.016,0.001,0.001,-0.000,1.112,0.816,28.879
1747675550.16,0.001,-0.001,-0.016,-0.000,0.001,-0.000,1.112,0.817,28.880
1747675550.17,0.000,-0.001,-0.015,0.001,-0.001,-0.000,1.112,0.817,28.879
1747675550.18,0.000,-0.001,-0.017,-0.003,0.000,-0.000,1.112,0.817,28.878
1747675550.19,0.001,-0.001,-0.017,-0.003,0.001,0.000,1.111,0.817,28.878
1747675550.20,0.000,0.000,-0.015,-0.000,-0.002,0.000,1.111,0.817,28.878
1747675550.21,-0.000,-0.000,-0.016,-0.004,-0.001,0.001,1.110,0.817,28.878
1747675550.22,0.000,-0.000,-0.015,0.001,-0.000,-0.000,1.110,0.817,28.878
1747675550.23,0.001,-0.000,-0.015,0.001,0.000,-0.000,1.110,0.817,28.879
1747675550.24,0.000,0.001,-0.016,-0.001,-0.001,0.001,1.110,0.817,28.879
1747675550.25,-0.000,0.000,-0.016,0.001,0.000,0.001,1.110,0.816,28.880
1747675550.26,-0.001,0.001,-0.015,-0.001,-0.001,-0.000,1.111,0.816,28.880
1747675550.27,-0.001,0.001,-0.015,0.001,0.001,0.000,1.111,0.816,28.879
1747675550.28,-0.001,0.001,-0.015,-0.000,0.002,-0.000,1.111,0.817,28.879
1747675550.29,-0.002,0.001,-0.016,0.001,0.001,-0.001,1.110,0.817,28.880
1747675550.30,-0.001,0.000,-0.015,0.001,-0.001,0.001,1.111,0.816,28.880
1747675550.31,-0.001,0.000,-0.015,0.001,0.003,0.001,1.111,0.817,28.881
1747675550.32,-0.000,-0.000,-0.015,0.001,0.003,0.000,1.112,0.818,28.881
1747675550.33,0.001,-0.001,-0.016,0.001,-0.002,0.003,1.112,0.817,28.881
1747675550.34,0.000,-0.001,-0.015,-0.000,0.004,-0.000,1.112,0.818,28.882
1747675550.35,0.000,-0.001,-0.015,0.003,-0.001,-0.002,1.113,0.819,28.882
1747675550.36,0.000,-0.001,-0.016,-0.002,-0.000,-0.000,1.113,0.818,28.882
1747675550.37,0.000,-0.001,-0.016,-0.000,-0.001,0.000,1.113,0.818,28.883
1747675550.38,0.000,-0.000,-0.016,-0.002,-0.000,-0.000,1.113,0.818,28.882
1747675550.39,0.001,-0.000,-0.017,-0.001,0.001,0.000,1.113,0.818,28.881
1747675550.40,0.001,-0.001,-0.016,0.002,0.003,0.002,1.113,0.819,28.882
1747675550.41,0.001,0.000,-0.015,0.002,-0.000,-0.001,1.114,0.819,28.883
1747675550.42,0.000,-0.000,-0.016,0.001,0.000,-0.002,1.114,0.820,28.882
1747675550.43,-0.001,0.001,-0.014,-0.000,0.000,-0.002,1.114,0.820,28.882
1747675550.44,-0.001,0.001,-0.016,0.002,0.001,-0.000,1.115,0.820,28.881
1747675550.45,-0.001,0.000,-0.016,0.001,-0.003,0.001,1.115,0.820,28.881
1747675550.46,-0.001,0.001,-0.016,0.001,0.002,0.002,1.115,0.819,28.881
1747675550.47,-0.000,-0.000,-0.016,0.000,0.000,-0.001,1.116,0.820,28.881
1747675550.48,-0.001,-0.001,-0.016,0.001,0.000,0.002,1.116,0.820,28.881
1747675550.49,-0.000,0.000,-0.015,-0.000,0.002,-0.001,1.116,0.820,28.881
1747675550.50,-0.001,0.000,-0.016,-0.000,0.001,0.000,1.116,0.820,28.881
1747675550.51,-0.000,0.000,-0.015,0.001,0.000,-0.000,1.116,0.822,28.881
1747675550.52,-0.001,-0.000,-0.016,0.001,-0.003,-0.000,1.116,0.821,28.881
1747675550.53,-0.001,-0.001,-0.016,-0.001,0.000,0.003,1.116,0.821,28.882
1747675550.54,0.001,0.000,-0.016,-0.002,-0.003,-0.001,1.115,0.821,28.882
1747675550.55,0.001,-0.001,-0.017,-0.002,-0.001,0.002,1.114,0.820,28.882
1747675550.56,0.001,-0.001,-0.016,0.002,0.002,-0.002,1.114,0.820,28.882
1747675550.58,0.000,-0.001,-0.015,0.001,-0.002,-0.001,1.115,0.820,28.882
1747675550.59,0.000,-0.001,-0.016,-0.002,-0.000,-0.001,1.115,0.820,28.882
1747675550.60,-0.000,-0.001,-0.016,0.000,-0.003,0.001,1.114,0.819,28.881
1747675550.61,-0.000,-0.001,-0.016,0.000,-0.001,0.001,1.114,0.819,28.882
1747675550.62,-0.001,0.000,-0.017,0.001,0.002,-0.000,1.114,0.819,28.882
1747675550.62,-0.000,0.000,-0.016,-0.000,-0.000,0.000,1.114,0.819,28.882
1747675550.64,-0.001,0.000,-0.015,0.001,0.001,-0.000,1.115,0.820,28.882
1747675550.64,-0.000,-0.000,-0.016,-0.002,0.002,-0.000,1.114,0.820,28.882
1747675550.65,-0.000,0.000,-0.016,-0.000,0.001,-0.002,1.114,0.820,28.882
1747675550.66,0.001,0.000,-0.015,-0.002,0.002,-0.000,1.114,0.821,28.880
1747675550.67,0.000,-0.000,-0.015,0.001,0.002,0.001,1.113,0.820,28.880
1747675550.68,-0.000,0.001,-0.016,0.000,0.002,-0.001,1.113,0.821,28.881
1747675550.69,-0.000,-0.000,-0.016,0.002,0.002,0.001,1.113,0.821,28.881
1747675550.70,-0.000,-0.000,-0.015,0.002,-0.001,-0.001,1.113,0.821,28.881
1747675550.71,-0.000,-0.001,-0.015,-0.000,0.000,-0.002,1.114,0.821,28.882
1747675550.72,0.000,-0.000,-0.016,0.001,0.001,-0.001,1.114,0.821,28.882
1747675550.73,0.000,0.000,-0.016,0.001,0.000,0.001,1.115,0.821,28.883
1747675550.74,-0.000,0.000,-0.015,-0.002,0.000,0.000,1.115,0.821,28.883
1747675550.75,0.000,0.000,-0.015,0.000,-0.002,-0.001,1.115,0.821,28.883
1747675550.76,-0.000,0.001,-0.015,-0.001,-0.001,-0.001,1.114,0.820,28.882
1747675550.77,0.000,0.000,-0.016,0.002,-0.003,-0.000,1.115,0.820,28.882
1747675550.78,0.001,-0.000,-0.016,0.001,-0.002,-0.003,1.115,0.819,28.882
1747675550.79,0.001,0.000,-0.016,-0.001,0.003,-0.000,1.115,0.819,28.881
1747675550.80,-0.000,-0.000,-0.017,-0.000,-0.002,0.001,1.115,0.820,28.881
1747675550.81,0.001,0.001,-0.016,0.001,-0.000,0.001,1.115,0.819,28.881
1747675550.82,0.001,-0.001,-0.016,-0.001,-0.000,-0.001,1.115,0.818,28.881
1747675550.83,0.000,-0.001,-0.016,-0.002,0.003,-0.001,1.114,0.819,28.881
1747675550.84,0.001,-0.001,-0.017,-0.000,-0.001,-0.005,1.114,0.819,28.880
1747675550.85,0.001,-0.002,-0.015,-0.002,0.001,-0.001,1.113,0.819,28.879
1747675550.86,-0.000,-0.002,-0.017,-0.003,0.000,0.001,1.111,0.819,28.880
1747675550.87,-0.000,-0.001,-0.016,-0.002,-0.003,0.001,1.111,0.819,28.880
1747675550.88,-0.000,0.000,-0.016,0.000,0.004,-0.001,1.110,0.819,28.880
1747675550.89,-0.001,0.000,-0.016,0.003,0.001,0.001,1.111,0.819,28.880
1747675550.90,0.001,-0.000,-0.015,0.002,-0.000,-0.002,1.111,0.819,28.880
1747675550.91,-0.001,0.001,-0.015,0.002,0.002,-0.002,1.112,0.819,28.880
1747675550.92,-0.001,0.001,-0.015,-0.003,-0.003,-0.001,1.112,0.820,28.879
1747675550.93,-0.000,-0.000,-0.015,0.001,0.000,-0.000,1.112,0.819,28.879
1747675550.94,-0.001,-0.000,-0.017,0.002,0.001,0.001,1.112,0.820,28.879
1747675550.95,-0.001,-0.001,-0.017,0.001,-0.004,0.000,1.113,0.820,28.880
1747675550.96,0.000,-0.001,-0.016,0.001,-0.000,-0.001,1.114,0.819,28.880
1747675550.97,0.001,-0.000,-0.015,0.002,-0.000,0.001,1.115,0.820,28.880
1747675550.98,0.002,-0.001,-0.016,0.000,-0.000,-0.001,1.115,0.819,28.880
1747675550.99,0.001,0.000,-0.015,0.001,-0.002,-0.001,1.116,0.820,28.880
1747675551.00,0.001,-0.000,-0.017,-0.001,-0.001,0.001,1.115,0.819,28.881
1747675551.01,0.001,-0.001,-0.017,0.001,-0.002,0.001,1.115,0.818,28.882
1747675551.02,0.000,-0.000,-0.015,0.000,0.001,0.003,1.115,0.817,28.882
1747675551.03,0.001,-0.001,-0.015,-0.000,-0.001,0.002,1.116,0.817,28.882
1747675551.04,0.001,-0.001,-0.014,-0.001,-0.001,-0.001,1.115,0.817,28.883
1747675551.05,0.000,0.001,-0.016,0.000,-0.000,-0.001,1.115,0.817,28.882
1747675551.06,-0.001,0.000,-0.016,0.000,-0.001,0.000,1.115,0.817,28.882
1747675551.07,-0.000,-0.000,-0.016,0.000,0.001,-0.001,1.115,0.816,28.882
1747675551.08,-0.001,-0.001,-0.015,-0.001,0.000,0.001,1.115,0.817,28.882
1747675551.09,-0.001,-0.000,-0.016,0.002,0.000,0.004,1.115,0.817,28.883
1747675551.10,0.000,0.000,-0.015,0.000,-0.001,0.002,1.116,0.818,28.884
1747675551.11,-0.002,-0.000,-0.016,0.001,-0.001,-0.004,1.116,0.818,28.883
1747675551.12,-0.001,0.001,-0.017,0.001,0.000,0.000,1.116,0.817,28.882
1747675551.13,-0.000,0.001,-0.016,0.001,0.000,0.001,1.116,0.817,28.883
1747675551.14,-0.000,-0.000,-0.016,-0.000,-0.001,-0.001,1.117,0.818,28.883
1747675551.15,0.000,-0.000,-0.015,-0.000,0.000,0.002,1.117,0.818,28.883
1747675551.16,0.000,-0.000,-0.015,0.002,0.001,0.001,1.117,0.819,28.883
1747675551.17,0.001,-0.001,-0.016,0.001,-0.001,0.001,1.117,0.819,28.883
1747675551.18,0.001,-0.000,-0.016,0.000,-0.001,0.002,1.117,0.819,28.884
1747675551.19,-0.000,-0.001,-0.016,-0.001,-0.000,-0.001,1.117,0.819,28.885
1747675551.20,0.001,-0.001,-0.015,0.002,0.001,0.000,1.116,0.818,28.885
1747675551.21,0.001,0.000,-0.015,0.001,0.002,0.002,1.116,0.818,28.885
1747675551.22,0.001,0.000,-0.014,-0.001,0.002,-0.001,1.116,0.819,28.886
1747675551.23,0.001,-0.000,-0.015,0.001,0.000,-0.000,1.117,0.819,28.885
1747675551.24,-0.000,0.001,-0.016,-0.000,0.000,0.001,1.117,0.820,28.886
1747675551.25,-0.001,-0.000,-0.015,-0.000,0.000,-0.003,1.117,0.820,28.885
1747675551.26,-0.001,-0.000,-0.016,-0.001,-0.003,0.000,1.116,0.819,28.885
1747675551.27,-0.001,-0.000,-0.015,-0.001,0.001,0.001,1.116,0.819,28.885
1747675551.28,-0.000,-0.000,-0.016,0.000,-0.001,-0.000,1.116,0.819,28.885
1747675551.29,-0.000,-0.001,-0.016,-0.002,-0.002,0.001,1.116,0.817,28.885
1747675551.30,-0.001,-0.000,-0.016,0.002,-0.001,0.002,1.115,0.816,28.886
1747675551.31,-0.000,0.001,-0.016,0.000,0.001,-0.002,1.115,0.816,28.886
1747675551.32,0.000,-0.001,-0.016,-0.002,0.002,0.001,1.115,0.817,28.886
1747675551.33,-0.001,-0.000,-0.016,0.001,-0.001,-0.000,1.115,0.817,28.886
1747675551.34,-0.000,-0.000,-0.016,0.002,0.003,-0.001,1.114,0.817,28.886
1747675551.35,-0.000,-0.001,-0.015,0.002,0.000,0.002,1.115,0.816,28.886
1747675551.36,-0.001,0.000,-0.015,-0.002,0.000,-0.000,1.116,0.816,28.885
1747675551.37,-0.001,-0.000,-0.015,-0.001,0.001,0.002,1.115,0.817,28.886
1747675551.38,0.000,0.001,-0.016,-0.001,0.001,-0.001,1.115,0.818,28.886
1747675551.39,0.000,0.000,-0.015,0.002,-0.001,-0.001,1.115,0.817,28.885
1747675551.40,0.001,-0.000,-0.015,-0.000,0.001,-0.002,1.115,0.818,28.886
1747675551.41,0.000,-0.000,-0.015,0.001,0.001,0.001,1.115,0.819,28.886
1747675551.42,-0.000,0.000,-0.016,-0.001,-0.003,0.001,1.115,0.818,28.885
1747675551.43,0.001,0.000,-0.016,0.001,0.000,0.000,1.115,0.817,28.885
1747675551.44,0.001,-0.001,-0.016,0.002,0.001,0.002,1.115,0.817,28.886
1747675551.45,0.001,-0.000,-0.016,-0.000,-0.001,-0.002,1.115,0.817,28.886
1747675551.46,0.000,-0.001,-0.016,-0.002,0.000,-0.002,1.115,0.818,28.885
1747675551.47,0.001,-0.000,-0.016,0.001,-0.001,0.000,1.114,0.818,28.885
1747675551.48,0.000,-0.000,-0.015,0.000,-0.002,0.000,1.114,0.818,28.885
1747675551.49,-0.001,-0.000,-0.017,0.000,-0.002,0.000,1.114,0.817,28.885
1747675551.50,-0.000,-0.001,-0.015,-0.001,-0.001,0.000,1.114,0.817,28.885
1747675551.51,-0.001,0.000,-0.016,-0.002,-0.001,-0.001,1.114,0.816,28.884
1747675551.52,-0.001,-0.000,-0.016,-0.000,0.002,-0.003,1.113,0.816,28.884
1747675551.53,-0.001,-0.001,-0.015,-0.001,0.000,0.000,1.113,0.816,28.884
1747675551.54,-0.000,0.001,-0.016,0.002,-0.002,-0.002,1.113,0.815,28.885
1747675551.55,-0.001,0.000,-0.016,0.000,-0.000,-0.000,1.113,0.816,28.884
1747675551.56,-0.000,-0.000,-0.015,0.002,0.002,-0.001,1.114,0.816,28.884
1747675551.57,0.001,0.000,-0.015,0.003,0.001,0.000,1.115,0.816,28.883
1747675551.58,0.000,-0.002,-0.016,-0.000,-0.002,-0.000,1.116,0.816,28.883
1747675551.59,0.000,-0.001,-0.016,0.002,-0.000,-0.001,1.115,0.816,28.883
1747675551.60,0.001,-0.001,-0.016,0.001,0.002,0.001,1.116,0.816,28.883
1747675551.61,-0.001,-0.001,-0.016,0.004,0.000,0.001,1.117,0.816,28.884
1747675551.62,0.001,-0.000,-0.015,-0.001,0.000,-0.000,1.118,0.816,28.884
1747675551.63,0.001,0.000,-0.016,-0.002,-0.001,-0.000,1.117,0.816,28.884
1747675551.64,0.001,0.000,-0.015,-0.001,-0.000,-0.001,1.117,0.815,28.883
1747675551.65,0.000,0.000,-0.016,-0.001,-0.003,-0.001,1.117,0.815,28.883
1747675551.66,-0.001,0.001,-0.016,0.000,0.000,0.000,1.117,0.815,28.882
1747675551.67,-0.001,-0.001,-0.016,0.001,-0.001,-0.001,1.117,0.814,28.883
1747675551.68,-0.000,-0.000,-0.015,-0.001,-0.002,0.001,1.117,0.813,28.883
1747675551.69,0.000,-0.000,-0.016,0.001,-0.005,0.000,1.117,0.812,28.884
1747675551.70,-0.000,-0.000,-0.016,-0.000,-0.002,0.000,1.117,0.812,28.884
1747675551.71,0.001,-0.000,-0.016,-0.000,-0.000,-0.000,1.116,0.812,28.884
1747675551.72,-0.001,-0.001,-0.016,-0.001,-0.002,0.001,1.116,0.812,28.884
1747675551.73,-0.001,0.000,-0.015,-0.001,-0.000,-0.000,1.116,0.812,28.885
1747675551.74,-0.001,-0.000,-0.015,-0.000,0.002,0.001,1.116,0.812,28.885
1747675551.75,-0.001,-0.001,-0.016,-0.001,-0.002,-0.000,1.116,0.812,28.885
1747675551.76,-0.001,-0.001,-0.016,-0.002,0.001,-0.001,1.116,0.812,28.885
1747675551.77,0.001,-0.001,-0.017,0.002,0.000,0.000,1.116,0.812,28.885
1747675551.78,0.001,0.001,-0.016,-0.001,-0.000,0.001,1.116,0.812,28.885
1747675551.79,0.001,0.000,-0.015,0.001,0.000,-0.002,1.116,0.812,28.885
1747675551.80,0.001,-0.000,-0.016,0.000,0.001,-0.001,1.116,0.812,28.884
1747675551.81,0.001,-0.001,-0.015,0.002,0.000,-0.000,1.116,0.812,28.884
1747675551.82,0.001,-0.000,-0.016,0.002,-0.001,0.001,1.116,0.811,28.885
1747675551.83,0.000,-0.000,-0.016,-0.001,-0.000,0.001,1.116,0.811,28.885
1747675551.84,-0.000,-0.000,-0.015,0.000,-0.001,0.002,1.116,0.810,28.885
1747675551.85,-0.000,-0.001,-0.016,0.000,0.001,0.002,1.116,0.809,28.885
1747675551.86,-0.000,0.000,-0.015,0.000,-0.002,0.001,1.116,0.809,28.885
1747675551.87,0.000,0.000,-0.015,0.001,-0.001,-0.002,1.116,0.809,28.885
1747675551.88,-0.000,0.000,-0.016,0.001,-0.000,-0.004,1.117,0.809,28.885
1747675551.89,0.000,-0.000,-0.016,0.000,-0.002,-0.000,1.117,0.809,28.885
1747675551.90,-0.001,-0.000,-0.014,0.002,-0.000,-0.002,1.118,0.808,28.886
1747675551.91,-0.000,-0.000,-0.015,-0.001,0.001,0.002,1.119,0.809,28.886
1747675551.92,-0.000,-0.000,-0.015,0.001,-0.001,0.002,1.119,0.808,28.886
1747675551.93,0.000,0.000,-0.015,0.000,-0.001,-0.002,1.120,0.809,28.886
1747675551.94,0.000,-0.000,-0.016,-0.000,0.000,0.001,1.119,0.809,28.886
1747675551.95,0.000,0.000,-0.016,-0.000,-0.001,-0.002,1.119,0.808,28.886
1747675551.96,0.001,0.001,-0.016,-0.001,0.003,0.001,1.118,0.808,28.886
1747675551.97,0.000,-0.001,-0.016,-0.001,-0.000,0.000,1.118,0.808,28.886
1747675551.98,0.000,-0.001,-0.015,0.000,-0.001,0.001,1.118,0.807,28.886
1747675551.99,0.001,-0.002,-0.015,0.001,-0.001,0.003,1.118,0.807,28.886
1747675552.00,0.001,-0.000,-0.016,-0.001,-0.001,0.001,1.119,0.807,28.887
1747675552.01,0.001,0.001,-0.016,0.000,0.003,-0.001,1.118,0.807,28.887
1747675552.02,0.001,-0.001,-0.016,0.000,0.001,-0.002,1.118,0.808,28.887
1747675552.03,0.001,-0.001,-0.016,0.001,-0.002,0.000,1.119,0.808,28.886
1747675552.04,0.000,-0.000,-0.015,0.002,-0.000,0.001,1.119,0.807,28.886
1747675552.05,0.000,-0.001,-0.015,-0.000,0.000,0.000,1.120,0.806,28.887
1747675552.06,-0.000,-0.000,-0.015,0.001,0.001,0.002,1.120,0.806,28.887
1747675552.07,-0.000,0.002,-0.015,0.002,-0.002,0.001,1.120,0.806,28.888
1747675552.08,-0.000,0.000,-0.015,0.002,-0.001,0.001,1.121,0.806,28.888
1747675552.09,-0.000,-0.000,-0.015,-0.000,-0.000,-0.002,1.121,0.805,28.888
1747675552.09,0.000,0.000,-0.016,0.000,0.002,-0.000,1.121,0.806,28.888
1747675552.10,0.001,-0.001,-0.016,0.000,0.001,0.001,1.120,0.806,28.888
1747675552.11,0.000,0.000,-0.015,-0.001,-0.001,0.002,1.120,0.806,28.888
1747675552.12,0.000,-0.001,-0.015,-0.002,-0.002,0.001,1.119,0.806,28.889
1747675552.13,-0.000,-0.002,-0.014,-0.000,0.001,0.001,1.118,0.805,28.890
1747675552.14,0.000,-0.002,-0.014,-0.002,-0.001,-0.001,1.118,0.805,28.890
1747675552.16,0.000,-0.001,-0.016,0.000,0.000,0.001,1.118,0.805,28.891
1747675552.16,0.000,-0.000,-0.017,0.000,-0.001,-0.001,1.118,0.805,28.891
1747675552.17,0.001,0.000,-0.016,0.001,-0.004,0.000,1.118,0.804,28.890
1747675552.18,0.000,0.000,-0.016,0.000,0.000,0.000,1.119,0.804,28.890
1747675552.19,0.000,0.000,-0.016,-0.001,0.001,0.001,1.119,0.804,28.890
1747675552.20,0.000,0.001,-0.016,-0.001,0.000,0.000,1.118,0.803,28.891
1747675552.21,0.000,-0.000,-0.017,-0.002,-0.003,-0.002,1.118,0.803,28.891
1747675552.22,0.001,-0.001,-0.017,0.001,0.001,-0.001,1.118,0.803,28.890
1747675552.23,0.000,0.000,-0.016,-0.000,-0.002,-0.001,1.119,0.803,28.890
1747675552.24,-0.000,0.000,-0.016,0.001,-0.000,0.001,1.119,0.803,28.890
1747675552.25,-0.000,-0.001,-0.015,0.000,-0.000,0.001,1.119,0.803,28.891
1747675552.26,0.000,-0.000,-0.016,-0.002,0.000,-0.001,1.118,0.804,28.890
1747675552.27,0.001,0.000,-0.017,0.001,0.002,-0.002,1.118,0.804,28.890
1747675552.28,-0.000,0.001,-0.017,0.000,-0.002,-0.001,1.119,0.804,28.889
1747675552.29,-0.000,0.000,-0.016,0.001,0.000,-0.001,1.119,0.802,28.889
1747675552.30,0.000,-0.001,-0.015,0.002,0.004,-0.001,1.119,0.804,28.888
1747675552.31,-0.001,0.001,-0.015,0.001,0.000,0.001,1.120,0.805,28.888
1747675552.32,-0.000,0.001,-0.016,0.002,-0.001,0.000,1.121,0.804,28.888
1747675552.33,0.000,0.000,-0.016,0.002,-0.001,0.000,1.123,0.804,28.888
1747675552.34,-0.000,0.000,-0.015,0.000,0.000,-0.003,1.123,0.803,28.887
1747675552.35,-0.000,0.000,-0.016,0.000,0.003,-0.001,1.124,0.803,28.887
1747675552.36,0.000,0.001,-0.016,0.001,-0.000,0.001,1.124,0.803,28.888
1747675552.37,0.000,0.000,-0.015,-0.002,-0.001,0.002,1.123,0.802,28.889
1747675552.38,-0.000,-0.001,-0.016,0.003,-0.002,0.001,1.123,0.801,28.889
1747675552.39,-0.001,-0.000,-0.017,-0.000,-0.000,0.001,1.124,0.801,28.889
1747675552.40,0.001,-0.001,-0.016,-0.001,0.000,-0.001,1.124,0.801,28.889
1747675552.41,0.001,-0.001,-0.016,-0.002,0.001,-0.001,1.124,0.802,28.889
1747675552.43,0.001,0.001,-0.016,-0.001,0.002,-0.002,1.124,0.802,28.888
1747675552.43,0.000,0.001,-0.015,-0.001,0.000,-0.002,1.123,0.804,28.889
1747675552.44,0.001,-0.001,-0.017,-0.000,0.001,-0.002,1.123,0.803,28.888
1747675552.45,0.001,-0.000,-0.016,0.001,-0.001,-0.000,1.123,0.804,28.888
1747675552.46,-0.000,0.000,-0.015,0.003,0.000,0.001,1.124,0.804,28.888
1747675552.47,0.000,-0.000,-0.016,-0.001,-0.001,-0.001,1.124,0.803,28.888
1747675552.48,-0.001,0.001,-0.016,-0.001,-0.001,-0.001,1.124,0.803,28.888
1747675552.49,-0.001,0.001,-0.015,0.001,-0.001,-0.002,1.124,0.802,28.888
1747675552.50,-0.001,0.000,-0.016,-0.002,-0.001,-0.000,1.124,0.802,28.888
1747675552.51,0.000,-0.000,-0.016,0.002,-0.002,0.000,1.124,0.801,28.888
1747675552.52,0.000,-0.001,-0.016,0.001,0.000,0.002,1.124,0.801,28.887
1747675552.53,-0.000,-0.000,-0.016,-0.001,0.002,-0.001,1.124,0.801,28.887
1747675552.54,0.000,-0.000,-0.015,-0.000,0.002,-0.003,1.123,0.802,28.886
1747675552.55,0.000,-0.000,-0.016,-0.001,0.002,-0.002,1.124,0.803,28.886
1747675552.56,0.000,-0.001,-0.016,0.000,-0.000,-0.000,1.123,0.803,28.885
1747675552.57,0.000,-0.000,-0.015,-0.002,-0.001,-0.000,1.124,0.802,28.885
1747675552.58,0.002,-0.001,-0.017,-0.001,0.000,0.002,1.123,0.802,28.886
1747675552.59,0.002,-0.001,-0.016,-0.002,0.002,0.002,1.123,0.802,28.885
1747675552.60,0.002,0.000,-0.015,0.000,-0.003,-0.001,1.123,0.802,28.885
1747675552.61,0.001,0.001,-0.015,-0.000,0.001,-0.001,1.123,0.802,28.885
1747675552.62,0.001,0.000,-0.015,-0.000,0.003,-0.002,1.124,0.802,28.884
1747675552.63,0.000,-0.000,-0.016,-0.001,0.000,-0.002,1.123,0.802,28.884
1747675552.64,0.000,0.000,-0.017,-0.001,-0.000,-0.001,1.123,0.801,28.884
1747675552.65,0.000,-0.000,-0.016,0.000,0.002,0.002,1.123,0.801,28.885
1747675552.66,-0.001,0.000,-0.016,-0.003,0.002,-0.000,1.122,0.801,28.885
1747675552.67,0.000,0.000,-0.015,-0.000,-0.002,-0.000,1.122,0.801,28.885
1747675552.68,-0.000,-0.000,-0.015,-0.001,0.000,-0.000,1.122,0.801,28.885
1747675552.69,-0.000,-0.000,-0.016,0.001,0.001,0.000,1.123,0.801,28.885
1747675552.70,-0.000,-0.000,-0.016,-0.000,0.000,-0.002,1.123,0.801,28.885
1747675552.71,-0.001,0.000,-0.016,-0.001,0.001,-0.002,1.122,0.801,28.885
1747675552.72,-0.001,0.000,-0.017,0.001,-0.000,0.001,1.123,0.801,28.884
1747675552.73,0.000,0.000,-0.017,0.000,0.002,0.001,1.123,0.802,28.883
1747675552.74,0.001,0.001,-0.016,-0.001,-0.000,-0.001,1.124,0.803,28.883
1747675552.75,0.001,-0.000,-0.015,0.001,-0.000,-0.000,1.123,0.803,28.883
1747675552.76,0.001,0.001,-0.015,-0.001,-0.002,0.001,1.123,0.803,28.883
1747675552.77,0.001,0.000,-0.015,-0.000,-0.001,-0.000,1.123,0.802,28.884
1747675552.78,0.001,0.000,-0.015,0.002,0.003,0.001,1.124,0.802,28.885
1747675552.79,-0.001,-0.000,-0.015,-0.003,-0.002,0.002,1.124,0.802,28.885
1747675552.80,-0.001,0.000,-0.016,-0.000,0.000,-0.000,1.124,0.801,28.886
1747675552.81,-0.001,0.000,-0.016,0.000,0.001,0.001,1.124,0.802,28.886
1747675552.82,0.000,0.001,-0.016,0.000,-0.001,0.001,1.124,0.802,28.887
1747675552.83,0.001,-0.001,-0.015,-0.000,0.002,-0.001,1.125,0.801,28.887
1747675552.84,0.001,0.000,-0.015,0.001,0.001,-0.001,1.125,0.802,28.886
1747675552.85,0.000,0.000,-0.015,0.001,-0.001,-0.002,1.124,0.802,28.886
1747675552.86,0.000,-0.001,-0.017,-0.002,0.001,0.003,1.124,0.802,28.885
1747675552.87,-0.001,-0.001,-0.016,0.001,0.000,0.001,1.124,0.801,28.886
1747675552.88,-0.001,0.000,-0.016,-0.001,0.001,0.000,1.124,0.802,28.886
1747675552.89,-0.000,-0.001,-0.017,0.001,0.001,-0.002,1.124,0.802,28.886
1747675552.90,-0.001,-0.001,-0.015,-0.001,-0.000,-0.002,1.124,0.802,28.885
1747675552.91,-0.001,0.000,-0.016,-0.001,0.002,-0.001,1.125,0.803,28.884
1747675552.92,0.000,-0.000,-0.015,-0.002,0.001,0.001,1.125,0.803,28.885
1747675552.93,0.001,0.000,-0.016,-0.000,0.001,0.000,1.125,0.803,28.885
1747675552.94,0.000,-0.001,-0.015,-0.001,-0.001,0.003,1.125,0.803,28.885
1747675552.95,0.001,0.001,-0.016,-0.000,-0.000,-0.001,1.125,0.803,28.885
1747675552.96,0.001,0.001,-0.015,0.000,-0.000,0.001,1.125,0.804,28.886
1747675552.97,0.001,0.000,-0.015,0.001,-0.001,-0.001,1.124,0.804,28.885
1747675552.98,0.000,0.001,-0.015,0.003,0.000,0.001,1.125,0.803,28.886
1747675552.99,0.001,-0.000,-0.016,0.002,0.002,-0.001,1.126,0.804,28.886
1747675553.00,0.001,-0.000,-0.017,-0.001,-0.000,-0.000,1.126,0.805,28.886
1747675553.01,0.001,-0.000,-0.016,0.001,0.004,0.001,1.126,0.806,28.885
1747675553.02,0.001,0.000,-0.014,0.001,-0.001,0.001,1.127,0.807,28.886
1747675553.03,0.000,0.000,-0.016,0.001,-0.001,0.001,1.126,0.806,28.886
1747675553.04,-0.000,-0.000,-0.017,0.000,-0.002,-0.001,1.127,0.806,28.886
1747675553.05,-0.001,-0.000,-0.017,0.001,0.001,-0.001,1.127,0.806,28.886
1747675553.06,-0.001,0.000,-0.016,0.002,0.001,0.001,1.127,0.806,28.885
1747675553.07,0.000,-0.000,-0.015,-0.001,-0.001,-0.000,1.127,0.806,28.884
1747675553.08,-0.001,0.000,-0.014,0.001,0.002,0.002,1.127,0.806,28.884
1747675553.09,-0.002,-0.000,-0.015,-0.001,0.000,-0.001,1.126,0.806,28.885
1747675553.10,-0.001,0.000,-0.016,-0.001,-0.001,-0.002,1.126,0.806,28.884
1747675553.11,-0.000,0.000,-0.015,-0.000,-0.000,-0.002,1.126,0.806,28.884
1747675553.12,-0.001,0.000,-0.015,0.000,0.000,0.001,1.126,0.807,28.883
1747675553.13,-0.001,0.001,-0.015,0.000,0.004,0.001,1.126,0.807,28.884
1747675553.14,-0.001,-0.000,-0.017,0.002,-0.000,0.002,1.127,0.807,28.884
1747675553.15,0.001,0.000,-0.017,0.000,0.001,0.001,1.127,0.807,28.884
1747675553.16,0.001,0.000,-0.016,0.001,0.001,-0.000,1.127,0.806,28.884
1747675553.17,0.001,-0.001,-0.016,0.000,0.001,-0.002,1.128,0.806,28.884
1747675553.18,0.002,-0.000,-0.017,-0.001,0.001,0.000,1.128,0.807,28.884
1747675553.19,0.001,0.001,-0.016,-0.000,0.001,0.001,1.128,0.807,28.884
1747675553.20,0.001,0.000,-0.016,0.001,0.002,0.000,1.128,0.808,28.884
1747675553.21,0.000,0.001,-0.016,-0.000,-0.000,0.001,1.127,0.808,28.884
1747675553.22,-0.001,0.001,-0.015,-0.000,0.000,-0.002,1.128,0.808,28.884
1747675553.23,-0.001,-0.000,-0.016,-0.000,0.001,-0.002,1.128,0.808,28.883
1747675553.24,-0.001,-0.001,-0.016,-0.000,-0.002,0.002,1.128,0.808,28.884
1747675553.25,-0.001,0.001,-0.016,-0.002,0.000,-0.001,1.128,0.807,28.884
1747675553.26,-0.001,0.001,-0.017,0.003,0.005,0.001,1.128,0.808,28.885
1747675553.27,-0.000,0.001,-0.016,-0.001,-0.002,0.002,1.128,0.808,28.885
1747675553.28,0.001,0.001,-0.015,-0.001,0.000,0.001,1.128,0.808,28.885
1747675553.29,0.000,-0.000,-0.016,0.000,0.000,0.000,1.128,0.809,28.885
1747675553.30,0.001,-0.001,-0.016,0.000,-0.002,0.001,1.128,0.809,28.885
1747675553.31,0.000,-0.000,-0.016,-0.001,-0.000,-0.000,1.127,0.808,28.885
1747675553.32,-0.000,-0.001,-0.016,0.002,-0.003,-0.001,1.128,0.807,28.885
1747675553.33,-0.000,-0.001,-0.016,0.000,-0.003,0.001,1.127,0.806,28.885
1747675553.34,-0.000,-0.000,-0.016,-0.001,-0.002,-0.001,1.127,0.806,28.886
1747675553.35,0.000,-0.000,-0.017,0.001,-0.001,-0.000,1.127,0.806,28.886
1747675553.36,0.001,0.001,-0.016,-0.001,0.001,-0.001,1.127,0.806,28.886
1747675553.37,0.000,0.001,-0.015,0.000,-0.001,0.000,1.126,0.806,28.886
1747675553.38,0.000,0.001,-0.016,-0.001,0.001,-0.002,1.126,0.806,28.886
1747675553.39,0.001,0.000,-0.015,0.003,0.000,-0.001,1.126,0.806,28.885
1747675553.40,-0.000,0.001,-0.016,-0.003,-0.001,0.001,1.126,0.807,28.885
1747675553.41,-0.000,0.001,-0.017,-0.001,-0.002,0.002,1.125,0.806,28.885
1747675553.42,0.000,0.000,-0.016,-0.000,0.000,0.000,1.125,0.806,28.885
1747675553.43,0.001,0.000,-0.016,0.002,0.000,0.000,1.124,0.806,28.885
1747675553.44,0.000,0.001,-0.015,0.002,0.003,-0.001,1.126,0.806,28.886
1747675553.45,-0.000,-0.000,-0.016,-0.001,0.001,0.000,1.126,0.807,28.886
1747675553.46,-0.000,-0.000,-0.017,-0.001,0.000,0.000,1.126,0.807,28.886
1747675553.47,-0.000,-0.000,-0.016,0.001,0.000,-0.002,1.126,0.807,28.886
1747675553.48,-0.000,0.000,-0.016,-0.001,-0.001,-0.000,1.126,0.807,28.885
1747675553.49,-0.000,-0.001,-0.016,0.002,-0.003,0.002,1.126,0.807,28.886
1747675553.50,0.000,-0.002,-0.015,0.001,-0.001,0.001,1.127,0.807,28.886
1747675553.51,0.000,-0.000,-0.017,0.002,0.000,-0.002,1.127,0.808,28.886
1747675553.52,0.000,0.000,-0.016,-0.000,-0.002,-0.003,1.127,0.807,28.886
1747675553.53,-0.000,0.000,-0.015,0.001,-0.000,0.001,1.128,0.806,28.886
1747675553.54,-0.000,0.001,-0.016,-0.001,0.001,0.002,1.128,0.807,28.886
1747675553.55,-0.000,0.000,-0.015,-0.001,0.001,-0.001,1.127,0.807,28.886
1747675553.56,-0.000,0.001,-0.016,0.003,0.001,0.003,1.127,0.806,28.886
1747675553.57,0.000,0.000,-0.016,-0.002,0.001,-0.001,1.127,0.806,28.887
1747675553.58,0.000,0.001,-0.016,-0.001,0.001,-0.002,1.127,0.806,28.886
1747675553.59,0.001,0.001,-0.015,-0.002,-0.003,-0.000,1.127,0.805,28.887
1747675553.60,0.001,-0.001,-0.016,0.001,-0.001,-0.001,1.127,0.805,28.886
1747675553.61,0.001,-0.000,-0.015,0.001,0.000,0.000,1.127,0.806,28.886
1747675553.62,0.001,-0.001,-0.014,0.001,0.002,-0.001,1.128,0.807,28.886
1747675553.63,0.001,-0.000,-0.016,0.002,-0.001,-0.001,1.128,0.807,28.885
1747675553.64,0.001,-0.001,-0.016,0.001,0.002,-0.001,1.129,0.806,28.884
1747675553.65,0.000,-0.001,-0.015,-0.001,-0.000,-0.002,1.129,0.807,28.885
1747675553.66,-0.000,-0.000,-0.015,-0.000,-0.002,-0.002,1.128,0.806,28.884
1747675553.67,-0.000,-0.000,-0.015,-0.001,-0.001,0.001,1.128,0.806,28.884
1747675553.68,-0.001,0.001,-0.015,-0.002,0.000,0.001,1.128,0.805,28.884
1747675553.69,-0.000,0.000,-0.016,-0.001,-0.001,0.001,1.128,0.805,28.884
1747675553.70,-0.002,0.001,-0.015,0.000,0.000,-0.001,1.127,0.805,28.884
1747675553.71,-0.001,0.000,-0.016,0.001,-0.002,-0.001,1.128,0.805,28.883
1747675553.72,-0.001,0.001,-0.016,-0.001,0.000,0.002,1.128,0.805,28.884
1747675553.73,0.001,0.001,-0.016,-0.001,0.001,-0.002,1.129,0.805,28.884
1747675553.74,0.000,0.001,-0.015,-0.002,0.001,0.000,1.128,0.805,28.883
1747675553.75,0.001,0.001,-0.016,-0.000,0.001,0.001,1.128,0.805,28.884
1747675553.76,0.001,0.000,-0.016,-0.000,0.000,-0.000,1.128,0.804,28.883
1747675553.77,0.001,-0.000,-0.015,-0.001,-0.004,-0.001,1.127,0.804,28.883
1747675553.78,0.000,-0.000,-0.015,-0.001,-0.001,-0.004,1.127,0.803,28.883
1747675553.79,0.000,-0.001,-0.015,-0.002,0.000,0.001,1.126,0.803,28.882
1747675553.80,0.001,-0.000,-0.017,-0.001,0.002,-0.001,1.125,0.803,28.883
1747675553.81,0.001,-0.000,-0.017,0.001,0.002,-0.000,1.125,0.804,28.883
1747675553.82,0.001,-0.001,-0.017,0.000,-0.001,0.001,1.125,0.804,28.883
1747675553.83,0.001,0.000,-0.015,-0.003,-0.001,-0.001,1.125,0.804,28.883
1747675553.84,0.001,0.000,-0.015,-0.001,0.001,-0.001,1.123,0.804,28.883
1747675553.85,0.000,0.000,-0.015,0.001,-0.000,0.001,1.124,0.804,28.883
1747675553.86,-0.001,0.001,-0.016,0.002,0.000,-0.002,1.125,0.804,28.883
1747675553.87,-0.002,0.001,-0.014,0.002,-0.002,-0.002,1.126,0.803,28.882
1747675553.88,-0.001,0.001,-0.015,0.000,-0.000,0.001,1.126,0.802,28.882
1747675553.89,-0.001,0.001,-0.017,0.002,0.002,-0.000,1.126,0.802,28.883
1747675553.90,-0.001,0.001,-0.016,0.000,-0.001,0.000,1.126,0.803,28.882
1747675553.91,-0.000,-0.002,-0.016,0.000,0.000,-0.000,1.126,0.803,28.882
1747675553.92,0.001,0.000,-0.015,-0.002,-0.001,-0.000,1.125,0.802,28.882
1747675553.93,0.001,0.001,-0.016,0.000,0.001,-0.001,1.125,0.803,28.882
1747675553.94,0.001,-0.000,-0.016,-0.003,0.000,-0.001,1.124,0.803,28.882
1747675553.95,0.002,-0.000,-0.016,0.001,0.000,-0.000,1.124,0.803,28.882
1747675553.96,0.002,-0.001,-0.016,-0.001,-0.003,0.000,1.124,0.803,28.882
1747675553.97,0.002,-0.000,-0.015,0.002,-0.001,-0.001,1.125,0.801,28.881
1747675553.98,0.002,0.000,-0.015,-0.002,0.000,-0.001,1.125,0.800,28.881
1747675553.99,0.001,0.001,-0.015,-0.000,-0.001,-0.001,1.125,0.800,28.881
1747675554.00,0.001,0.001,-0.015,-0.000,-0.003,-0.000,1.125,0.799,28.881
1747675554.01,0.000,0.001,-0.015,-0.002,-0.001,-0.001,1.124,0.799,28.881
1747675554.02,-0.000,0.002,-0.016,0.000,-0.000,-0.000,1.124,0.799,28.881
1747675554.03,-0.000,0.001,-0.016,0.000,-0.002,0.002,1.123,0.798,28.882
1747675554.04,-0.000,-0.000,-0.015,0.002,-0.002,0.001,1.123,0.798,28.882
1747675554.05,0.000,-0.000,-0.015,-0.000,0.001,0.001,1.124,0.798,28.882
1747675554.06,-0.001,0.001,-0.016,0.001,-0.001,-0.000,1.123,0.798,28.882
1747675554.07,0.000,0.000,-0.014,0.001,-0.002,0.000,1.123,0.797,28.882
1747675554.08,-0.000,-0.000,-0.016,-0.000,-0.000,0.001,1.124,0.797,28.882
1747675554.09,0.000,-0.001,-0.017,-0.000,0.001,0.001,1.124,0.797,28.882
1747675554.10,-0.000,-0.001,-0.016,0.001,0.000,0.001,1.124,0.797,28.882
1747675554.11,-0.001,-0.001,-0.017,-0.000,-0.001,-0.000,1.124,0.797,28.882
1747675554.12,-0.000,0.000,-0.016,-0.001,-0.003,0.001,1.124,0.797,28.881
1747675554.13,0.000,0.000,-0.017,0.001,0.000,0.001,1.124,0.796,28.881
1747675554.14,0.001,0.000,-0.017,-0.001,0.001,0.001,1.124,0.796,28.881
1747675554.15,0.000,-0.001,-0.016,0.000,-0.001,-0.001,1.125,0.795,28.881
1747675554.16,0.001,0.000,-0.015,-0.002,-0.000,0.001,1.124,0.795,28.881
1747675554.17,0.000,-0.000,-0.015,0.000,-0.002,0.001,1.124,0.795,28.882
1747675554.18,0.000,0.001,-0.016,0.001,0.001,0.002,1.124,0.794,28.882
1747675554.19,0.000,0.001,-0.015,-0.002,-0.002,-0.001,1.125,0.795,28.883
1747675554.20,0.001,0.001,-0.015,0.001,0.002,-0.001,1.126,0.794,28.883
1747675554.21,0.001,0.001,-0.015,-0.000,0.000,0.000,1.125,0.795,28.883
1747675554.22,0.000,0.001,-0.016,-0.001,0.001,-0.001,1.125,0.795,28.883
1747675554.23,0.001,0.000,-0.016,0.000,0.001,0.000,1.125,0.795,28.882
1747675554.24,0.001,0.000,-0.014,0.000,-0.002,0.001,1.125,0.795,28.882
1747675554.25,0.000,-0.001,-0.016,-0.002,0.003,0.001,1.125,0.795,28.882
1747675554.26,0.001,-0.002,-0.017,-0.000,-0.001,0.002,1.125,0.796,28.883
1747675554.27,0.000,-0.001,-0.017,-0.001,0.000,-0.001,1.124,0.795,28.883
1747675554.28,0.001,-0.001,-0.016,0.001,-0.001,-0.001,1.124,0.795,28.883
1747675554.29,0.000,-0.001,-0.017,-0.003,0.000,-0.001,1.123,0.794,28.884
1747675554.30,-0.001,-0.001,-0.016,0.000,0.000,-0.001,1.123,0.795,28.884
1747675554.31,-0.001,-0.001,-0.015,-0.002,-0.000,0.000,1.123,0.795,28.883
1747675554.32,-0.000,0.000,-0.016,0.002,0.001,0.000,1.123,0.795,28.882
1747675554.33,-0.001,0.001,-0.015,-0.001,0.001,-0.000,1.123,0.796,28.882
1747675554.34,-0.001,0.001,-0.015,0.000,-0.000,-0.003,1.123,0.796,28.883
1747675554.35,-0.001,0.001,-0.015,0.000,0.001,0.001,1.123,0.796,28.883
1747675554.36,-0.000,0.000,-0.015,0.001,-0.002,0.002,1.124,0.796,28.883
1747675554.37,0.000,0.000,-0.014,-0.000,-0.000,0.000,1.125,0.796,28.884
1747675554.38,0.001,0.000,-0.014,0.001,0.000,0.000,1.125,0.796,28.884
1747675554.39,0.001,0.000,-0.015,0.001,0.001,0.001,1.125,0.796,28.884
1747675554.40,0.002,0.000,-0.016,-0.003,-0.001,-0.002,1.124,0.797,28.884
1747675554.41,0.001,-0.001,-0.016,-0.001,0.000,-0.001,1.123,0.796,28.884
1747675554.42,0.001,-0.001,-0.017,-0.001,0.001,0.002,1.122,0.796,28.884
1747675554.43,0.002,-0.001,-0.016,0.002,-0.001,-0.001,1.122,0.796,28.884
1747675554.44,0.002,-0.000,-0.014,-0.001,0.001,0.001,1.122,0.796,28.884
1747675554.45,0.001,0.000,-0.016,0.001,0.001,0.001,1.122,0.796,28.883
1747675554.46,-0.000,0.001,-0.015,-0.000,0.000,-0.000,1.122,0.797,28.883
1747675554.47,-0.001,0.001,-0.014,0.001,-0.002,-0.000,1.122,0.796,28.883
1747675554.48,-0.001,0.001,-0.016,0.000,0.003,-0.001,1.122,0.797,28.883
1747675554.49,-0.000,0.000,-0.014,-0.000,0.000,-0.001,1.122,0.797,28.883
1747675554.50,-0.001,0.001,-0.015,0.001,0.000,-0.000,1.123,0.796,28.883
1747675554.51,-0.001,0.001,-0.017,-0.001,0.000,0.001,1.123,0.796,28.883
1747675554.52,-0.001,0.001,-0.016,-0.000,-0.000,0.002,1.122,0.796,28.883
1747675554.53,-0.001,0.000,-0.015,0.001,-0.001,-0.002,1.123,0.797,28.883
1747675554.54,0.000,-0.000,-0.016,0.000,0.000,-0.002,1.123,0.796,28.883
1747675554.55,0.000,-0.001,-0.016,-0.003,0.000,-0.000,1.123,0.797,28.883
1747675554.56,0.001,-0.000,-0.016,-0.002,-0.001,0.000,1.122,0.796,28.883
1747675554.57,0.001,-0.000,-0.017,0.000,0.001,-0.001,1.122,0.795,28.883
1747675554.58,0.003,-0.000,-0.016,-0.002,-0.000,-0.000,1.122,0.796,28.883
1747675554.59,0.002,-0.001,-0.017,-0.002,0.001,-0.002,1.121,0.795,28.882
1747675554.60,0.002,-0.001,-0.017,-0.001,-0.001,0.001,1.120,0.796,28.882
1747675554.61,0.001,-0.001,-0.016,-0.001,-0.001,-0.001,1.120,0.795,28.881
1747675554.62,0.001,0.000,-0.015,-0.000,-0.003,-0.001,1.121,0.795,28.881
1747675554.63,0.001,0.001,-0.015,0.002,0.001,0.001,1.121,0.794,28.882
1747675554.64,-0.000,0.000,-0.015,-0.001,0.001,-0.000,1.121,0.795,28.882
1747675554.65,-0.001,0.000,-0.015,-0.002,-0.002,0.001,1.121,0.795,28.882
1747675554.66,-0.001,-0.001,-0.015,0.000,-0.000,0.000,1.120,0.795,28.882
1747675554.67,-0.001,0.000,-0.015,-0.000,0.001,0.001,1.120,0.795,28.882
1747675554.68,-0.001,0.001,-0.015,-0.000,-0.001,-0.002,1.120,0.795,28.882
1747675554.69,-0.000,0.001,-0.016,-0.000,-0.000,-0.002,1.120,0.794,28.882
1747675554.70,-0.000,-0.001,-0.015,0.002,0.001,0.001,1.121,0.795,28.882
1747675554.71,-0.000,-0.002,-0.015,0.000,-0.001,0.001,1.121,0.794,28.883
1747675554.72,0.000,-0.001,-0.016,0.002,0.001,0.001,1.120,0.794,28.884
1747675554.73,0.000,-0.001,-0.016,-0.001,0.001,0.001,1.120,0.794,28.884
1747675554.74,-0.000,-0.001,-0.016,-0.000,-0.000,0.001,1.120,0.795,28.884
1747675554.75,0.001,-0.001,-0.016,0.000,0.001,0.000,1.120,0.795,28.885
1747675554.76,0.001,-0.000,-0.017,-0.000,0.000,-0.001,1.120,0.796,28.885
1747675554.77,0.001,-0.000,-0.017,-0.001,0.001,0.002,1.119,0.796,28.886
1747675554.78,0.001,0.000,-0.016,0.001,-0.002,-0.000,1.119,0.796,28.887
1747675554.79,0.001,0.000,-0.015,-0.001,0.000,0.001,1.120,0.796,28.887
1747675554.80,0.000,0.000,-0.015,-0.002,-0.002,0.001,1.120,0.796,28.886
1747675554.81,0.001,0.001,-0.015,-0.001,-0.002,-0.001,1.119,0.796,28.886
1747675554.82,0.001,0.001,-0.017,-0.000,-0.001,-0.000,1.120,0.796,28.886
1747675554.83,0.001,0.000,-0.017,0.001,-0.004,0.001,1.119,0.795,28.886
1747675554.84,0.001,0.000,-0.015,-0.000,0.001,0.000,1.119,0.795,28.887
1747675554.85,0.000,0.000,-0.015,0.001,-0.001,0.000,1.119,0.795,28.887
1747675554.88,0.000,-0.000,-0.015,-0.000,0.001,0.001,1.120,0.795,28.887
1747675554.88,0.001,-0.001,-0.015,0.001,-0.002,0.001,1.120,0.795,28.887
1747675554.89,0.000,-0.001,-0.017,-0.001,-0.001,0.001,1.120,0.794,28.888
1747675554.90,-0.000,-0.001,-0.016,-0.000,-0.002,-0.002,1.120,0.794,28.889
1747675554.91,-0.000,-0.001,-0.015,0.001,0.001,-0.001,1.119,0.793,28.888
1747675554.92,0.000,-0.001,-0.016,0.001,0.001,0.000,1.119,0.793,28.888
1747675554.92,-0.000,-0.001,-0.017,-0.001,0.000,-0.001,1.119,0.793,28.887
1747675554.94,-0.000,-0.001,-0.016,-0.001,-0.000,-0.001,1.119,0.792,28.887
1747675554.94,-0.000,-0.000,-0.015,0.001,0.002,-0.005,1.118,0.793,28.887
1747675554.95,0.000,0.000,-0.015,0.000,0.001,-0.000,1.117,0.793,28.885
1747675554.96,-0.001,0.001,-0.015,0.001,-0.001,0.000,1.118,0.794,28.886
1747675554.97,-0.001,0.001,-0.016,0.001,0.002,-0.000,1.118,0.794,28.886
1747675554.98,-0.001,0.000,-0.017,-0.000,-0.000,0.000,1.119,0.794,28.886
1747675554.99,0.001,-0.000,-0.017,0.002,-0.002,0.002,1.119,0.793,28.887
1747675555.00,0.001,0.000,-0.016,-0.001,-0.001,0.003,1.118,0.792,28.888
1747675555.01,0.000,0.001,-0.015,-0.002,-0.001,0.001,1.118,0.792,28.888
1747675555.02,0.001,0.000,-0.015,0.001,-0.002,0.000,1.117,0.792,28.888
1747675555.03,0.001,-0.000,-0.016,-0.001,-0.000,-0.004,1.117,0.791,28.887
1747675555.04,0.002,-0.001,-0.016,0.002,0.002,0.000,1.117,0.791,28.888
1747675555.05,0.001,-0.001,-0.016,-0.000,-0.001,0.000,1.117,0.791,28.888
1747675555.06,0.001,-0.001,-0.017,0.001,-0.002,-0.000,1.117,0.791,28.888
1747675555.07,0.001,-0.001,-0.016,-0.000,-0.001,-0.000,1.117,0.791,28.887
1747675555.08,0.000,0.001,-0.015,0.000,-0.000,-0.001,1.117,0.790,28.887
1747675555.09,0.000,-0.000,-0.015,0.000,0.002,-0.001,1.117,0.791,28.887
1747675555.09,-0.001,0.001,-0.015,0.000,0.002,-0.002,1.117,0.791,28.887
1747675555.11,-0.001,-0.001,-0.016,-0.000,0.000,-0.000,1.117,0.792,28.887
1747675555.11,-0.001,-0.001,-0.017,-0.000,-0.001,0.001,1.117,0.791,28.887
1747675555.12,-0.001,0.000,-0.016,0.002,0.003,0.001,1.118,0.791,28.887
1747675555.13,-0.001,0.000,-0.014,0.000,0.000,0.001,1.118,0.792,28.887
1747675555.14,-0.001,0.000,-0.016,-0.001,0.001,-0.002,1.118,0.792,28.887
1747675555.15,-0.000,-0.000,-0.016,-0.002,0.000,0.000,1.118,0.793,28.887
1747675555.16,0.001,-0.001,-0.016,0.002,-0.002,-0.001,1.118,0.792,28.887
1747675555.17,0.001,-0.001,-0.017,-0.001,-0.001,-0.002,1.119,0.792,28.886
1747675555.18,0.001,-0.001,-0.016,-0.001,0.002,0.000,1.119,0.792,28.886
1747675555.19,0.001,-0.001,-0.016,-0.000,-0.001,0.000,1.119,0.792,28.885
1747675555.20,0.001,-0.000,-0.014,-0.002,-0.001,0.001,1.118,0.791,28.886
1747675555.21,0.001,-0.000,-0.016,-0.000,-0.001,0.001,1.118,0.791,28.886
1747675555.22,0.002,-0.001,-0.016,-0.001,-0.001,-0.002,1.117,0.790,28.887
1747675555.23,0.001,0.000,-0.015,0.001,-0.001,0.001,1.117,0.789,28.887
1747675555.24,0.001,0.000,-0.016,-0.001,-0.001,0.000,1.117,0.789,28.888
1747675555.25,0.000,0.000,-0.015,0.002,-0.001,0.001,1.118,0.788,28.888
1747675555.26,-0.000,0.001,-0.016,-0.001,-0.002,0.002,1.118,0.787,28.889
1747675555.27,-0.000,0.000,-0.016,0.001,0.002,-0.000,1.118,0.788,28.889
1747675555.28,-0.002,-0.000,-0.016,0.002,0.002,-0.004,1.119,0.789,28.889
1747675555.29,-0.000,0.000,-0.017,0.004,-0.004,0.001,1.120,0.788,28.888
1747675555.30,-0.000,0.000,-0.017,0.001,-0.001,-0.002,1.121,0.787,28.888
1747675555.31,-0.001,0.000,-0.015,-0.001,0.003,0.000,1.121,0.787,28.887
1747675555.32,-0.000,0.000,-0.016,0.002,0.003,0.001,1.121,0.788,28.887
1747675555.33,-0.001,-0.001,-0.016,0.000,-0.002,-0.001,1.121,0.788,28.886
1747675555.34,-0.001,-0.001,-0.016,0.000,-0.001,0.002,1.121,0.787,28.887
1747675555.35,0.001,0.001,-0.017,0.000,0.003,-0.000,1.121,0.788,28.887
1747675555.36,0.001,-0.001,-0.016,-0.001,-0.001,0.000,1.121,0.788,28.887
1747675555.37,0.001,-0.001,-0.016,-0.003,-0.002,-0.001,1.120,0.788,28.886
1747675555.38,0.001,0.000,-0.016,0.001,-0.000,-0.001,1.119,0.789,28.886
1747675555.39,0.001,-0.000,-0.015,-0.000,0.002,0.002,1.120,0.789,28.886
1747675555.40,0.001,-0.000,-0.016,0.000,0.000,-0.001,1.120,0.789,28.886
1747675555.41,0.002,0.000,-0.016,-0.000,0.002,0.001,1.120,0.790,28.886
1747675555.42,0.001,0.000,-0.016,-0.001,0.001,-0.001,1.118,0.791,28.886
1747675555.43,-0.000,0.000,-0.016,-0.000,-0.001,0.000,1.119,0.790,28.886
1747675555.44,0.000,0.001,-0.015,-0.000,-0.000,-0.000,1.118,0.790,28.886
1747675555.45,0.001,0.000,-0.014,0.002,0.001,-0.000,1.118,0.791,28.887
1747675555.46,0.000,0.000,-0.015,0.002,0.001,-0.001,1.119,0.791,28.887
1747675555.47,0.000,-0.001,-0.016,-0.001,0.001,0.003,1.119,0.791,28.887
1747675555.48,-0.000,0.000,-0.015,-0.001,-0.001,0.002,1.119,0.791,28.889
1747675555.49,-0.000,0.000,-0.017,0.001,0.002,-0.000,1.119,0.791,28.889
1747675555.50,0.001,-0.001,-0.017,0.001,0.000,-0.002,1.119,0.792,28.890
1747675555.51,-0.000,-0.001,-0.016,0.001,0.000,0.000,1.120,0.792,28.889
1747675555.52,0.001,-0.001,-0.016,-0.001,0.001,0.001,1.120,0.793,28.889
1747675555.53,0.001,-0.001,-0.016,-0.000,-0.002,0.002,1.120,0.792,28.890
1747675555.54,0.001,-0.001,-0.016,0.001,-0.000,-0.001,1.120,0.792,28.889
1747675555.55,0.000,-0.000,-0.016,0.002,0.001,0.001,1.121,0.792,28.889
1747675555.56,-0.001,-0.000,-0.016,0.000,-0.003,-0.002,1.121,0.792,28.890
1747675555.57,-0.000,-0.000,-0.015,0.001,0.001,0.000,1.122,0.791,28.890
1747675555.58,0.000,0.000,-0.014,0.002,-0.001,-0.000,1.122,0.790,28.890
1747675555.59,-0.001,0.001,-0.017,0.000,0.001,0.001,1.123,0.790,28.889
1747675555.60,-0.000,0.001,-0.016,0.001,0.000,0.000,1.123,0.790,28.890
1747675555.61,0.000,0.001,-0.016,0.003,-0.001,0.002,1.124,0.790,28.890
1747675555.62,0.002,0.001,-0.016,0.000,-0.002,-0.001,1.124,0.790,28.890
1747675555.63,0.001,-0.000,-0.015,0.001,0.000,-0.002,1.124,0.789,28.889
1747675555.64,0.001,0.000,-0.016,-0.002,-0.001,-0.001,1.124,0.789,28.889
1747675555.65,0.001,-0.000,-0.016,0.001,-0.000,-0.001,1.123,0.788,28.889
1747675555.66,0.001,-0.001,-0.016,-0.001,-0.001,0.001,1.124,0.789,28.889
1747675555.67,0.001,-0.000,-0.017,0.001,-0.001,-0.002,1.124,0.788,28.888
1747675555.68,0.001,-0.001,-0.016,-0.000,-0.000,0.002,1.123,0.788,28.888
1747675555.69,0.002,0.000,-0.016,0.000,-0.001,0.002,1.123,0.787,28.889
1747675555.70,0.000,-0.001,-0.016,-0.001,-0.001,-0.001,1.123,0.787,28.889
1747675555.71,-0.000,-0.001,-0.016,0.000,0.003,0.000,1.123,0.788,28.889
1747675555.72,-0.001,0.000,-0.016,-0.000,0.001,0.000,1.124,0.788,28.889
1747675555.73,-0.001,0.001,-0.016,0.001,0.001,-0.001,1.124,0.788,28.889
1747675555.74,-0.001,0.000,-0.015,0.001,-0.001,0.001,1.125,0.789,28.889
1747675555.75,0.000,0.001,-0.017,-0.001,-0.001,-0.001,1.126,0.789,28.888
1747675555.76,0.000,0.001,-0.016,-0.002,0.000,0.000,1.125,0.788,28.888
1747675555.77,0.001,0.000,-0.016,-0.001,-0.001,-0.001,1.124,0.788,28.888
1747675555.78,0.001,-0.000,-0.017,0.002,-0.001,-0.001,1.125,0.788,28.889
1747675555.79,0.001,0.001,-0.017,-0.001,-0.000,0.001,1.125,0.788,28.889
1747675555.80,0.001,0.001,-0.017,-0.001,0.000,0.000,1.125,0.789,28.889
1747675555.81,0.001,-0.000,-0.017,-0.000,-0.002,0.001,1.126,0.788,28.889
1747675555.82,0.001,-0.001,-0.016,-0.002,0.001,0.001,1.125,0.788,28.889
1747675555.83,0.001,-0.000,-0.015,0.002,0.002,-0.000,1.125,0.788,28.889
1747675555.84,0.002,0.000,-0.017,-0.000,-0.002,-0.000,1.126,0.787,28.888
1747675555.85,0.001,0.000,-0.016,-0.001,0.002,-0.000,1.126,0.787,28.889
1747675555.86,0.001,0.000,-0.016,0.003,0.001,-0.000,1.126,0.788,28.889
1747675555.87,0.000,-0.000,-0.016,0.002,0.002,-0.002,1.127,0.789,28.889
1747675555.88,0.001,0.000,-0.015,-0.001,0.001,0.002,1.127,0.789,28.888
1747675555.89,-0.000,0.001,-0.016,-0.000,-0.003,-0.000,1.127,0.789,28.888
1747675555.90,-0.000,0.001,-0.017,0.001,-0.002,-0.002,1.127,0.788,28.888
1747675555.91,-0.001,0.001,-0.015,0.001,0.001,-0.000,1.127,0.788,28.888
1747675555.92,-0.001,-0.001,-0.016,0.001,0.001,0.001,1.128,0.789,28.888
1747675555.93,-0.001,0.000,-0.017,0.003,0.000,0.001,1.128,0.790,28.889
1747675555.94,-0.001,0.001,-0.016,-0.000,-0.001,-0.001,1.129,0.790,28.888
1747675555.95,-0.000,-0.001,-0.016,0.000,0.002,-0.002,1.129,0.790,28.888
1747675555.96,-0.001,-0.000,-0.016,0.000,-0.003,-0.002,1.129,0.790,28.888
1747675555.97,-0.001,0.001,-0.016,-0.002,0.000,-0.000,1.129,0.789,28.888
1747675555.98,0.001,-0.001,-0.017,0.001,0.002,-0.001,1.130,0.789,28.888
1747675555.99,0.001,0.000,-0.015,-0.001,-0.000,-0.002,1.130,0.790,28.887
1747675556.00,0.001,-0.001,-0.015,0.000,-0.001,0.001,1.129,0.790,28.886
1747675556.01,0.001,-0.001,-0.016,0.001,0.002,0.000,1.130,0.790,28.887
1747675556.02,-0.000,0.001,-0.016,0.002,-0.002,0.001,1.131,0.790,28.887
1747675556.03,0.000,0.000,-0.017,-0.001,-0.001,-0.003,1.131,0.790,28.887
1747675556.04,0.001,0.002,-0.016,0.001,-0.001,-0.001,1.132,0.789,28.886
1747675556.05,0.001,0.001,-0.015,-0.001,-0.002,-0.001,1.132,0.789,28.886
1747675556.06,0.001,-0.000,-0.016,-0.002,0.002,-0.001,1.131,0.790,28.886
1747675556.07,0.001,0.001,-0.016,0.000,-0.003,0.000,1.131,0.790,28.885
1747675556.08,0.001,0.001,-0.017,0.000,0.000,0.001,1.132,0.790,28.885
1747675556.09,0.001,-0.000,-0.015,0.001,-0.001,-0.001,1.132,0.790,28.885
1747675556.10,0.000,0.000,-0.016,0.000,0.001,0.000,1.132,0.789,28.884
1747675556.11,0.001,-0.000,-0.016,0.000,-0.001,-0.001,1.132,0.790,28.884
1747675556.12,0.000,-0.001,-0.016,-0.000,-0.001,-0.003,1.132,0.790,28.884
1747675556.13,0.000,-0.000,-0.016,-0.005,0.003,-0.000,1.131,0.791,28.884
1747675556.14,-0.000,-0.001,-0.017,-0.000,-0.002,0.000,1.130,0.791,28.883
1747675556.15,0.000,0.000,-0.017,-0.001,0.001,0.001,1.129,0.790,28.884
1747675556.16,-0.001,-0.000,-0.016,0.001,0.001,0.001,1.129,0.791,28.884
1747675556.17,0.000,0.000,-0.015,0.002,-0.002,0.000,1.130,0.791,28.884
1747675556.18,0.002,-0.000,-0.016,-0.001,0.001,-0.001,1.130,0.791,28.884
1747675556.19,-0.000,0.000,-0.016,-0.000,0.001,0.001,1.130,0.792,28.884
1747675556.20,-0.001,0.001,-0.016,-0.004,-0.001,0.001,1.129,0.792,28.884
1747675556.21,-0.000,0.001,-0.016,0.001,0.000,0.000,1.128,0.792,28.884
1747675556.22,-0.000,0.001,-0.015,0.000,0.000,0.001,1.128,0.792,28.884
1747675556.23,0.001,0.000,-0.017,0.000,0.001,0.000,1.128,0.792,28.884
1747675556.24,0.002,-0.000,-0.017,0.002,-0.001,-0.002,1.130,0.791,28.884
1747675556.25,0.002,0.001,-0.016,-0.000,0.003,-0.002,1.130,0.791,28.883
1747675556.26,0.002,-0.000,-0.017,-0.002,-0.001,-0.001,1.130,0.790,28.883
1747675556.27,0.002,-0.001,-0.017,0.002,-0.000,-0.000,1.130,0.789,28.883
1747675556.28,0.001,-0.000,-0.016,0.001,0.000,0.001,1.131,0.789,28.883
1747675556.29,0.001,-0.001,-0.016,-0.001,0.002,0.001,1.131,0.789,28.883
1747675556.30,0.002,-0.001,-0.016,-0.002,-0.003,-0.001,1.130,0.789,28.883
1747675556.31,0.001,-0.002,-0.017,-0.000,-0.001,-0.001,1.130,0.789,28.882
1747675556.32,0.001,-0.001,-0.016,-0.001,-0.001,-0.000,1.130,0.789,28.882
1747675556.33,-0.001,-0.000,-0.015,0.000,-0.003,0.002,1.129,0.787,28.883
1747675556.34,-0.000,-0.000,-0.016,-0.000,-0.000,-0.001,1.129,0.787,28.883
1747675556.35,-0.001,0.000,-0.016,0.001,0.003,-0.001,1.130,0.787,28.882
1747675556.36,-0.002,-0.000,-0.014,0.001,-0.001,-0.000,1.129,0.787,28.882
1747675556.37,-0.000,0.000,-0.015,-0.001,-0.001,-0.000,1.129,0.787,28.882
1747675556.38,-0.000,0.001,-0.016,0.003,0.002,-0.001,1.129,0.787,28.882
1747675556.39,-0.000,0.001,-0.015,0.001,0.000,-0.001,1.129,0.788,28.882
1747675556.40,0.000,0.000,-0.016,-0.001,0.002,-0.001,1.130,0.789,28.883
1747675556.41,0.001,0.000,-0.015,0.000,-0.001,0.002,1.130,0.789,28.883
1747675556.42,0.001,-0.001,-0.016,-0.001,0.001,0.001,1.130,0.789,28.883
1747675556.43,0.001,-0.000,-0.017,-0.000,0.000,0.003,1.130,0.789,28.883
1747675556.44,0.001,-0.001,-0.015,0.002,0.001,-0.000,1.131,0.789,28.884
1747675556.45,0.001,-0.000,-0.017,-0.000,0.003,0.001,1.131,0.790,28.884
1747675556.46,0.002,-0.001,-0.015,-0.004,0.000,-0.001,1.131,0.790,28.884
1747675556.47,0.001,-0.000,-0.016,0.000,-0.000,0.000,1.131,0.790,28.884
1747675556.48,0.001,-0.000,-0.018,-0.002,0.000,-0.002,1.130,0.790,28.884
1747675556.49,0.000,0.001,-0.016,-0.000,-0.001,-0.000,1.129,0.790,28.884
1747675556.50,0.000,0.001,-0.015,-0.000,0.000,0.001,1.129,0.790,28.884
1747675556.51,0.000,0.002,-0.016,-0.000,-0.000,0.002,1.129,0.790,28.885
1747675556.52,-0.000,0.001,-0.016,-0.000,0.001,0.002,1.129,0.790,28.885
1747675556.53,-0.000,0.001,-0.015,0.001,-0.000,0.000,1.129,0.790,28.886
1747675556.54,-0.000,0.001,-0.014,0.000,-0.001,-0.001,1.130,0.790,28.885
1747675556.55,0.001,0.000,-0.016,-0.002,0.002,-0.001,1.130,0.791,28.885
1747675556.56,0.000,0.001,-0.016,0.002,0.001,-0.002,1.130,0.791,28.884
1747675556.57,0.000,0.000,-0.016,-0.001,-0.001,0.001,1.129,0.791,28.885
1747675556.58,-0.000,-0.000,-0.017,0.000,-0.002,-0.002,1.129,0.790,28.885
1747675556.59,0.000,-0.001,-0.017,-0.000,0.001,-0.003,1.129,0.790,28.884
1747675556.60,0.002,-0.001,-0.018,-0.001,0.000,-0.000,1.129,0.791,28.884
1747675556.61,0.001,-0.001,-0.017,0.001,0.002,0.000,1.129,0.791,28.883
1747675556.62,0.000,-0.001,-0.016,0.001,0.001,0.000,1.128,0.792,28.884
1747675556.63,0.002,-0.001,-0.015,0.000,-0.001,0.000,1.129,0.792,28.883
1747675556.64,0.001,-0.000,-0.015,-0.000,0.003,0.003,1.128,0.792,28.884
1747675556.65,-0.000,0.001,-0.015,-0.000,-0.001,-0.000,1.128,0.793,28.884
1747675556.66,-0.001,0.001,-0.018,0.001,-0.000,-0.001,1.129,0.792,28.884
1747675556.67,-0.001,0.001,-0.016,-0.001,0.001,0.001,1.129,0.793,28.885
1747675556.68,0.001,0.001,-0.015,-0.001,-0.002,-0.002,1.129,0.792,28.885
1747675556.69,0.001,0.001,-0.016,-0.001,-0.001,0.004,1.129,0.792,28.885
1747675556.70,0.001,0.001,-0.016,-0.000,0.002,-0.000,1.128,0.794,28.885
1747675556.71,0.001,-0.000,-0.016,0.001,-0.001,-0.000,1.127,0.794,28.884
1747675556.72,0.001,-0.000,-0.016,-0.000,0.001,-0.001,1.128,0.794,28.884
1747675556.73,0.001,-0.001,-0.016,-0.000,-0.002,0.001,1.128,0.794,28.884
1747675556.74,0.001,-0.001,-0.017,-0.000,-0.000,-0.001,1.128,0.793,28.885
1747675556.75,-0.001,-0.002,-0.017,-0.001,0.004,0.000,1.127,0.794,28.885
1747675556.76,0.000,-0.002,-0.017,-0.002,-0.001,0.003,1.127,0.794,28.886
1747675556.77,-0.001,-0.002,-0.017,0.000,-0.002,0.002,1.126,0.794,28.886
1747675556.78,-0.001,-0.001,-0.016,-0.002,-0.000,-0.001,1.126,0.794,28.886
1747675556.79,0.001,0.000,-0.016,-0.001,-0.001,-0.002,1.125,0.795,28.886
1747675556.80,0.001,0.001,-0.016,0.002,-0.002,0.000,1.125,0.794,28.885
1747675556.81,0.000,0.001,-0.015,-0.002,0.001,-0.002,1.126,0.794,28.885
1747675556.82,0.001,0.001,-0.014,0.002,-0.002,-0.002,1.126,0.794,28.884
1747675556.83,0.001,0.002,-0.016,0.000,0.001,-0.000,1.126,0.794,28.883
1747675556.84,0.001,0.002,-0.015,0.000,0.000,0.000,1.127,0.794,28.883
1747675556.85,0.000,0.001,-0.016,-0.001,-0.002,-0.003,1.127,0.794,28.882
1747675556.86,0.001,0.001,-0.016,0.001,0.000,-0.001,1.127,0.793,28.882
1747675556.87,0.000,0.001,-0.015,0.003,-0.001,0.001,1.128,0.793,28.881
1747675556.88,0.001,-0.000,-0.017,-0.000,-0.000,-0.000,1.129,0.792,28.882
1747675556.89,0.001,-0.001,-0.017,0.000,-0.003,0.001,1.128,0.791,28.882
1747675556.90,0.002,-0.001,-0.017,-0.001,0.001,0.002,1.128,0.791,28.882
1747675556.91,0.002,-0.001,-0.017,-0.001,0.001,-0.002,1.127,0.791,28.882
1747675556.92,0.001,-0.002,-0.016,-0.001,0.001,0.000,1.127,0.791,28.882
1747675556.93,0.001,-0.001,-0.015,0.004,-0.001,-0.000,1.126,0.790,28.882
1747675556.94,0.001,-0.000,-0.015,-0.001,-0.000,0.001,1.127,0.790,28.883
1747675556.95,0.001,-0.000,-0.016,0.001,-0.003,0.001,1.127,0.789,28.883
1747675556.96,-0.001,0.000,-0.017,0.001,-0.000,0.001,1.127,0.788,28.883
1747675556.97,-0.001,0.000,-0.017,-0.001,-0.001,0.002,1.126,0.787,28.884
1747675556.98,-0.002,0.000,-0.017,0.000,0.003,0.002,1.127,0.788,28.884
1747675556.99,-0.002,0.001,-0.016,-0.000,-0.002,-0.000,1.127,0.788,28.884
1747675557.00,-0.001,0.002,-0.016,0.001,0.002,-0.002,1.126,0.789,28.884
1747675557.01,0.000,0.000,-0.015,-0.001,0.000,0.001,1.126,0.789,28.884
1747675557.02,0.002,-0.000,-0.017,0.000,0.001,-0.001,1.126,0.790,28.883
1747675557.03,0.001,-0.001,-0.017,-0.001,0.001,-0.000,1.126,0.790,28.882
1747675557.04,0.003,-0.001,-0.017,-0.002,0.001,0.000,1.126,0.791,28.881
1747675557.05,0.002,-0.002,-0.016,-0.003,0.000,0.002,1.125,0.791,28.881
1747675557.06,0.002,-0.001,-0.016,-0.001,-0.000,-0.000,1.125,0.792,28.881
1747675557.07,0.002,-0.000,-0.016,-0.001,-0.001,-0.004,1.124,0.791,28.880
1747675557.08,0.002,-0.001,-0.017,-0.000,0.002,-0.003,1.124,0.791,28.879
1747675557.09,0.002,0.001,-0.016,0.000,-0.000,0.000,1.124,0.792,28.878
1747675557.10,0.001,0.002,-0.015,-0.002,0.003,-0.000,1.124,0.792,28.878
1747675557.11,0.000,0.002,-0.016,-0.001,0.002,-0.001,1.122,0.793,28.877
1747675557.12,-0.000,0.001,-0.016,0.001,-0.002,0.002,1.122,0.793,28.877
1747675557.13,-0.000,0.001,-0.015,0.001,-0.000,-0.001,1.123,0.793,28.877
1747675557.14,0.000,0.001,-0.016,0.002,-0.001,0.001,1.123,0.793,28.877
1747675557.15,-0.000,0.001,-0.015,0.000,0.001,-0.000,1.123,0.793,28.878
1747675557.16,-0.000,0.001,-0.015,0.003,-0.001,-0.001,1.123,0.793,28.877
1747675557.17,0.000,-0.001,-0.018,0.001,0.001,0.002,1.124,0.793,28.877
1747675557.18,-0.001,-0.000,-0.016,0.001,0.001,-0.001,1.125,0.794,28.877
1747675557.19,-0.000,-0.001,-0.018,-0.001,0.002,-0.002,1.124,0.794,28.877
1747675557.20,-0.001,-0.001,-0.017,0.000,-0.001,-0.000,1.124,0.794,28.877
1747675557.21,-0.002,-0.002,-0.017,0.001,0.001,-0.003,1.124,0.794,28.877
1747675557.22,-0.000,-0.003,-0.016,-0.000,0.001,0.001,1.123,0.795,28.876
1747675557.23,-0.000,-0.001,-0.017,0.000,-0.002,0.001,1.123,0.794,28.877
1747675557.24,-0.000,-0.001,-0.016,-0.002,-0.001,0.001,1.122,0.793,28.877
1747675557.25,0.002,-0.001,-0.017,-0.002,0.002,0.002,1.121,0.794,28.878
1747675557.26,0.002,-0.001,-0.016,-0.001,0.001,-0.001,1.121,0.794,28.877
1747675557.27,0.002,0.000,-0.015,-0.000,-0.000,-0.001,1.121,0.794,28.877
1747675557.28,0.001,0.001,-0.016,-0.004,0.000,-0.000,1.120,0.794,28.878
1747675557.29,0.001,0.001,-0.017,0.001,-0.000,-0.001,1.120,0.794,28.878
1747675557.30,0.000,0.001,-0.016,0.001,0.001,-0.000,1.120,0.794,28.878
1747675557.31,-0.000,0.002,-0.015,-0.001,0.000,0.001,1.120,0.794,28.878
1747675557.32,-0.000,0.001,-0.016,-0.000,0.002,0.003,1.121,0.795,28.878
1747675557.33,-0.000,0.001,-0.017,0.000,-0.000,-0.001,1.121,0.796,28.877
1747675557.34,0.001,0.000,-0.016,-0.001,-0.001,-0.002,1.121,0.796,28.877
1747675557.35,0.001,0.000,-0.016,-0.001,-0.001,-0.000,1.121,0.796,28.877
1747675557.36,0.000,-0.001,-0.016,0.001,-0.000,0.000,1.121,0.795,28.877
1747675557.37,0.001,-0.000,-0.017,0.002,0.002,0.001,1.121,0.795,28.877
1747675557.38,-0.000,-0.001,-0.015,0.001,0.001,-0.000,1.121,0.795,28.878
1747675557.39,-0.000,-0.001,-0.019,-0.002,0.002,0.001,1.121,0.796,28.878
1747675557.40,-0.000,-0.001,-0.015,0.000,0.001,0.003,1.121,0.797,28.880
1747675557.41,-0.001,-0.000,-0.018,-0.001,-0.002,-0.005,1.121,0.796,28.879
1747675557.42,-0.001,-0.001,-0.016,0.002,-0.001,-0.001,1.121,0.796,28.879
1747675557.43,-0.001,-0.001,-0.016,0.002,-0.001,-0.002,1.122,0.796,28.878
1747675557.44,-0.001,-0.000,-0.016,0.000,-0.001,0.001,1.122,0.796,28.878
1747675557.45,0.000,-0.000,-0.016,0.000,-0.000,0.004,1.122,0.796,28.878
1747675557.46,0.001,0.000,-0.016,-0.002,0.002,-0.002,1.121,0.796,28.878
1747675557.47,0.001,0.000,-0.016,-0.000,0.000,-0.001,1.120,0.796,28.878
1747675557.48,0.001,-0.001,-0.016,-0.001,-0.000,-0.001,1.119,0.796,28.878
1747675557.49,0.002,-0.001,-0.016,0.001,-0.001,0.001,1.121,0.795,28.878
1747675557.50,0.003,-0.000,-0.016,-0.002,0.001,0.000,1.120,0.795,28.878
1747675557.51,0.001,-0.001,-0.016,-0.002,-0.001,0.000,1.120,0.795,28.878
1747675557.52,0.001,0.001,-0.017,0.000,0.002,0.001,1.120,0.795,28.877
1747675557.53,0.001,0.000,-0.015,-0.001,-0.000,-0.000,1.120,0.794,28.878
1747675557.54,0.000,-0.000,-0.016,-0.001,-0.000,0.002,1.120,0.794,28.878
1747675557.55,0.000,0.000,-0.015,0.001,0.001,-0.001,1.119,0.794,28.878
1747675557.56,0.001,0.001,-0.016,0.001,0.000,-0.002,1.120,0.794,28.878
1747675557.57,0.001,0.000,-0.016,-0.001,0.001,-0.001,1.119,0.794,28.878
1747675557.58,-0.000,0.001,-0.016,0.000,0.000,0.001,1.119,0.795,28.878
1747675557.59,-0.000,0.001,-0.016,0.001,-0.000,-0.000,1.119,0.794,28.878
1747675557.60,-0.000,0.001,-0.016,0.001,0.000,0.001,1.120,0.795,28.878
1747675557.61,-0.001,0.001,-0.017,-0.001,0.002,0.000,1.120,0.794,28.878
1747675557.62,-0.001,0.000,-0.016,0.001,-0.000,-0.003,1.121,0.795,28.878
1747675557.63,-0.001,0.001,-0.015,0.001,0.001,-0.000,1.121,0.795,28.878
1747675557.64,-0.000,0.000,-0.016,0.026,-0.061,-0.001,1.128,0.779,28.878
1747675557.65,0.003,0.000,-0.024,0.002,-0.005,0.001,1.131,0.775,28.878
1747675557.66,-0.002,-0.002,-0.006,0.006,-0.014,-0.000,1.135,0.767,28.878
1747675557.67,0.001,0.000,-0.021,0.003,-0.009,0.001,1.138,0.761,28.878
1747675557.68,0.000,-0.001,-0.017,0.004,-0.008,-0.004,1.139,0.756,28.878
1747675557.69,0.002,-0.000,-0.016,0.005,-0.012,-0.002,1.141,0.751,28.877
1747675557.70,0.002,-0.000,-0.018,0.003,-0.014,-0.001,1.144,0.744,28.876
1747675557.71,0.002,-0.000,-0.017,0.003,-0.011,-0.002,1.145,0.737,28.876
1747675557.72,0.002,-0.001,-0.014,0.001,-0.007,0.002,1.146,0.732,28.876
1747675557.73,0.001,-0.001,-0.015,-0.001,-0.000,0.000,1.147,0.730,28.876
1747675557.74,0.000,0.001,-0.016,-0.001,0.004,-0.002,1.146,0.730,28.876
1747675557.75,0.000,-0.000,-0.015,-0.004,0.009,-0.002,1.144,0.734,28.876
1747675557.76,-0.001,-0.001,-0.017,-0.006,0.014,-0.001,1.141,0.739,28.876
1747675557.77,-0.002,-0.001,-0.014,-0.006,0.019,0.001,1.138,0.748,28.876
1747675557.78,-0.002,-0.000,-0.015,-0.011,0.032,0.002,1.133,0.762,28.876
1747675557.79,-0.001,-0.001,-0.016,-0.009,0.024,0.000,1.128,0.777,28.877
1747675557.80,0.000,0.000,-0.015,-0.001,0.003,-0.001,1.126,0.783,28.876
1747675557.81,0.001,-0.000,-0.020,-0.002,0.002,-0.001,1.124,0.785,28.876
1747675557.82,0.000,-0.000,-0.017,-0.001,0.001,-0.001,1.123,0.786,28.876
1747675557.83,-0.001,-0.000,-0.017,-0.001,0.004,-0.003,1.123,0.788,28.876
1747675557.84,-0.002,0.001,-0.017,-0.002,0.003,0.000,1.122,0.790,28.876
1747675557.85,-0.001,-0.000,-0.016,0.001,0.002,0.002,1.123,0.791,28.876
1747675557.86,-0.000,-0.000,-0.015,-0.001,0.001,0.002,1.123,0.791,28.876
1747675557.87,0.002,0.001,-0.016,0.000,0.002,-0.002,1.123,0.792,28.876
1747675557.88,0.002,0.000,-0.015,0.001,0.001,-0.004,1.123,0.792,28.875
1747675557.89,0.002,0.001,-0.015,0.000,0.000,-0.000,1.124,0.792,28.875
1747675557.90,0.001,-0.001,-0.016,0.000,0.001,-0.000,1.124,0.793,28.874
1747675557.91,0.000,-0.000,-0.017,0.001,-0.002,0.001,1.124,0.794,28.875
1747675557.92,0.000,0.000,-0.017,0.002,0.000,-0.000,1.124,0.794,28.874
1747675557.93,0.001,0.000,-0.017,0.000,-0.001,0.001,1.124,0.793,28.874
1747675557.94,0.001,-0.000,-0.016,-0.000,-0.002,0.001,1.123,0.793,28.874
1747675557.95,0.000,-0.001,-0.015,0.001,0.001,-0.001,1.124,0.792,28.874
1747675557.96,0.002,-0.000,-0.016,0.000,0.000,-0.001,1.124,0.793,28.874
1747675557.97,0.000,-0.001,-0.015,0.001,0.001,-0.002,1.124,0.793,28.874
1747675557.98,0.000,-0.000,-0.016,-0.001,0.003,0.000,1.124,0.793,28.874
1747675557.99,-0.000,-0.001,-0.016,0.000,-0.003,-0.000,1.124,0.793,28.873
1747675558.00,-0.000,-0.001,-0.016,-0.000,0.002,-0.001,1.124,0.793,28.873
1747675558.01,-0.001,-0.000,-0.017,-0.001,0.000,0.002,1.124,0.793,28.873
1747675558.02,-0.001,-0.000,-0.016,0.000,0.000,-0.000,1.122,0.793,28.874
1747675558.03,-0.001,0.000,-0.016,0.000,0.001,-0.003,1.122,0.792,28.873
1747675558.04,-0.000,0.000,-0.016,-0.000,0.000,-0.001,1.123,0.792,28.872
1747675558.05,-0.001,0.001,-0.018,0.001,0.001,0.002,1.123,0.792,28.872
1747675558.06,-0.001,-0.000,-0.018,0.002,0.000,-0.001,1.123,0.792,28.872
1747675558.07,-0.000,0.000,-0.016,-0.001,0.000,-0.001,1.124,0.792,28.871
1747675558.08,-0.000,0.001,-0.015,0.001,-0.001,0.001,1.123,0.791,28.871
1747675558.08,0.000,0.001,-0.016,0.000,0.001,-0.000,1.124,0.791,28.871
1747675558.10,0.001,0.001,-0.017,-0.000,-0.000,-0.001,1.124,0.791,28.871
1747675558.11,0.002,-0.000,-0.016,-0.002,-0.001,-0.001,1.123,0.791,28.871
1747675558.11,0.001,-0.000,-0.017,0.000,0.002,-0.001,1.122,0.790,28.871
1747675558.12,0.002,-0.001,-0.016,-0.000,0.001,-0.001,1.122,0.791,28.871
1747675558.14,0.002,-0.001,-0.018,0.002,-0.001,-0.002,1.122,0.791,28.870
1747675558.14,0.002,-0.001,-0.015,0.000,-0.002,0.002,1.122,0.790,28.869
1747675558.16,0.002,-0.000,-0.017,0.000,0.001,0.001,1.122,0.789,28.869
1747675558.16,0.001,-0.000,-0.014,-0.002,0.000,0.002,1.122,0.790,28.870
1747675558.18,-0.000,-0.001,-0.016,-0.002,0.001,0.001,1.120,0.790,28.872
1747675558.18,0.000,-0.000,-0.016,0.000,0.001,-0.001,1.120,0.790,28.871
1747675558.20,-0.001,0.000,-0.016,-0.000,-0.001,0.001,1.120,0.790,28.871
1747675558.20,-0.000,0.001,-0.016,0.001,-0.001,-0.001,1.120,0.791,28.872
1747675558.21,-0.001,0.001,-0.016,0.002,-0.002,-0.001,1.121,0.790,28.872
1747675558.22,-0.001,0.000,-0.015,0.000,0.003,-0.001,1.121,0.791,28.871
1747675558.23,-0.001,0.000,-0.017,-0.000,0.000,-0.001,1.121,0.791,28.871
1747675558.24,-0.001,0.000,-0.016,-0.001,0.002,0.000,1.122,0.791,28.871
1747675558.25,-0.002,0.000,-0.015,-0.001,0.001,0.000,1.122,0.792,28.871
1747675558.26,-0.000,-0.000,-0.016,0.001,0.003,0.000,1.121,0.792,28.871
1747675558.27,0.001,-0.001,-0.016,0.001,0.000,0.001,1.122,0.792,28.871
1747675558.28,0.001,-0.001,-0.016,-0.002,0.001,-0.002,1.122,0.793,28.871
1747675558.29,0.002,-0.000,-0.017,0.025,-0.049,0.001,1.125,0.786,28.871
1747675558.30,0.003,-0.000,-0.017,-0.003,0.006,0.001,1.128,0.780,28.871
1747675558.31,-0.000,-0.000,-0.009,0.004,-0.001,0.001,1.131,0.776,28.871
1747675558.32,0.001,0.002,-0.017,0.002,-0.003,-0.000,1.132,0.775,28.871
1747675558.33,0.000,0.001,-0.016,0.001,-0.002,0.001,1.133,0.774,28.872
1747675558.34,0.001,0.002,-0.015,0.000,-0.005,-0.001,1.134,0.772,28.872
1747675558.35,0.002,0.001,-0.017,0.002,-0.006,0.001,1.134,0.769,28.872
1747675558.36,0.002,0.000,-0.015,0.001,-0.005,-0.002,1.135,0.767,28.872
1747675558.37,0.000,0.001,-0.015,-0.000,-0.001,-0.002,1.135,0.765,28.871
1747675558.38,0.000,-0.001,-0.016,-0.001,0.001,-0.000,1.134,0.765,28.871
1747675558.39,-0.001,-0.002,-0.015,-0.004,0.004,-0.000,1.132,0.766,28.871
1747675558.40,-0.001,-0.002,-0.017,-0.006,0.012,0.002,1.129,0.771,28.871
1747675558.41,-0.002,-0.002,-0.016,-0.009,0.013,-0.000,1.124,0.779,28.872
1747675558.42,-0.002,-0.002,-0.015,-0.003,0.006,0.000,1.120,0.785,28.872
1747675558.43,-0.001,-0.001,-0.016,-0.001,0.003,-0.001,1.119,0.787,28.872
