Time,AccX,AccY,AccZ,GyroX,GyroY,GyroZ,Pitch,Roll,Yaw
1747511473.85,0.056,0.015,-0.040,-0.058,-0.083,0.162,28.477,8.849,-44.771
1747511473.87,0.031,0.007,-0.026,-0.096,-0.267,0.303,28.447,8.483,-44.455
1747511473.89,0.011,-0.007,-0.028,-0.232,-0.189,0.315,28.312,7.999,-44.015
1747511473.91,0.007,0.011,-0.005,-0.226,-0.115,0.274,28.075,7.642,-43.589
1747511473.93,0.017,0.023,-0.000,-0.060,-0.172,0.182,27.949,7.337,-43.269
1747511473.95,0.020,0.039,0.021,-0.015,-0.261,0.140,27.940,6.992,-43.067
1747511473.97,0.017,0.029,0.026,-0.031,-0.379,0.097,27.930,6.565,-42.902
1747511473.99,0.014,0.025,0.073,-0.124,-0.797,-0.006,27.852,5.893,-42.835
1747511474.01,0.077,-0.002,0.176,-0.113,-1.106,0.051,27.702,4.767,-42.805
1747511474.03,0.154,0.059,0.083,-0.021,-1.292,-0.068,27.616,3.349,-42.783
1747511474.05,0.071,0.102,-0.028,0.159,-0.693,-0.227,27.694,2.258,-42.985
1747511474.07,-0.080,0.035,-0.128,0.311,-0.406,-0.259,27.950,1.849,-43.320
1747511474.09,-0.151,-0.019,-0.099,0.235,-0.450,-0.119,28.288,1.495,-43.613
1747511474.11,0.089,0.001,0.065,0.043,-0.475,0.112,28.438,0.997,-43.590
1747511474.13,0.104,0.015,0.004,0.095,-0.549,-0.004,28.490,0.327,-43.495
1747511474.15,0.104,0.029,-0.022,0.410,-0.361,-0.248,28.767,-0.100,-43.654
1747511474.17,0.064,0.054,-0.029,0.642,-0.401,-0.409,29.395,-0.309,-44.109
1747511474.19,0.026,0.042,0.049,0.516,-0.663,-0.267,30.097,-0.650,-44.586
1747511474.21,0.118,0.018,0.101,0.140,-0.945,0.124,30.474,-1.520,-44.672
1747511474.23,0.186,0.014,0.087,-0.006,-1.163,0.366,30.501,-2.954,-44.316
1747511474.25,0.155,0.071,0.043,0.182,-1.109,0.317,30.556,-4.466,-43.842
1747511474.27,0.098,0.085,-0.020,0.287,-1.034,0.195,30.825,-5.906,-43.461
1747511474.29,0.079,0.044,0.015,0.163,-0.999,0.057,31.057,-7.107,-43.283
1747511474.31,0.089,0.009,-0.054,0.278,-1.296,0.147,31.272,-8.531,-43.104
1747511474.33,0.138,0.011,-0.091,0.226,-1.101,-0.073,31.579,-10.061,-42.949
1747511474.35,0.206,0.160,0.116,0.001,-0.825,-0.293,31.747,-11.021,-43.184
1747511474.37,0.198,0.184,0.153,-0.119,-0.973,-0.475,31.761,-11.660,-43.702
1747511474.39,-0.024,0.122,-0.209,-0.144,-1.698,-0.428,31.724,-12.962,-44.332
1747511474.41,0.003,-0.001,-0.098,-0.176,-1.677,-0.532,31.669,-14.540,-45.003
1747511474.43,0.069,0.045,-0.029,-0.184,-1.784,-0.629,31.647,-16.056,-45.823
1747511474.45,0.016,0.106,-0.009,-0.181,-2.062,-0.575,31.657,-17.823,-46.698
1747511474.47,0.021,0.107,0.135,-0.120,-1.999,-0.071,31.605,-19.904,-47.174
1747511474.49,0.151,0.074,0.178,0.304,-1.286,0.352,31.539,-22.090,-46.981
1747511474.51,0.223,-0.137,0.415,0.675,-2.163,0.305,32.064,-24.271,-46.127
1747511474.53,-0.042,0.181,0.250,-0.033,-2.202,-0.218,32.373,-26.941,-45.875
1747511474.55,0.039,0.210,0.294,0.005,-1.959,-0.536,32.440,-29.030,-46.433
1747511474.57,0.011,0.143,0.400,0.149,-1.646,-0.773,33.004,-30.689,-47.115
1747511474.59,0.095,0.260,0.472,-0.563,-1.269,-0.654,33.231,-31.760,-48.159
1747511474.61,0.596,0.139,0.460,-0.691,-0.751,0.332,32.717,-32.596,-48.853
1747511474.63,0.778,0.289,0.577,-1.271,-0.062,0.554,31.488,-33.018,-48.872
1747511474.65,0.536,0.607,0.604,-1.771,0.437,-0.609,29.920,-32.345,-50.026
1747511474.67,0.448,0.660,0.626,-1.687,1.437,-1.183,28.834,-30.083,-52.304
1747511474.69,0.614,0.566,0.603,-1.972,1.669,-0.787,27.609,-27.171,-54.601
1747511474.71,0.491,0.389,0.480,-2.663,1.592,0.168,25.391,-24.520,-56.250
1747511474.73,0.202,0.079,0.097,-2.781,0.248,1.098,22.209,-23.278,-56.944
1747511474.75,-0.009,-0.115,-0.098,-2.272,-0.143,1.696,18.828,-23.337,-56.553
1747511474.77,0.094,-0.116,-0.333,-1.648,-0.121,1.725,16.042,-23.876,-55.578
1747511474.79,0.181,0.024,-0.194,-1.678,1.106,1.310,13.607,-23.603,-54.638
1747511474.81,-0.108,0.162,-0.039,-1.957,1.689,0.116,11.361,-21.900,-54.672
1747511474.83,-0.433,0.125,-0.111,-2.077,1.238,-0.363,9.300,-19.944,-55.774
1747511474.85,-0.422,-0.052,-0.278,-2.176,0.456,0.460,6.988,-18.855,-56.590
1747511474.87,-0.298,-0.017,-0.496,-1.969,0.088,0.890,4.461,-18.694,-56.530
1747511474.89,-0.340,0.033,-0.438,-1.891,0.465,0.396,2.123,-18.408,-56.503
1747511474.91,-0.500,0.155,-0.442,-1.895,0.750,0.043,-0.008,-17.669,-56.968
1747511474.93,-0.445,0.112,-0.451,-1.940,0.557,-0.000,-2.109,-16.933,-57.614
1747511474.95,-0.384,0.055,-0.380,-1.885,0.818,-0.108,-4.217,-16.229,-58.273
1747511474.97,-0.344,0.092,-0.345,-1.783,0.967,-0.265,-6.161,-15.215,-59.070
1747511474.99,-0.299,0.176,-0.521,-1.730,0.612,-0.333,-8.036,-14.471,-59.930
1747511475.01,-0.368,0.264,-0.492,-1.455,0.679,-0.494,-9.693,-13.906,-60.834
1747511475.03,-0.305,0.146,-0.464,-1.353,0.774,-0.520,-11.082,-13.241,-61.813
1747511475.05,-0.230,0.105,-0.427,-1.241,0.722,-0.332,-12.445,-12.548,-62.653
1747511475.07,-0.243,-0.000,-0.426,-0.951,0.687,-0.059,-13.622,-11.847,-63.138
1747511475.09,-0.233,0.011,-0.433,-0.882,0.528,-0.415,-14.578,-11.235,-63.526
1747511475.11,-0.269,0.194,-0.394,-0.745,0.936,-1.142,-15.324,-10.766,-64.649
1747511475.13,-0.175,0.113,-0.172,-0.998,1.598,-1.558,-15.924,-9.853,-66.334
1747511475.15,0.064,0.283,0.059,-2.200,3.034,-2.121,-17.507,-7.980,-69.038
1747511475.17,0.059,-0.095,-0.083,-2.234,2.683,-1.560,-19.825,-5.409,-71.603
1747511475.19,0.097,-0.264,-0.402,-2.025,3.126,-0.803,-22.182,-2.933,-73.224
1747511475.21,0.167,-0.237,-0.586,-0.649,2.108,0.250,-23.803,0.158,-73.634
1747511475.23,0.041,0.012,-0.582,0.147,0.730,0.251,-24.014,1.898,-73.261
1747511475.25,-0.029,0.067,-0.110,0.093,0.596,0.376,-23.794,2.815,-72.875
1747511475.27,-0.081,-0.091,-0.363,-0.187,-0.032,0.512,-23.537,3.186,-72.391
1747511475.29,0.040,-0.091,-0.147,0.079,0.038,0.866,-23.574,3.502,-71.534
1747511475.31,-0.020,0.066,0.022,0.286,0.328,0.862,-23.315,4.168,-70.413
1747511475.33,-0.206,0.012,0.080,0.792,-0.389,0.677,-22.682,4.555,-69.535
1747511475.35,-0.181,0.092,0.122,1.099,-1.528,0.464,-21.446,3.907,-68.832
1747511475.37,0.042,0.317,-0.110,0.803,-1.189,-0.127,-20.360,1.605,-68.738
1747511475.39,0.140,-0.094,-0.103,-0.094,-0.152,-0.119,-20.024,1.649,-68.987
1747511475.41,-0.242,0.255,0.138,0.035,-0.538,-0.349,-19.936,0.986,-69.263
1747511475.43,-0.036,0.055,-0.044,0.041,-0.343,-0.275,-19.906,0.496,-69.671
1747511475.44,0.050,0.018,-0.001,0.117,-0.748,-0.322,-19.837,-0.165,-70.001
1747511475.46,-0.088,-0.046,0.065,0.713,-0.941,-0.814,-19.445,-1.338,-70.623
1747511475.48,0.064,0.042,-0.036,1.571,-0.602,-1.053,-18.139,-3.023,-71.825
1747511475.51,-0.049,-0.186,0.434,1.706,1.780,-0.727,-16.217,-2.663,-72.812
1747511475.52,0.118,-0.157,-0.213,0.314,-1.469,-0.428,-14.207,-1.438,-73.380
1747511475.54,-0.242,0.439,1.167,0.163,-0.540,0.064,-14.586,-1.337,-73.698
1747511475.56,0.036,-0.071,-0.424,-0.117,0.154,0.193,-14.525,-1.667,-73.555
1747511475.58,0.162,0.124,-0.127,-0.015,0.039,0.002,-14.552,-1.629,-73.452
1747511475.60,-0.004,0.010,0.013,-0.012,0.032,0.000,-14.580,-1.560,-73.453
1747511475.62,-0.012,0.011,-0.049,0.017,-0.044,0.001,-14.573,-1.569,-73.450
1747511475.64,-0.018,0.024,-0.012,0.027,-0.052,0.001,-14.541,-1.641,-73.449
1747511475.66,-0.011,0.011,-0.014,0.024,-0.028,0.006,-14.513,-1.687,-73.445
1747511475.68,-0.007,0.007,-0.023,0.007,0.023,0.004,-14.490,-1.697,-73.437
1747511475.70,-0.020,0.027,-0.001,-0.026,0.164,0.060,-14.500,-1.609,-73.422
1747511475.72,0.081,-0.169,0.015,0.016,0.137,1.129,-14.483,-1.161,-72.783
1747511475.74,0.115,-0.073,-0.053,-0.003,-0.030,1.553,-14.502,-0.701,-71.080
1747511475.76,0.076,-0.040,-0.019,-0.011,-0.057,1.509,-14.530,-0.299,-69.292
1747511475.78,-0.071,0.116,-0.017,0.009,-0.151,1.324,-14.536,0.015,-67.612
1747511475.80,-0.075,0.130,-0.025,0.023,-0.162,0.689,-14.517,0.121,-66.330
1747511475.82,-0.249,0.204,0.033,0.009,-0.059,0.002,-14.510,0.115,-66.082
1747511475.84,0.034,0.006,-0.027,0.006,-0.080,0.004,-14.502,0.034,-66.077
1747511475.86,-0.019,0.031,-0.017,-0.004,-0.107,-0.000,-14.501,-0.069,-66.074
1747511475.88,-0.028,0.030,0.020,0.002,-0.084,0.191,-14.505,-0.169,-66.025
1747511475.90,-0.088,-0.075,0.090,0.009,-0.044,0.397,-14.500,0.047,-65.577
1747511475.92,-0.047,0.097,-0.054,-0.003,0.065,0.292,-14.496,0.132,-65.267
1747511475.94,0.115,0.053,-0.048,0.007,-0.028,-0.017,-14.511,0.112,-65.351
1747511475.96,0.040,0.028,-0.007,-0.005,-0.005,-0.001,-14.518,0.113,-65.353
1747511475.98,-0.011,0.016,-0.007,-0.008,0.009,0.003,-14.521,0.112,-65.355
1747511476.00,-0.012,0.031,0.004,-0.010,0.019,0.002,-14.532,0.117,-65.356
1747511476.02,-0.006,0.040,0.002,-0.009,0.019,-0.001,-14.550,0.141,-65.354
1747511476.04,-0.011,0.011,-0.023,-0.010,0.014,0.001,-14.570,0.175,-65.353
1747511476.06,-0.001,0.018,-0.013,-0.004,-0.000,0.004,-14.580,0.180,-65.350
1747511476.08,-0.002,0.035,0.006,-0.004,0.004,0.003,-14.588,0.180,-65.348
1747511476.10,-0.023,0.012,-0.014,-0.011,0.013,0.000,-14.608,0.189,-65.346
1747511476.12,-0.022,0.011,-0.009,-0.003,0.002,-0.001,-14.625,0.194,-65.350
1747511476.14,0.005,0.024,-0.014,-0.002,-0.001,0.001,-14.635,0.186,-65.352
1747511476.16,-0.001,0.007,-0.024,-0.008,0.010,0.002,-14.661,0.187,-65.349
1747511476.18,-0.013,0.001,-0.021,-0.004,-0.004,0.003,-14.678,0.183,-65.349
1747511476.20,-0.012,0.010,-0.021,-0.010,0.005,0.001,-14.686,0.166,-65.349
1747511476.22,-0.023,0.006,0.001,-0.011,0.015,-0.004,-14.715,0.194,-65.352
1747511476.24,-0.013,0.002,-0.026,-0.022,0.050,-0.009,-14.729,0.214,-65.357
1747511476.26,-0.006,0.004,-0.025,-0.028,0.130,-0.053,-14.759,0.286,-65.377
1747511476.28,-0.021,0.065,-0.018,-0.014,0.103,-0.067,-14.746,0.426,-65.552
1747511476.30,0.007,-0.032,-0.060,-0.003,0.017,0.000,-14.758,0.453,-65.566
1747511476.32,-0.008,0.006,-0.020,-0.004,0.009,0.002,-14.760,0.460,-65.567
1747511476.34,-0.024,0.009,-0.018,-0.003,0.014,-0.003,-14.763,0.470,-65.570
1747511476.36,-0.017,0.015,-0.012,-0.007,0.007,-0.003,-14.780,0.473,-65.578
1747511476.38,-0.002,0.019,-0.011,-0.004,-0.005,-0.004,-14.767,0.476,-65.584
1747511476.40,-0.000,0.013,-0.022,-0.002,-0.005,-0.002,-14.769,0.470,-65.587
1747511476.42,-0.012,0.021,-0.003,-0.002,-0.002,-0.006,-14.773,0.459,-65.594
1747511476.44,-0.021,0.044,0.010,-0.002,-0.007,-0.011,-14.778,0.443,-65.606
1747511476.46,-0.021,0.036,-0.002,-0.004,-0.017,-0.007,-14.789,0.421,-65.619
1747511476.48,0.016,0.028,-0.001,-0.006,-0.003,-0.003,-14.799,0.407,-65.625
1747511476.50,0.028,0.039,0.014,-0.006,0.008,0.005,-14.815,0.406,-65.622
1747511476.52,-0.016,0.042,0.014,-0.009,0.009,0.003,-14.858,0.400,-65.620
1747511476.54,-0.028,0.038,0.009,-0.004,0.035,-0.016,-14.896,0.396,-65.629
1747511476.56,-0.008,0.038,0.016,-0.008,0.015,-0.086,-14.922,0.422,-65.676
1747511476.58,0.042,-0.060,-0.009,-0.007,0.009,0.019,-14.954,0.442,-65.719
1747511476.60,-0.031,0.101,-0.007,-0.007,-0.004,0.007,-14.980,0.447,-65.707
1747511476.62,0.002,0.008,-0.015,-0.007,-0.006,0.005,-14.997,0.435,-65.703
1747511476.64,-0.019,0.025,0.001,-0.010,-0.016,0.000,-15.018,0.417,-65.700
1747511476.66,-0.028,0.036,0.011,-0.011,-0.014,-0.004,-15.020,0.408,-65.701
1747511476.68,-0.016,0.012,-0.018,-0.005,-0.032,-0.005,-15.042,0.381,-65.707
1747511476.70,0.009,0.019,-0.014,-0.004,-0.032,-0.002,-15.058,0.342,-65.714
1747511476.72,0.004,0.027,-0.000,-0.001,-0.020,-0.003,-15.066,0.306,-65.717
1747511476.74,-0.012,0.027,0.003,-0.006,-0.003,-0.003,-15.084,0.281,-65.721
1747511476.76,-0.015,0.029,0.007,-0.007,0.031,-0.001,-15.099,0.286,-65.727
1747511476.78,-0.011,0.036,0.022,-0.003,0.039,0.000,-15.109,0.333,-65.729
1747511476.80,-0.004,0.038,0.010,-0.001,0.039,-0.005,-15.128,0.385,-65.729
1747511476.82,-0.001,0.033,-0.001,0.004,0.027,-0.003,-15.146,0.411,-65.735
1747511476.84,0.004,0.046,0.013,0.002,0.018,-0.100,-15.162,0.417,-65.761
1747511476.86,0.055,-0.036,0.009,0.004,-0.011,0.002,-15.192,0.364,-65.836
1747511476.88,-0.033,0.046,0.011,0.004,0.000,0.001,-15.210,0.351,-65.837
1747511476.90,0.008,0.032,0.016,0.003,0.001,0.005,-15.223,0.352,-65.832
1747511476.92,-0.007,0.035,0.006,0.007,-0.002,0.001,-15.238,0.357,-65.826
1747511476.94,-0.040,0.037,0.019,0.012,-0.003,-0.005,-15.229,0.368,-65.825
1747511476.96,-0.005,0.013,-0.014,0.015,-0.002,-0.004,-15.244,0.340,-65.837
1747511476.98,0.018,0.020,0.001,0.020,0.007,-0.000,-15.235,0.347,-65.837
1747511477.00,0.002,0.020,0.009,0.023,0.011,0.003,-15.224,0.360,-65.835
1747511477.02,-0.026,0.017,0.003,0.022,-0.019,-0.003,-15.218,0.340,-65.841
1747511477.04,-0.023,0.030,0.014,0.024,-0.018,-0.009,-15.204,0.309,-65.853
1747511477.06,0.008,0.010,-0.004,0.032,-0.014,-0.003,-15.183,0.300,-65.856
1747511477.08,0.011,0.014,-0.002,0.037,-0.015,-0.000,-15.160,0.293,-65.856
1747511477.10,-0.006,0.017,0.001,0.043,-0.020,-0.002,-15.124,0.264,-65.860
1747511477.12,-0.015,0.018,0.008,0.045,-0.024,-0.006,-15.095,0.216,-65.868
1747511477.14,-0.009,0.012,0.008,0.056,-0.004,0.000,-15.047,0.201,-65.871
1747511477.16,0.008,-0.002,-0.007,0.062,0.021,0.005,-14.987,0.225,-65.866
1747511477.18,0.001,0.009,0.002,0.067,0.005,0.002,-14.925,0.243,-65.862
1747511477.20,-0.012,0.004,-0.015,0.075,-0.012,-0.001,-14.857,0.229,-65.865
1747511477.22,-0.011,-0.005,-0.011,0.082,0.001,-0.003,-14.780,0.214,-65.868
1747511477.24,-0.006,-0.002,-0.003,0.091,0.016,0.000,-14.682,0.228,-65.869
1747511477.26,-0.009,-0.004,-0.009,0.093,0.010,-0.007,-14.586,0.243,-65.872
1747511477.28,-0.002,-0.011,-0.015,0.102,0.013,-0.000,-14.480,0.249,-65.875
1747511477.30,-0.003,-0.016,-0.022,0.106,0.016,0.001,-14.360,0.258,-65.876
1747511477.32,-0.003,-0.009,-0.018,0.112,-0.005,-0.000,-14.236,0.258,-65.877
1747511477.34,-0.006,-0.016,-0.026,0.112,-0.018,-0.001,-14.111,0.239,-65.878
1747511477.36,-0.010,-0.014,-0.021,0.118,-0.011,-0.004,-13.977,0.218,-65.881
1747511477.38,-0.014,-0.014,-0.018,0.124,0.006,-0.003,-13.833,0.216,-65.884
1747511477.40,-0.011,-0.017,-0.020,0.129,0.004,-0.000,-13.688,0.221,-65.888
1747511477.42,0.002,-0.019,-0.033,0.132,-0.005,0.002,-13.537,0.219,-65.889
1747511477.44,0.004,-0.023,-0.041,0.135,-0.012,0.002,-13.382,0.209,-65.889
1747511477.46,-0.006,-0.010,-0.017,0.138,-0.015,-0.004,-13.226,0.194,-65.890
1747511477.48,-0.019,-0.020,-0.036,0.136,-0.024,-0.004,-13.066,0.168,-65.894
1747511477.50,-0.009,-0.020,-0.033,0.139,-0.014,-0.001,-12.907,0.144,-65.898
1747511477.52,0.006,-0.018,-0.027,0.142,-0.003,0.001,-12.742,0.137,-65.897
1747511477.54,0.002,-0.018,-0.034,0.141,0.005,0.005,-12.579,0.142,-65.893
1747511477.56,-0.014,-0.015,-0.038,0.142,-0.016,-0.002,-12.416,0.134,-65.892
1747511477.58,-0.025,-0.016,-0.037,0.142,-0.019,-0.003,-12.253,0.110,-65.897
1747511477.60,0.000,-0.013,-0.035,0.140,-0.011,-0.004,-12.090,0.091,-65.899
1747511477.62,0.008,-0.015,-0.032,0.140,-0.009,0.001,-11.928,0.084,-65.899
1747511477.64,-0.010,-0.012,-0.036,0.135,-0.007,0.002,-11.768,0.071,-65.897
1747511477.66,-0.011,-0.013,-0.039,0.132,-0.008,-0.001,-11.614,0.061,-65.899
1747511477.68,-0.011,-0.008,-0.026,0.134,-0.002,-0.004,-11.461,0.055,-65.903
1747511477.70,-0.010,-0.008,-0.031,0.130,-0.000,-0.005,-11.308,0.053,-65.908
1747511477.72,-0.006,-0.010,-0.039,0.129,0.006,-0.005,-11.158,0.054,-65.914
1747511477.74,-0.005,-0.007,-0.027,0.124,0.011,-0.002,-11.009,0.066,-65.919
1747511477.76,0.002,-0.007,-0.033,0.123,0.015,0.000,-10.867,0.079,-65.922
1747511477.78,-0.002,-0.004,-0.029,0.119,0.006,-0.004,-10.728,0.089,-65.925
1747511477.80,-0.012,-0.006,-0.037,0.115,-0.018,-0.005,-10.593,0.080,-65.928
1747511477.82,-0.010,0.000,-0.028,0.113,-0.021,-0.006,-10.462,0.053,-65.934
1747511477.84,-0.002,-0.002,-0.031,0.112,-0.022,-0.002,-10.333,0.028,-65.939
1747511477.86,0.003,-0.005,-0.034,0.109,-0.022,0.000,-10.206,0.003,-65.940
1747511477.88,0.003,-0.003,-0.029,0.108,-0.008,0.004,-10.081,-0.018,-65.937
1747511477.90,-0.001,0.001,-0.023,0.100,0.011,0.005,-9.964,-0.010,-65.934
1747511477.92,-0.010,-0.001,-0.033,0.101,0.001,0.002,-9.850,-0.003,-65.930
1747511477.94,-0.009,0.001,-0.031,0.094,-0.003,0.001,-9.739,-0.005,-65.928
1747511477.96,-0.002,-0.000,-0.032,0.091,-0.002,0.003,-9.633,-0.009,-65.925
1747511477.98,0.003,0.003,-0.028,0.088,0.001,0.006,-9.531,-0.008,-65.919
1747511478.00,-0.008,0.001,-0.034,0.084,0.000,0.002,-9.432,-0.006,-65.915
1747511478.02,-0.017,0.007,-0.027,0.081,0.000,-0.001,-9.339,-0.003,-65.915
1747511478.04,-0.012,0.002,-0.039,0.075,0.000,-0.001,-9.253,-0.002,-65.915
1747511478.06,0.008,0.006,-0.026,0.070,0.007,0.005,-9.170,0.003,-65.914
1747511478.08,0.002,0.002,-0.039,0.065,0.007,0.004,-9.094,0.010,-65.908
1747511478.10,-0.013,0.006,-0.022,0.057,0.003,-0.000,-9.023,0.016,-65.905
1747511478.12,-0.016,0.004,-0.033,0.059,-0.005,0.000,-8.957,0.011,-65.905
1747511478.14,-0.005,0.007,-0.027,0.054,-0.006,0.002,-8.895,0.008,-65.906
1747511478.16,0.003,0.006,-0.028,0.051,0.005,0.002,-8.835,0.012,-65.904
1747511478.18,-0.005,0.004,-0.036,0.039,-0.003,0.001,-8.784,0.015,-65.902
1747511478.20,-0.015,0.007,-0.021,0.037,-0.000,-0.003,-8.740,0.015,-65.904
1747511478.22,-0.004,0.005,-0.037,0.034,-0.000,0.000,-8.699,0.010,-65.906
1747511478.24,0.013,0.009,-0.021,0.029,0.000,0.005,-8.663,0.015,-65.903
1747511478.26,-0.008,0.007,-0.029,0.024,-0.002,-0.000,-8.633,0.017,-65.901
1747511478.28,-0.032,0.007,-0.030,0.022,-0.024,-0.006,-8.608,0.005,-65.906
1747511478.30,-0.015,0.009,-0.027,0.017,-0.022,-0.008,-8.586,-0.028,-65.914
1747511478.32,0.022,0.006,-0.032,0.012,-0.004,-0.000,-8.570,-0.043,-65.916
1747511478.34,0.017,0.004,-0.021,0.006,0.008,0.005,-8.559,-0.037,-65.913
1747511478.36,-0.021,0.004,-0.031,0.002,0.007,0.001,-8.556,-0.032,-65.909
1747511478.38,-0.013,0.011,-0.027,-0.003,0.003,-0.003,-8.558,-0.031,-65.909
1747511478.40,0.001,0.007,-0.028,-0.006,0.004,0.002,-8.565,-0.023,-65.909
1747511478.42,0.002,0.002,-0.025,-0.010,0.008,0.003,-8.574,-0.012,-65.906
1747511478.44,-0.004,0.004,-0.033,-0.013,0.006,0.004,-8.589,-0.009,-65.902
1747511478.46,-0.003,0.011,-0.024,-0.018,0.008,0.005,-8.608,-0.006,-65.899
1747511478.48,-0.007,0.005,-0.020,-0.020,0.012,0.003,-8.629,0.009,-65.895
1747511478.50,-0.009,0.001,-0.023,-0.022,0.013,0.005,-8.653,0.028,-65.891
1747511478.52,-0.003,0.007,-0.027,-0.023,0.009,0.005,-8.678,0.045,-65.887
1747511478.54,0.000,0.010,-0.031,-0.026,0.003,0.003,-8.707,0.051,-65.884
1747511478.56,-0.011,0.004,-0.023,-0.030,-0.010,-0.001,-8.740,0.046,-65.881
1747511478.58,-0.016,0.003,-0.022,-0.030,-0.003,-0.003,-8.775,0.039,-65.882
1747511478.60,-0.001,0.004,-0.025,-0.037,0.006,0.002,-8.814,0.040,-65.884
1747511478.61,0.016,0.008,-0.026,-0.036,0.010,0.003,-8.856,0.050,-65.880
1747511478.64,-0.007,0.003,-0.023,-0.043,0.001,-0.000,-8.899,0.057,-65.875
1747511478.66,-0.023,0.005,-0.025,-0.039,-0.005,-0.004,-8.947,0.053,-65.876
1747511478.67,-0.012,0.008,-0.028,-0.044,-0.002,-0.002,-8.996,0.044,-65.881
1747511478.69,0.008,0.004,-0.030,-0.050,-0.001,0.002,-9.050,0.041,-65.881
1747511478.71,0.012,0.000,-0.014,-0.053,0.010,0.004,-9.107,0.048,-65.876
1747511478.73,-0.010,0.002,-0.031,-0.053,0.005,0.000,-9.164,0.052,-65.874
1747511478.75,-0.032,0.010,-0.018,-0.055,-0.010,-0.006,-9.227,0.047,-65.878
1747511478.77,-0.005,0.004,-0.036,-0.061,-0.004,-0.005,-9.293,0.035,-65.885
1747511478.79,0.024,-0.005,-0.022,-0.062,-0.000,0.002,-9.361,0.038,-65.883
1747511478.81,0.011,0.007,-0.021,-0.062,0.006,0.003,-9.430,0.044,-65.878
1747511478.83,-0.044,0.004,-0.033,-0.069,-0.011,-0.007,-9.505,0.037,-65.881
1747511478.85,-0.016,-0.001,-0.019,-0.071,-0.001,-0.001,-9.584,0.030,-65.888
1747511478.87,0.052,-0.006,-0.032,-0.073,0.020,0.015,-9.665,0.044,-65.880
1747511478.89,0.032,0.005,-0.025,-0.073,0.021,0.015,-9.747,0.072,-65.861
1747511478.91,-0.064,0.003,-0.028,-0.079,0.000,-0.002,-9.834,0.081,-65.854
1747511478.93,-0.047,0.002,-0.035,-0.085,-0.012,-0.005,-9.927,0.065,-65.862
1747511478.95,0.040,-0.005,-0.023,-0.087,0.006,0.009,-10.024,0.068,-65.860
1747511478.97,0.046,-0.002,-0.033,-0.090,0.019,0.013,-10.124,0.090,-65.845
1747511478.99,-0.040,0.003,-0.037,-0.097,0.002,0.001,-10.229,0.100,-65.837
1747511479.01,-0.074,-0.002,-0.035,-0.104,-0.012,-0.013,-10.342,0.085,-65.846
1747511479.03,0.006,-0.001,-0.020,-0.105,0.003,-0.003,-10.460,0.078,-65.857
1747511479.05,0.059,-0.010,-0.052,-0.107,0.014,0.009,-10.581,0.093,-65.853
1747511479.07,0.010,-0.011,-0.034,-0.113,0.003,0.008,-10.707,0.105,-65.841
1747511479.09,-0.059,-0.006,-0.029,-0.119,-0.008,-0.006,-10.839,0.096,-65.841
1747511479.11,-0.039,-0.003,-0.030,-0.125,-0.006,-0.011,-10.976,0.083,-65.853
1747511479.13,0.029,-0.013,-0.044,-0.125,0.007,0.001,-11.116,0.087,-65.857
1747511479.15,0.039,-0.018,-0.038,-0.129,0.011,0.010,-11.259,0.104,-65.851
1747511479.17,-0.019,-0.013,-0.040,-0.135,0.005,-0.000,-11.406,0.109,-65.845
1747511479.19,-0.036,-0.010,-0.040,-0.136,-0.003,-0.002,-11.561,0.099,-65.847
1747511479.21,0.001,-0.018,-0.043,-0.141,0.002,0.001,-11.716,0.097,-65.848
1747511479.23,0.028,-0.019,-0.036,-0.141,0.017,0.008,-11.874,0.114,-65.841
1747511479.25,-0.006,-0.022,-0.035,-0.146,0.011,0.005,-12.036,0.133,-65.831
1747511479.27,-0.030,-0.020,-0.051,-0.151,0.002,0.001,-12.203,0.134,-65.830
1747511479.29,-0.007,-0.027,-0.054,-0.152,-0.003,0.001,-12.372,0.132,-65.830
1747511479.31,0.016,-0.029,-0.047,-0.155,-0.018,0.002,-12.538,0.096,-65.825
1747511479.33,-0.004,-0.032,-0.037,-0.157,0.008,0.008,-12.716,0.114,-65.818
1747511479.35,-0.022,-0.033,-0.055,-0.163,0.011,0.003,-12.895,0.123,-65.813
1747511479.37,-0.023,-0.037,-0.053,-0.162,0.008,-0.005,-13.076,0.130,-65.814
1747511479.39,-0.002,-0.042,-0.055,-0.160,0.010,-0.001,-13.257,0.141,-65.816
1747511479.41,0.011,-0.047,-0.058,-0.161,0.008,0.004,-13.440,0.151,-65.814
1747511479.43,-0.001,-0.055,-0.073,-0.165,0.012,0.005,-13.621,0.160,-65.810
1747511479.45,-0.015,-0.047,-0.054,-0.159,0.020,0.001,-13.799,0.173,-65.806
1747511479.47,-0.025,-0.056,-0.049,-0.154,0.035,-0.001,-13.973,0.205,-65.804
1747511479.49,-0.003,-0.062,-0.071,-0.145,0.041,0.000,-14.138,0.243,-65.804
1747511479.51,0.008,-0.065,-0.067,-0.133,0.067,0.001,-14.294,0.300,-65.801
1747511479.53,-0.005,-0.065,-0.060,-0.121,0.110,0.000,-14.433,0.412,-65.798
1747511479.55,-0.019,-0.070,-0.063,-0.136,-0.021,-0.002,-14.577,0.458,-65.798
1747511479.57,-0.020,-0.071,-0.069,-0.133,-0.065,-0.007,-14.727,0.410,-65.802
1747511479.59,-0.002,-0.061,-0.054,-0.114,-0.033,-0.004,-14.862,0.357,-65.806
1747511479.61,0.021,-0.052,-0.015,-0.097,-0.013,0.002,-14.979,0.334,-65.804
1747511479.63,-0.022,-0.090,-0.096,-0.084,-0.001,0.001,-15.075,0.329,-65.803
1747511479.65,-0.035,-0.071,-0.054,-0.069,-0.025,-0.007,-15.159,0.301,-65.808
1747511479.67,0.010,-0.073,-0.055,-0.049,0.008,-0.002,-15.222,0.289,-65.812
1747511479.69,0.018,-0.072,-0.044,-0.032,0.010,0.006,-15.265,0.299,-65.809
1747511479.71,-0.007,-0.082,-0.068,-0.013,0.002,0.001,-15.282,0.309,-65.805
1747511479.73,-0.035,-0.073,-0.056,0.009,-0.001,-0.006,-15.278,0.300,-65.809
1747511479.75,-0.006,-0.059,-0.030,0.030,0.004,-0.006,-15.249,0.297,-65.816
1747511479.77,0.010,-0.076,-0.046,0.053,0.012,0.001,-15.195,0.310,-65.818
1747511479.79,-0.002,-0.068,-0.047,0.079,0.006,-0.000,-15.111,0.321,-65.819
1747511479.81,-0.016,-0.070,-0.041,0.101,0.006,-0.004,-14.999,0.325,-65.823
1747511479.83,-0.006,-0.051,-0.016,0.125,0.001,-0.002,-14.863,0.332,-65.829
1747511479.85,-0.001,-0.054,-0.032,0.149,-0.003,-0.002,-14.696,0.330,-65.831
1747511479.87,-0.007,-0.069,-0.035,0.175,-0.009,-0.003,-14.497,0.327,-65.836
1747511479.89,-0.000,-0.040,-0.011,0.200,-0.005,-0.004,-14.268,0.318,-65.842
1747511479.91,-0.010,-0.029,0.001,0.224,-0.005,-0.002,-14.012,0.310,-65.845
1747511479.93,-0.013,-0.036,-0.007,0.252,0.008,-0.003,-13.725,0.318,-65.850
1747511479.95,-0.003,-0.038,-0.006,0.275,-0.003,-0.003,-13.395,0.315,-65.857
1747511479.97,0.001,-0.018,0.014,0.302,-0.006,-0.004,-13.050,0.311,-65.863
1747511479.99,-0.000,-0.011,0.017,0.326,-0.002,-0.003,-12.689,0.301,-65.870
1747511480.01,-0.003,-0.014,0.010,0.348,-0.002,-0.002,-12.299,0.289,-65.876
1747511480.03,-0.011,-0.002,0.033,0.371,0.007,-0.004,-11.884,0.289,-65.881
1747511480.05,-0.002,0.020,0.044,0.393,0.014,-0.003,-11.450,0.301,-65.888
1747511480.07,-0.005,0.016,0.041,0.412,0.013,-0.004,-10.991,0.315,-65.895
1747511480.09,0.001,0.014,0.039,0.429,-0.020,-0.003,-10.512,0.311,-65.901
1747511480.11,0.009,0.044,0.060,0.442,-0.016,-0.004,-10.016,0.290,-65.905
1747511480.13,-0.008,0.049,0.064,0.456,-0.018,-0.005,-9.502,0.273,-65.912
1747511480.15,-0.013,0.045,0.065,0.474,-0.009,-0.007,-8.971,0.256,-65.922
1747511480.17,0.012,0.063,0.067,0.487,-0.005,-0.002,-8.421,0.248,-65.928
1747511480.19,0.005,0.073,0.073,0.499,0.001,-0.001,-7.858,0.247,-65.933
1747511480.21,-0.014,0.082,0.083,0.508,-0.015,-0.005,-7.283,0.239,-65.939
1747511480.23,0.006,0.091,0.073,0.521,-0.017,-0.005,-6.697,0.219,-65.947
1747511480.25,0.012,0.095,0.076,0.527,-0.011,-0.003,-6.100,0.200,-65.953
1747511480.27,-0.005,0.113,0.086,0.531,-0.008,-0.003,-5.493,0.187,-65.957
1747511480.29,-0.012,0.119,0.085,0.540,-0.011,-0.006,-4.882,0.176,-65.965
1747511480.31,0.006,0.122,0.073,0.540,-0.015,-0.003,-4.265,0.161,-65.973
1747511480.33,0.006,0.139,0.075,0.546,-0.017,-0.009,-3.643,0.140,-65.980
1747511480.35,0.005,0.142,0.065,0.550,-0.019,-0.005,-3.017,0.117,-65.987
1747511480.37,0.012,0.150,0.062,0.548,-0.024,-0.004,-2.389,0.089,-65.992
1747511480.39,-0.001,0.156,0.069,0.547,-0.021,-0.003,-1.762,0.061,-65.997
1747511480.41,-0.011,0.161,0.062,0.546,-0.019,-0.007,-1.137,0.036,-66.003
1747511480.43,-0.003,0.161,0.052,0.550,-0.010,-0.010,-0.512,0.022,-66.014
1747511480.45,0.016,0.200,0.051,0.547,0.007,-0.379,0.114,0.020,-66.223
1747511480.47,-0.044,0.107,0.043,0.538,-0.023,-0.014,0.733,0.010,-66.431
1747511480.49,0.046,0.173,0.032,0.537,-0.014,-0.001,1.349,-0.008,-66.434
1747511480.51,-0.012,0.167,0.030,0.537,0.023,-0.005,1.962,-0.011,-66.435
1747511480.53,-0.022,0.177,0.035,0.553,0.144,-0.005,2.581,0.065,-66.442
1747511480.55,0.013,0.163,0.014,0.550,0.200,-0.179,3.214,0.283,-66.484
1747511480.57,0.017,0.168,0.014,0.507,-0.035,-0.000,3.810,0.351,-66.634
1747511480.59,-0.009,0.170,0.021,0.489,-0.068,-0.006,4.377,0.290,-66.642
1747511480.61,-0.002,0.165,0.005,0.484,-0.047,-0.022,4.932,0.224,-66.656
1747511480.63,-0.014,0.180,-0.006,0.489,0.017,-0.287,5.489,0.241,-66.901
1747511480.65,0.007,0.151,0.006,0.461,-0.037,-0.140,6.029,0.247,-67.150
1747511480.67,0.035,0.130,-0.005,0.452,-0.013,-0.002,6.553,0.222,-67.211
1747511480.69,-0.014,0.163,0.001,0.439,0.003,-0.001,7.065,0.221,-67.215
1747511480.71,-0.008,0.151,-0.003,0.410,-0.050,-0.006,7.550,0.197,-67.221
1747511480.73,0.008,0.153,-0.007,0.396,-0.061,-0.006,8.011,0.126,-67.227
1747511480.75,-0.001,0.148,-0.013,0.385,-0.044,-0.337,8.455,0.078,-67.314
1747511480.77,-0.153,0.297,-0.014,0.371,-0.013,-0.485,8.888,0.138,-67.878
1747511480.79,0.061,0.036,-0.010,0.357,0.047,-0.128,9.302,0.209,-68.252
1747511480.81,0.092,0.095,-0.014,0.336,0.039,0.003,9.697,0.260,-68.281
1747511480.83,-0.006,0.132,-0.018,0.304,0.037,-0.003,10.068,0.324,-68.286
1747511480.85,-0.012,0.136,-0.027,0.278,-0.043,-0.426,10.406,0.379,-68.430
1747511480.87,-0.110,0.344,-0.019,0.250,-0.085,-0.544,10.702,0.399,-69.040
1747511480.89,-0.001,0.016,-0.063,0.210,-0.060,-0.392,10.968,0.441,-69.609
1747511480.91,0.179,-0.203,-0.015,0.207,-0.015,-0.001,11.208,0.425,-69.687
1747511480.93,-0.008,0.101,-0.038,0.181,-0.007,-0.000,11.427,0.408,-69.691
1747511480.95,-0.012,0.101,-0.036,0.155,-0.025,-0.004,11.620,0.396,-69.696
1747511480.97,-0.001,0.099,-0.034,0.126,-0.030,-0.004,11.779,0.359,-69.701
1747511480.99,-0.012,0.072,-0.056,0.099,-0.001,-0.002,11.907,0.331,-69.705
1747511481.01,-0.004,0.099,-0.035,0.070,0.013,0.001,12.002,0.335,-69.706
1747511481.03,0.000,0.065,-0.058,0.047,-0.002,0.000,12.067,0.341,-69.706
1747511481.05,-0.014,0.059,-0.060,0.020,-0.003,-0.002,12.102,0.341,-69.708
1747511481.07,-0.002,0.069,-0.047,-0.005,-0.009,0.001,12.103,0.335,-69.706
1747511481.09,0.003,0.053,-0.066,-0.031,-0.024,0.001,12.072,0.314,-69.705
1747511481.11,-0.014,0.041,-0.059,-0.066,-0.010,0.000,12.008,0.296,-69.706
1747511481.13,0.004,0.037,-0.068,-0.093,-0.002,-0.002,11.914,0.291,-69.707
1747511481.15,-0.002,0.040,-0.067,-0.122,-0.006,-0.003,11.789,0.286,-69.707
1747511481.17,-0.018,0.025,-0.073,-0.147,-0.008,-0.004,11.633,0.278,-69.710
1747511481.19,-0.005,0.003,-0.081,-0.172,-0.006,0.000,11.450,0.271,-69.712
1747511481.21,0.011,0.015,-0.077,-0.202,0.002,0.001,11.237,0.258,-69.709
1747511481.23,0.001,0.007,-0.062,-0.224,-0.013,0.005,10.990,0.254,-69.705
1747511481.25,-0.018,0.001,-0.113,-0.260,-0.006,-0.001,10.718,0.228,-69.702
1747511481.27,-0.014,-0.007,-0.059,-0.264,-0.055,0.000,10.421,0.199,-69.702
1747511481.29,-0.005,-0.025,-0.067,-0.308,-0.003,-0.001,10.086,0.196,-69.702
1747511481.31,0.013,-0.013,-0.099,-0.324,-0.031,0.005,9.726,0.178,-69.700
1747511481.33,0.010,-0.026,-0.096,-0.353,-0.019,0.003,9.340,0.152,-69.693
1747511481.35,-0.011,-0.034,-0.085,-0.375,-0.027,0.001,8.924,0.127,-69.688
1747511481.37,-0.017,-0.035,-0.077,-0.400,-0.014,0.001,8.481,0.103,-69.687
1747511481.39,-0.005,-0.043,-0.093,-0.427,-0.015,-0.001,8.011,0.088,-69.688
1747511481.41,0.006,-0.056,-0.098,-0.445,-0.020,0.003,7.512,0.068,-69.685
1747511481.43,0.006,-0.048,-0.104,-0.467,-0.033,0.007,6.991,0.039,-69.678
1747511481.45,-0.001,-0.074,-0.091,-0.487,-0.025,0.005,6.445,0.007,-69.671
1747511481.47,-0.021,-0.068,-0.096,-0.512,-0.018,0.002,5.874,-0.017,-69.667
1747511481.49,0.003,-0.067,-0.093,-0.534,-0.018,0.004,5.278,-0.041,-69.663
1747511481.51,0.013,-0.091,-0.085,-0.548,-0.025,0.007,4.660,-0.067,-69.657
1747511481.53,-0.005,-0.091,-0.096,-0.565,-0.021,0.007,4.024,-0.095,-69.650
1747511481.55,-0.007,-0.095,-0.099,-0.577,-0.038,0.003,3.370,-0.126,-69.646
1747511481.57,-0.001,-0.101,-0.093,-0.594,-0.038,0.005,2.699,-0.168,-69.644
1747511481.59,0.010,-0.109,-0.095,-0.610,-0.033,0.008,2.011,-0.208,-69.638
1747511481.61,0.006,-0.112,-0.091,-0.623,-0.029,0.009,1.308,-0.239,-69.629
1747511481.63,-0.011,-0.119,-0.089,-0.631,-0.026,0.007,0.592,-0.267,-69.625
1747511481.65,-0.014,-0.126,-0.094,-0.638,-0.027,0.003,-0.134,-0.299,-69.623
1747511481.67,0.009,-0.126,-0.096,-0.644,-0.031,0.008,-0.870,-0.333,-69.620
1747511481.69,0.018,-0.139,-0.087,-0.642,-0.031,0.010,-1.607,-0.366,-69.615
1747511481.71,0.003,-0.142,-0.088,-0.645,-0.024,0.010,-2.344,-0.400,-69.608
1747511481.73,-0.017,-0.139,-0.082,-0.647,-0.025,0.009,-3.081,-0.431,-69.604
1747511481.75,-0.008,-0.141,-0.086,-0.642,-0.024,0.007,-3.816,-0.464,-69.602
1747511481.76,0.019,-0.147,-0.088,-0.638,-0.023,0.014,-4.547,-0.492,-69.598
1747511481.78,0.018,-0.147,-0.079,-0.629,-0.022,0.014,-5.271,-0.515,-69.588
1747511481.81,-0.006,-0.151,-0.079,-0.617,-0.024,0.008,-5.982,-0.541,-69.580
1747511481.82,-0.020,-0.147,-0.071,-0.604,-0.025,0.006,-6.678,-0.569,-69.577
1747511481.85,0.002,-0.148,-0.070,-0.588,-0.021,0.008,-7.358,-0.595,-69.576
1747511481.87,0.019,-0.147,-0.079,-0.570,-0.018,0.012,-8.021,-0.618,-69.569
1747511481.88,0.008,-0.145,-0.064,-0.553,-0.018,0.011,-8.661,-0.638,-69.562
1747511481.90,-0.008,-0.145,-0.081,-0.534,-0.020,0.007,-9.282,-0.661,-69.557
1747511481.92,-0.008,-0.143,-0.059,-0.516,-0.018,0.009,-9.883,-0.680,-69.552
1747511481.94,0.003,-0.142,-0.073,-0.492,-0.015,0.007,-10.458,-0.696,-69.549
1747511481.96,-0.001,-0.143,-0.069,-0.471,-0.014,0.009,-11.008,-0.714,-69.547
1747511481.98,0.003,-0.140,-0.065,-0.444,-0.017,0.007,-11.530,-0.732,-69.545
1747511482.00,0.001,-0.144,-0.070,-0.421,-0.020,0.005,-12.025,-0.754,-69.543
1747511482.02,-0.002,-0.141,-0.069,-0.394,-0.018,0.008,-12.488,-0.773,-69.542
1747511482.04,0.004,-0.142,-0.060,-0.368,-0.008,0.004,-12.923,-0.786,-69.541
1747511482.06,0.005,-0.141,-0.066,-0.337,-0.004,0.008,-13.325,-0.792,-69.538
1747511482.08,-0.014,-0.139,-0.062,-0.306,-0.009,0.002,-13.694,-0.801,-69.538
1747511482.10,-0.014,-0.138,-0.065,-0.274,-0.018,-0.004,-14.024,-0.818,-69.544
1747511482.12,0.012,-0.143,-0.067,-0.236,-0.012,0.001,-14.316,-0.838,-69.550
1747511482.14,0.022,-0.130,-0.052,-0.199,0.002,0.007,-14.568,-0.844,-69.550
1747511482.16,-0.001,-0.111,-0.035,-0.164,0.013,0.003,-14.774,-0.843,-69.545
1747511482.18,-0.022,-0.124,-0.038,-0.123,-0.001,-0.005,-14.941,-0.837,-69.547
1747511482.20,-0.020,-0.128,-0.048,-0.086,0.001,-0.003,-15.053,-0.840,-69.554
1747511482.22,0.032,-0.102,-0.036,-0.046,0.004,0.001,-15.108,-0.838,-69.558
1747511482.24,0.031,-0.109,-0.035,-0.000,0.008,0.005,-15.115,-0.826,-69.552
1747511482.26,-0.021,-0.095,-0.032,0.038,0.008,-0.002,-15.072,-0.821,-69.548
1747511482.28,-0.034,-0.088,-0.019,0.081,0.002,-0.006,-14.970,-0.823,-69.553
1747511482.30,0.006,-0.069,0.003,0.120,0.013,-0.004,-14.822,-0.809,-69.556
1747511482.32,0.033,-0.070,-0.017,0.162,0.021,0.001,-14.631,-0.776,-69.552
1747511482.34,-0.005,-0.065,-0.012,0.205,0.017,0.000,-14.395,-0.757,-69.547
1747511482.36,-0.019,-0.043,0.007,0.244,0.014,-0.003,-14.114,-0.752,-69.549
1747511482.38,0.006,-0.023,0.028,0.280,0.019,-0.005,-13.797,-0.738,-69.550
1747511482.40,0.003,-0.013,0.035,0.313,0.025,-0.006,-13.437,-0.700,-69.547
1747511482.42,-0.015,-0.018,0.033,0.348,0.027,-0.005,-13.043,-0.668,-69.547
1747511482.44,0.004,-0.007,0.032,0.380,0.029,-0.004,-12.621,-0.643,-69.548
1747511482.46,0.015,0.018,0.052,0.412,0.026,0.001,-12.167,-0.613,-69.546
1747511482.48,-0.007,0.028,0.069,0.438,0.024,-0.002,-11.683,-0.584,-69.542
1747511482.50,-0.019,0.040,0.077,0.460,0.030,-0.010,-11.169,-0.553,-69.543
1747511482.52,-0.006,0.044,0.075,0.484,0.028,-0.002,-10.628,-0.518,-69.546
1747511482.54,0.009,0.058,0.084,0.507,0.031,-0.004,-10.062,-0.484,-69.546
1747511482.56,0.003,0.074,0.092,0.524,0.027,-0.005,-9.473,-0.451,-69.543
1747511482.58,-0.011,0.079,0.100,0.539,0.028,-0.004,-8.865,-0.418,-69.544
1747511482.60,-0.006,0.093,0.101,0.556,0.030,-0.005,-8.239,-0.384,-69.545
1747511482.62,-0.006,0.109,0.106,0.568,0.032,-0.004,-7.598,-0.349,-69.547
1747511482.64,-0.004,0.114,0.104,0.579,0.030,-0.006,-6.945,-0.315,-69.547
1747511482.66,-0.002,0.133,0.110,0.586,0.027,-0.006,-6.279,-0.281,-69.548
1747511482.68,-0.004,0.140,0.109,0.595,0.031,-0.004,-5.606,-0.247,-69.550
1747511482.70,-0.011,0.147,0.102,0.601,0.027,-0.004,-4.923,-0.213,-69.550
1747511482.72,-0.014,0.167,0.108,0.603,0.027,-0.003,-4.237,-0.181,-69.553
1747511482.74,-0.002,0.169,0.096,0.608,0.023,-0.003,-3.546,-0.151,-69.557
1747511482.76,0.001,0.181,0.089,0.609,0.024,-0.003,-2.852,-0.124,-69.559
1747511482.78,-0.003,0.182,0.083,0.609,0.023,-0.004,-2.155,-0.102,-69.559
1747511482.80,-0.016,0.197,0.082,0.610,0.023,-0.003,-1.458,-0.078,-69.563
1747511482.82,-0.013,0.196,0.076,0.606,0.025,-0.002,-0.764,-0.051,-69.567
1747511482.84,-0.002,0.201,0.064,0.606,0.021,-0.005,-0.072,-0.023,-69.570
1747511482.86,-0.010,0.204,0.054,0.601,0.020,-0.004,0.618,0.003,-69.575
1747511482.88,-0.014,0.204,0.051,0.597,0.022,-0.002,1.302,0.029,-69.579
1747511482.90,0.001,0.209,0.037,0.590,0.017,-0.006,1.979,0.054,-69.583
1747511482.92,-0.010,0.211,0.038,0.582,0.019,-0.004,2.650,0.071,-69.587
1747511482.94,-0.017,0.209,0.035,0.571,0.015,-0.002,3.309,0.090,-69.593
1747511482.96,0.004,0.205,0.018,0.563,0.010,-0.003,3.959,0.107,-69.599
1747511482.98,-0.006,0.206,0.019,0.550,0.016,-0.003,4.594,0.121,-69.602
1747511483.00,-0.022,0.201,0.020,0.537,0.020,-0.005,5.215,0.141,-69.608
1747511483.02,-0.007,0.198,0.007,0.524,0.018,-0.003,5.819,0.163,-69.614
1747511483.04,-0.010,0.194,0.004,0.508,0.015,-0.002,6.407,0.183,-69.620
1747511483.06,-0.008,0.188,-0.003,0.487,0.010,-0.001,6.972,0.198,-69.626
1747511483.08,0.003,0.180,-0.009,0.465,0.007,-0.001,7.517,0.210,-69.631
1747511483.10,-0.005,0.178,-0.007,0.448,0.008,-0.004,8.041,0.218,-69.635
1747511483.12,-0.020,0.171,-0.008,0.425,0.009,-0.006,8.538,0.230,-69.640
1747511483.14,-0.012,0.164,-0.013,0.398,0.015,-0.006,9.009,0.244,-69.647
1747511483.16,0.004,0.151,-0.019,0.378,0.003,-0.001,9.452,0.259,-69.652
1747511483.18,-0.004,0.150,-0.025,0.349,0.004,-0.001,9.866,0.266,-69.657
1747511483.20,-0.013,0.146,-0.022,0.326,0.006,-0.002,10.252,0.274,-69.662
1747511483.22,-0.005,0.137,-0.024,0.297,0.005,-0.002,10.607,0.282,-69.667
1747511483.24,-0.010,0.129,-0.031,0.270,0.005,-0.004,10.931,0.287,-69.671
1747511483.26,-0.011,0.114,-0.036,0.240,0.005,-0.003,11.222,0.294,-69.678
1747511483.28,0.005,0.121,-0.034,0.212,0.000,0.001,11.480,0.300,-69.682
1747511483.30,-0.006,0.110,-0.040,0.183,-0.000,-0.003,11.706,0.304,-69.686
1747511483.32,-0.017,0.096,-0.042,0.156,0.004,-0.005,11.897,0.309,-69.691
1747511483.34,-0.001,0.095,-0.045,0.121,0.003,-0.002,12.039,0.315,-69.696
1747511483.36,0.002,0.085,-0.055,0.094,0.002,-0.001,12.135,0.317,-69.697
1747511483.38,-0.013,0.080,-0.052,0.064,-0.000,-0.003,12.205,0.318,-69.700
1747511483.40,-0.004,0.065,-0.059,0.030,-0.003,-0.003,12.244,0.313,-69.704
1747511483.42,-0.001,0.064,-0.061,0.005,-0.006,-0.001,12.252,0.308,-69.705
1747511483.44,-0.009,0.050,-0.065,-0.027,-0.001,-0.002,12.230,0.306,-69.709
1747511483.46,-0.001,0.047,-0.066,-0.058,-0.001,-0.000,12.174,0.302,-69.710
1747511483.48,-0.002,0.042,-0.070,-0.087,-0.007,-0.001,12.087,0.296,-69.710
1747511483.50,-0.005,0.025,-0.077,-0.117,-0.001,-0.000,11.966,0.289,-69.711
1747511483.52,-0.002,0.019,-0.078,-0.145,-0.009,0.000,11.814,0.285,-69.711
1747511483.54,-0.002,0.016,-0.079,-0.171,-0.009,0.001,11.633,0.276,-69.709
1747511483.56,-0.006,0.007,-0.080,-0.199,-0.014,-0.001,11.419,0.264,-69.709
1747511483.58,0.004,0.009,-0.074,-0.230,-0.015,0.002,11.173,0.240,-69.707
1747511483.60,-0.009,-0.016,-0.116,-0.242,-0.018,0.002,10.900,0.225,-69.706
1747511483.62,-0.007,-0.003,-0.071,-0.285,-0.011,-0.001,10.594,0.209,-69.704
1747511483.64,0.002,-0.033,-0.091,-0.304,-0.009,0.003,10.261,0.190,-69.701
1747511483.66,0.005,-0.016,-0.083,-0.330,-0.032,0.002,9.899,0.168,-69.700
1747511483.68,-0.009,-0.025,-0.089,-0.351,-0.023,-0.003,9.510,0.145,-69.701
1747511483.70,0.000,-0.042,-0.100,-0.378,-0.019,0.001,9.093,0.123,-69.700
1747511483.72,0.007,-0.041,-0.090,-0.398,-0.014,0.007,8.648,0.098,-69.695
1747511483.74,-0.001,-0.050,-0.096,-0.424,-0.016,0.003,8.178,0.073,-69.688
1747511483.76,-0.016,-0.047,-0.086,-0.443,-0.026,-0.001,7.682,0.050,-69.686
1747511483.78,-0.003,-0.066,-0.092,-0.466,-0.031,-0.000,7.162,0.023,-69.684
1747511483.80,0.014,-0.074,-0.099,-0.483,-0.026,0.003,6.619,-0.008,-69.682
1747511483.82,-0.001,-0.057,-0.093,-0.507,-0.027,0.004,6.054,-0.039,-69.677
1747511483.84,-0.003,-0.092,-0.096,-0.521,-0.029,0.003,5.469,-0.069,-69.672
1747511483.86,-0.006,-0.076,-0.087,-0.541,-0.029,0.002,4.862,-0.102,-69.669
1747511483.88,0.003,-0.083,-0.093,-0.557,-0.022,0.006,4.235,-0.133,-69.665
1747511483.90,0.004,-0.094,-0.090,-0.571,-0.027,0.005,3.590,-0.158,-69.661
1747511483.92,0.001,-0.104,-0.090,-0.583,-0.030,0.007,2.931,-0.188,-69.656
1747511483.94,-0.004,-0.108,-0.089,-0.594,-0.031,0.004,2.259,-0.223,-69.653
1747511483.96,-0.005,-0.101,-0.091,-0.604,-0.026,0.003,1.573,-0.257,-69.652
1747511483.98,0.014,-0.118,-0.090,-0.617,-0.032,0.008,0.874,-0.292,-69.648
1747511484.00,0.006,-0.116,-0.085,-0.620,-0.031,0.008,0.167,-0.325,-69.641
1747511484.02,-0.009,-0.125,-0.089,-0.629,-0.024,0.009,-0.547,-0.358,-69.635
1747511484.04,0.003,-0.123,-0.084,-0.630,-0.028,0.010,-1.266,-0.389,-69.631
1747511484.06,0.013,-0.133,-0.084,-0.630,-0.024,0.013,-1.986,-0.418,-69.625
1747511484.08,0.000,-0.129,-0.081,-0.627,-0.025,0.012,-2.704,-0.445,-69.618
1747511484.10,-0.012,-0.134,-0.079,-0.626,-0.029,0.008,-3.419,-0.471,-69.613
1747511484.12,-0.003,-0.135,-0.075,-0.616,-0.028,0.009,-4.129,-0.501,-69.611
1747511484.14,0.015,-0.135,-0.082,-0.610,-0.024,0.011,-4.829,-0.531,-69.607
1747511484.16,0.009,-0.139,-0.072,-0.597,-0.022,0.014,-5.517,-0.554,-69.598
1747511484.18,-0.008,-0.132,-0.069,-0.584,-0.016,0.009,-6.192,-0.577,-69.591
1747511484.20,-0.011,-0.131,-0.074,-0.570,-0.026,0.008,-6.852,-0.603,-69.589
1747511484.22,0.000,-0.133,-0.062,-0.554,-0.029,0.009,-7.496,-0.631,-69.589
1747511484.24,0.009,-0.131,-0.066,-0.537,-0.021,0.011,-8.120,-0.656,-69.585
1747511484.26,0.004,-0.127,-0.064,-0.520,-0.024,0.010,-8.725,-0.678,-69.581
1747511484.28,-0.008,-0.127,-0.063,-0.501,-0.020,0.006,-9.308,-0.703,-69.581
1747511484.30,-0.006,-0.126,-0.062,-0.482,-0.021,0.006,-9.870,-0.728,-69.583
1747511484.32,0.007,-0.123,-0.056,-0.462,-0.017,0.009,-10.409,-0.749,-69.583
1747511484.34,0.016,-0.125,-0.068,-0.443,-0.012,0.014,-10.925,-0.766,-69.579
1747511484.36,0.014,-0.120,-0.056,-0.417,-0.009,0.013,-11.416,-0.777,-69.571
1747511484.38,-0.016,-0.115,-0.048,-0.393,-0.007,0.005,-11.878,-0.785,-69.566
1747511484.40,-0.027,-0.120,-0.062,-0.372,-0.017,0.002,-12.316,-0.798,-69.568
1747511484.42,0.005,-0.119,-0.057,-0.344,-0.017,0.002,-12.724,-0.817,-69.574
1747511484.44,0.025,-0.112,-0.046,-0.318,-0.009,0.008,-13.102,-0.832,-69.573
1747511484.46,0.008,-0.112,-0.052,-0.289,-0.009,0.007,-13.448,-0.840,-69.570
1747511484.48,-0.015,-0.115,-0.053,-0.261,-0.008,0.002,-13.763,-0.846,-69.568
1747511484.50,-0.018,-0.113,-0.050,-0.232,-0.005,-0.002,-14.046,-0.856,-69.573
1747511484.52,0.005,-0.108,-0.047,-0.203,-0.002,-0.000,-14.294,-0.863,-69.577
1747511484.54,0.021,-0.107,-0.054,-0.167,0.001,0.004,-14.507,-0.866,-69.577
1747511484.56,0.006,-0.099,-0.043,-0.136,0.000,0.003,-14.683,-0.865,-69.574
1747511484.58,-0.017,-0.091,-0.031,-0.104,-0.002,-0.002,-14.802,-0.870,-69.576
1747511484.60,-0.015,-0.092,-0.035,-0.071,-0.000,-0.005,-14.882,-0.873,-69.580
1747511484.62,0.016,-0.088,-0.034,-0.035,0.011,0.001,-14.923,-0.866,-69.581
1747511484.64,0.023,-0.081,-0.033,-0.000,0.009,0.005,-14.921,-0.851,-69.578
1747511484.66,-0.013,-0.071,-0.018,0.038,0.006,-0.001,-14.877,-0.841,-69.576
1747511484.68,-0.026,-0.073,-0.026,0.072,0.003,-0.006,-14.790,-0.843,-69.581
1747511484.70,0.011,-0.057,-0.017,0.104,0.012,0.000,-14.656,-0.836,-69.582
1747511484.72,0.026,-0.042,0.002,0.142,0.016,0.005,-14.479,-0.805,-69.575
1747511484.74,-0.010,-0.045,-0.005,0.172,0.018,-0.002,-14.269,-0.784,-69.571
1747511484.76,-0.025,-0.039,-0.002,0.209,0.010,-0.006,-14.023,-0.781,-69.576
1747511484.78,0.004,-0.020,0.015,0.238,0.017,-0.002,-13.745,-0.763,-69.578
1747511484.80,0.020,-0.002,0.028,0.266,0.022,0.000,-13.443,-0.725,-69.571
1747511484.82,-0.010,-0.005,0.019,0.297,0.020,-0.005,-13.110,-0.703,-69.569
1747511484.84,-0.018,-0.006,0.026,0.322,0.018,-0.005,-12.746,-0.692,-69.572
1747511484.86,0.015,0.019,0.041,0.351,0.024,-0.002,-12.360,-0.670,-69.573
1747511484.88,0.007,0.028,0.053,0.374,0.025,-0.002,-11.952,-0.637,-69.569
1747511484.90,-0.019,0.024,0.047,0.397,0.022,-0.005,-11.512,-0.607,-69.567
1747511484.92,-0.008,0.040,0.058,0.417,0.023,-0.007,-11.048,-0.582,-69.568
1747511484.94,0.012,0.057,0.069,0.435,0.022,-0.001,-10.562,-0.552,-69.567
1747511484.96,-0.002,0.057,0.072,0.450,0.025,-0.002,-10.058,-0.522,-69.565
1747511484.97,-0.012,0.065,0.072,0.465,0.028,-0.007,-9.535,-0.493,-69.565
1747511484.99,-0.002,0.070,0.077,0.480,0.028,-0.003,-8.995,-0.461,-69.565
1747511485.01,0.002,0.084,0.083,0.488,0.030,-0.004,-8.442,-0.427,-69.564
1747511485.03,-0.010,0.094,0.084,0.502,0.029,-0.006,-7.877,-0.395,-69.564
1747511485.05,-0.009,0.101,0.085,0.508,0.027,-0.006,-7.301,-0.364,-69.566
1747511485.08,0.002,0.108,0.083,0.515,0.027,-0.003,-6.718,-0.332,-69.566
1747511485.09,-0.001,0.117,0.082,0.522,0.024,-0.003,-6.125,-0.303,-69.566
1747511485.11,-0.012,0.122,0.082,0.526,0.023,-0.005,-5.526,-0.280,-69.567
1747511485.13,-0.003,0.131,0.083,0.530,0.026,-0.002,-4.923,-0.253,-69.568
1747511485.15,0.000,0.133,0.081,0.534,0.025,-0.002,-4.317,-0.226,-69.568
1747511485.17,-0.012,0.143,0.074,0.531,0.028,-0.005,-3.708,-0.198,-69.570
1747511485.19,-0.006,0.150,0.069,0.535,0.022,-0.002,-3.101,-0.171,-69.572
1747511485.21,0.000,0.148,0.067,0.532,0.017,-0.003,-2.492,-0.148,-69.573
1747511485.23,-0.006,0.159,0.060,0.531,0.020,-0.004,-1.884,-0.128,-69.575
1747511485.25,-0.010,0.153,0.054,0.532,0.019,-0.004,-1.278,-0.106,-69.578
1747511485.27,-0.004,0.168,0.049,0.528,0.015,-0.003,-0.672,-0.086,-69.581
1747511485.29,-0.005,0.156,0.038,0.530,0.005,-0.001,-0.070,-0.069,-69.584
1747511485.31,-0.012,0.165,0.041,0.520,0.018,-0.003,0.526,-0.053,-69.585
1747511485.33,-0.005,0.161,0.028,0.516,0.022,-0.004,1.116,-0.031,-69.590
1747511485.35,-0.008,0.169,0.031,0.508,0.013,0.000,1.702,-0.015,-69.593
1747511485.37,-0.011,0.160,0.029,0.502,0.014,-0.004,2.278,0.005,-69.596
1747511485.39,0.003,0.164,0.010,0.496,0.009,-0.001,2.847,0.022,-69.599
1747511485.41,-0.004,0.161,0.016,0.486,0.018,-0.003,3.409,0.035,-69.601
1747511485.43,-0.019,0.160,0.012,0.478,0.023,-0.002,3.961,0.054,-69.605
1747511485.45,-0.003,0.156,0.005,0.470,0.015,-0.001,4.503,0.071,-69.609
1747511485.47,-0.002,0.154,0.005,0.461,0.017,-0.001,5.033,0.088,-69.612
1747511485.49,-0.012,0.151,0.002,0.448,0.010,-0.005,5.552,0.102,-69.615
1747511485.51,-0.005,0.150,-0.002,0.437,0.011,-0.001,6.058,0.117,-69.618
1747511485.53,0.001,0.144,-0.003,0.424,0.012,-0.000,6.550,0.130,-69.621
1747511485.55,-0.012,0.140,-0.005,0.412,0.013,-0.003,7.027,0.145,-69.624
1747511485.57,-0.010,0.140,-0.008,0.397,0.008,-0.001,7.487,0.160,-69.628
1747511485.59,-0.001,0.131,-0.013,0.382,0.013,-0.004,7.932,0.174,-69.633
1747511485.61,-0.003,0.128,-0.016,0.367,0.009,-0.003,8.360,0.185,-69.636
1747511485.63,-0.005,0.122,-0.016,0.350,0.007,-0.000,8.770,0.195,-69.638
1747511485.65,-0.011,0.119,-0.019,0.332,0.012,0.000,9.161,0.206,-69.641
1747511485.67,-0.004,0.114,-0.022,0.317,0.005,-0.004,9.532,0.216,-69.646
1747511485.69,-0.003,0.114,-0.019,0.299,0.008,-0.001,9.882,0.223,-69.649
1747511485.71,-0.006,0.108,-0.023,0.281,0.001,-0.002,10.213,0.230,-69.652
1747511485.73,-0.002,0.104,-0.024,0.266,0.008,-0.000,10.524,0.238,-69.655
1747511485.75,-0.007,0.100,-0.026,0.244,0.007,-0.001,10.813,0.246,-69.659
1747511485.77,-0.011,0.101,-0.023,0.227,0.005,-0.005,11.080,0.257,-69.663
1747511485.79,-0.000,0.093,-0.034,0.207,0.009,-0.003,11.327,0.266,-69.665
1747511485.81,-0.000,0.086,-0.035,0.187,0.004,-0.000,11.550,0.270,-69.667
1747511485.83,-0.007,0.084,-0.031,0.168,0.004,0.000,11.710,0.271,-69.668
1747511485.85,-0.007,0.086,-0.031,0.143,0.002,0.000,11.852,0.272,-69.668
1747511485.87,-0.007,0.072,-0.036,0.125,-0.001,0.000,11.976,0.274,-69.670
1747511485.89,-0.003,0.065,-0.041,0.105,0.004,-0.002,12.084,0.276,-69.672
1747511485.91,0.001,0.070,-0.039,0.083,-0.003,0.000,12.172,0.276,-69.674
1747511485.93,-0.003,0.063,-0.046,0.062,-0.003,0.001,12.239,0.271,-69.674
1747511485.95,-0.004,0.054,-0.044,0.041,-0.003,-0.000,12.288,0.267,-69.674
1747511485.97,-0.005,0.054,-0.046,0.021,-0.002,-0.001,12.315,0.263,-69.675
1747511485.99,-0.010,0.050,-0.046,0.002,-0.001,-0.002,12.318,0.262,-69.677
1747511486.01,0.002,0.036,-0.056,-0.019,-0.003,-0.001,12.300,0.258,-69.679
1747511486.03,0.002,0.037,-0.054,-0.039,-0.009,0.001,12.260,0.252,-69.678
1747511486.05,-0.008,0.037,-0.056,-0.061,-0.004,-0.002,12.199,0.244,-69.677
1747511486.07,-0.004,0.032,-0.057,-0.080,-0.005,0.002,12.114,0.236,-69.677
1747511486.09,-0.003,0.024,-0.059,-0.102,-0.004,0.001,12.005,0.226,-69.675
1747511486.11,-0.000,0.017,-0.060,-0.119,-0.010,-0.000,11.877,0.216,-69.675
1747511486.13,0.002,0.014,-0.062,-0.140,-0.012,0.001,11.727,0.204,-69.672
1747511486.15,0.004,0.011,-0.065,-0.158,-0.007,0.005,11.555,0.193,-69.669
1747511486.17,-0.013,0.010,-0.062,-0.179,-0.010,-0.001,11.358,0.186,-69.669
1747511486.19,-0.009,0.007,-0.062,-0.198,-0.013,-0.001,11.141,0.176,-69.669
1747511486.21,0.016,0.002,-0.051,-0.228,0.029,0.005,10.900,0.163,-69.665
1747511486.23,0.017,-0.016,-0.102,-0.231,-0.008,0.007,10.644,0.146,-69.657
1747511486.25,-0.023,-0.007,-0.031,-0.252,-0.020,0.002,10.365,0.131,-69.651
1747511486.27,-0.029,-0.021,-0.074,-0.267,-0.032,-0.006,10.069,0.114,-69.653
1747511486.29,0.008,-0.026,-0.098,-0.285,-0.010,0.004,9.753,0.094,-69.656
1747511486.31,0.032,-0.019,-0.065,-0.300,-0.009,0.005,9.420,0.077,-69.649
1747511486.33,0.011,-0.036,-0.060,-0.314,-0.014,0.008,9.071,0.058,-69.641
1747511486.35,-0.020,-0.027,-0.061,-0.329,-0.026,0.004,8.704,0.035,-69.635
1747511486.37,-0.015,-0.037,-0.075,-0.345,-0.017,0.000,8.318,0.012,-69.634
1747511486.39,-0.002,-0.029,-0.078,-0.360,-0.011,0.002,7.916,-0.006,-69.633
1747511486.41,0.009,-0.043,-0.073,-0.374,-0.009,0.008,7.498,-0.024,-69.627
1747511486.43,0.011,-0.053,-0.068,-0.381,-0.024,0.008,7.068,-0.047,-69.620
1747511486.45,-0.004,-0.036,-0.061,-0.396,-0.017,0.004,6.622,-0.075,-69.613
1747511486.47,-0.012,-0.045,-0.071,-0.410,-0.026,0.004,6.163,-0.104,-69.611
1747511486.49,0.000,-0.056,-0.056,-0.418,-0.024,0.004,5.691,-0.128,-69.610
1747511486.51,0.007,-0.053,-0.069,-0.431,-0.016,0.006,5.206,-0.151,-69.606
1747511486.53,0.001,-0.052,-0.080,-0.440,-0.015,0.008,4.709,-0.170,-69.600
1747511486.55,-0.006,-0.060,-0.062,-0.446,-0.030,0.004,4.202,-0.191,-69.595
1747511486.57,-0.002,-0.067,-0.062,-0.454,-0.025,0.004,3.688,-0.221,-69.592
1747511486.59,0.009,-0.059,-0.070,-0.463,-0.025,0.009,3.165,-0.250,-69.587
1747511486.61,0.001,-0.069,-0.054,-0.466,-0.020,0.007,2.634,-0.274,-69.580
1747511486.63,-0.007,-0.068,-0.060,-0.476,-0.020,0.006,2.097,-0.298,-69.575
1747511486.65,-0.005,-0.069,-0.063,-0.476,-0.021,0.005,1.553,-0.320,-69.572
1747511486.67,0.011,-0.074,-0.057,-0.480,-0.023,0.009,1.007,-0.344,-69.567
1747511486.69,0.011,-0.072,-0.061,-0.480,-0.024,0.011,0.459,-0.370,-69.560
1747511486.71,-0.003,-0.076,-0.059,-0.478,-0.026,0.008,-0.091,-0.398,-69.553
1747511486.73,-0.013,-0.074,-0.050,-0.480,-0.022,0.006,-0.640,-0.426,-69.551
1747511486.75,-0.002,-0.078,-0.051,-0.479,-0.018,0.005,-1.189,-0.450,-69.550
1747511486.77,0.016,-0.071,-0.054,-0.476,-0.016,0.009,-1.735,-0.469,-69.545
1747511486.79,0.004,-0.081,-0.052,-0.473,-0.020,0.009,-2.277,-0.490,-69.539
1747511486.81,-0.008,-0.072,-0.050,-0.469,-0.020,0.006,-2.817,-0.516,-69.536
1747511486.83,0.002,-0.074,-0.049,-0.462,-0.024,0.008,-3.349,-0.542,-69.533
1747511486.85,0.006,-0.076,-0.041,-0.457,-0.019,0.008,-3.875,-0.564,-69.529
1747511486.87,0.000,-0.068,-0.046,-0.452,-0.013,0.009,-4.394,-0.582,-69.523
1747511486.89,-0.004,-0.076,-0.042,-0.440,-0.017,0.008,-4.904,-0.601,-69.519
1747511486.91,0.011,-0.067,-0.038,-0.432,-0.011,0.012,-5.402,-0.617,-69.514
1747511486.93,0.006,-0.067,-0.048,-0.424,-0.015,0.012,-5.893,-0.634,-69.506
1747511486.95,-0.002,-0.069,-0.033,-0.413,-0.018,0.011,-6.370,-0.649,-69.498
1747511486.97,-0.001,-0.061,-0.038,-0.405,-0.015,0.008,-6.837,-0.669,-69.492
1747511486.99,-0.009,-0.062,-0.038,-0.394,-0.019,0.006,-7.295,-0.689,-69.488
1747511487.01,0.006,-0.060,-0.034,-0.384,-0.013,0.013,-7.740,-0.704,-69.482
1747511487.03,0.013,-0.060,-0.036,-0.374,-0.004,0.014,-8.174,-0.712,-69.472
1747511487.05,-0.004,-0.055,-0.038,-0.366,-0.012,0.010,-8.596,-0.720,-69.464
1747511487.07,-0.020,-0.056,-0.033,-0.355,-0.018,0.006,-9.009,-0.736,-69.462
1747511487.09,-0.006,-0.055,-0.039,-0.343,-0.019,0.004,-9.410,-0.757,-69.463
1747511487.11,0.017,-0.055,-0.034,-0.335,-0.013,0.008,-9.799,-0.774,-69.461
1747511487.13,0.009,-0.054,-0.034,-0.325,-0.009,0.006,-10.177,-0.785,-69.456
1747511487.15,-0.016,-0.053,-0.037,-0.319,-0.007,0.005,-10.545,-0.795,-69.453
1747511487.17,-0.012,-0.055,-0.042,-0.308,-0.012,0.004,-10.901,-0.809,-69.455
1747511487.19,0.011,-0.055,-0.041,-0.298,-0.012,0.004,-11.248,-0.823,-69.457
1747511487.21,0.011,-0.055,-0.039,-0.284,-0.007,0.006,-11.580,-0.834,-69.455
1747511487.23,-0.008,-0.059,-0.043,-0.276,-0.016,0.004,-11.903,-0.847,-69.454
1747511487.25,-0.005,-0.056,-0.040,-0.268,-0.011,0.001,-12.213,-0.862,-69.455
1747511487.27,-0.000,-0.057,-0.036,-0.256,-0.005,0.001,-12.513,-0.870,-69.456
1747511487.29,0.006,-0.060,-0.039,-0.241,-0.004,0.008,-12.797,-0.876,-69.456
1747511487.31,0.008,-0.061,-0.052,-0.229,-0.007,0.004,-13.067,-0.883,-69.453
1747511487.33,-0.004,-0.059,-0.036,-0.219,-0.006,0.006,-13.323,-0.891,-69.452
1747511487.35,-0.009,-0.057,-0.038,-0.203,-0.007,-0.000,-13.558,-0.899,-69.454
1747511487.37,-0.004,-0.064,-0.045,-0.186,-0.014,-0.000,-13.772,-0.911,-69.458
1747511487.39,0.010,-0.063,-0.040,-0.175,0.003,0.003,-13.970,-0.916,-69.458
1747511487.41,0.012,-0.057,-0.040,-0.157,0.003,0.005,-14.148,-0.914,-69.456
1747511487.43,-0.005,-0.062,-0.036,-0.138,-0.006,0.003,-14.308,-0.914,-69.453
1747511487.45,-0.014,-0.061,-0.041,-0.122,-0.003,-0.001,-14.448,-0.919,-69.454
1747511487.47,0.003,-0.055,-0.038,-0.104,-0.001,0.002,-14.566,-0.923,-69.455
1747511487.49,0.012,-0.058,-0.032,-0.085,0.001,-0.001,-14.664,-0.919,-69.456
1747511487.51,0.003,-0.060,-0.043,-0.067,0.002,0.004,-14.740,-0.915,-69.454
1747511487.53,-0.006,-0.055,-0.034,-0.042,0.003,0.002,-14.791,-0.913,-69.454
1747511487.55,-0.002,-0.053,-0.030,-0.022,0.006,0.002,-14.819,-0.909,-69.453
1747511487.57,0.009,-0.051,-0.030,-0.001,0.002,0.002,-14.823,-0.903,-69.451
1747511487.59,0.004,-0.053,-0.031,0.020,0.006,0.003,-14.800,-0.894,-69.448
1747511487.61,-0.005,-0.047,-0.027,0.041,0.006,-0.000,-14.752,-0.886,-69.446
1747511487.63,-0.012,-0.043,-0.020,0.066,0.006,-0.004,-14.678,-0.881,-69.448
1747511487.65,-0.003,-0.044,-0.023,0.089,0.007,-0.002,-14.577,-0.872,-69.449
1747511487.67,0.017,-0.042,-0.024,0.112,0.011,0.002,-14.448,-0.859,-69.446
1747511487.69,0.011,-0.039,-0.019,0.137,0.013,0.003,-14.292,-0.844,-69.441
1747511487.71,-0.014,-0.028,-0.007,0.158,0.010,0.000,-14.111,-0.833,-69.438
1747511487.73,-0.016,-0.016,0.004,0.181,0.011,-0.007,-13.901,-0.823,-69.442
1747511487.75,0.008,-0.019,-0.005,0.206,0.011,-0.003,-13.665,-0.804,-69.442
1747511487.77,0.012,-0.014,0.002,0.228,0.015,-0.002,-13.405,-0.780,-69.438
1747511487.79,-0.002,0.003,0.018,0.248,0.015,0.000,-13.126,-0.765,-69.437
1747511487.81,-0.006,0.008,0.015,0.268,0.014,-0.002,-12.831,-0.757,-69.438
1747511487.83,-0.004,0.018,0.028,0.283,0.015,-0.003,-12.516,-0.740,-69.437
1747511487.85,0.002,0.019,0.030,0.300,0.017,-0.004,-12.183,-0.716,-69.435
1747511487.87,-0.000,0.019,0.027,0.321,0.018,-0.004,-11.835,-0.696,-69.435
1747511487.89,0.002,0.024,0.027,0.334,0.017,0.000,-11.470,-0.680,-69.433
1747511487.91,-0.001,0.037,0.042,0.348,0.018,-0.003,-11.080,-0.661,-69.431
1747511487.93,-0.003,0.047,0.048,0.361,0.021,-0.003,-10.674,-0.636,-69.429
1747511487.95,-0.003,0.049,0.043,0.371,0.021,-0.003,-10.255,-0.610,-69.428
1747511487.97,-0.006,0.063,0.055,0.380,0.023,-0.006,-9.827,-0.585,-69.426
1747511487.99,-0.003,0.062,0.052,0.388,0.024,-0.002,-9.389,-0.557,-69.426
1747511488.01,0.005,0.065,0.047,0.396,0.019,-0.002,-8.942,-0.531,-69.424
1747511488.03,0.001,0.067,0.051,0.406,0.024,0.001,-8.485,-0.506,-69.422
1747511488.05,-0.001,0.076,0.051,0.408,0.021,-0.002,-8.020,-0.484,-69.420
1747511488.07,-0.011,0.094,0.065,0.413,0.020,-0.005,-7.553,-0.460,-69.419
1747511488.09,-0.005,0.072,0.045,0.417,0.021,-0.003,-7.080,-0.436,-69.418
1747511488.11,0.003,0.093,0.055,0.419,0.024,-0.000,-6.603,-0.410,-69.416
1747511488.13,-0.002,0.097,0.049,0.421,0.019,-0.002,-6.126,-0.384,-69.414
1747511488.15,-0.004,0.096,0.048,0.419,0.019,-0.000,-5.647,-0.362,-69.413
1747511488.17,-0.002,0.106,0.047,0.419,0.011,-0.003,-5.168,-0.345,-69.411
1747511488.18,-0.005,0.099,0.042,0.419,0.012,-0.002,-4.690,-0.331,-69.409
1747511488.21,-0.003,0.109,0.045,0.414,0.013,-0.001,-4.214,-0.317,-69.408
1747511488.22,-0.003,0.103,0.033,0.413,0.018,0.002,-3.739,-0.300,-69.407
1747511488.24,-0.001,0.119,0.048,0.407,0.017,-0.002,-3.268,-0.289,-69.406
1747511488.26,-0.007,0.105,0.040,0.410,0.009,-0.003,-2.802,-0.267,-69.406
1747511488.28,0.007,0.116,0.037,0.407,0.003,-0.002,-2.339,-0.254,-69.405
1747511488.30,-0.011,0.112,0.022,0.396,0.017,-0.002,-1.879,-0.244,-69.404
1747511488.32,-0.003,0.104,0.024,0.391,0.018,0.001,-1.426,-0.233,-69.403
1747511488.34,0.007,0.113,0.015,0.391,0.006,-0.001,-0.978,-0.225,-69.402
1747511488.36,-0.016,0.103,0.020,0.383,0.021,-0.001,-0.536,-0.208,-69.402
1747511488.38,-0.003,0.106,0.019,0.380,0.011,-0.003,-0.100,-0.187,-69.401
1747511488.40,-0.002,0.102,0.011,0.373,0.020,0.001,0.330,-0.167,-69.400
1747511488.42,-0.010,0.101,0.007,0.365,0.017,-0.001,0.752,-0.149,-69.401
1747511488.44,0.008,0.097,0.003,0.363,0.007,0.000,1.170,-0.134,-69.402
1747511488.46,0.008,0.097,-0.007,0.360,0.006,-0.001,1.582,-0.127,-69.400
1747511488.48,-0.017,0.097,0.007,0.352,0.010,-0.001,1.989,-0.116,-69.399
1747511488.50,-0.011,0.090,0.001,0.347,0.013,-0.002,2.389,-0.101,-69.400
1747511488.52,0.000,0.093,-0.006,0.343,0.022,-0.001,2.783,-0.084,-69.402
1747511488.54,-0.002,0.084,-0.000,0.341,0.014,-0.002,3.173,-0.066,-69.403
1747511488.56,-0.002,0.091,-0.010,0.337,0.007,-0.002,3.559,-0.053,-69.404
1747511488.58,-0.000,0.086,-0.003,0.332,0.005,-0.000,3.941,-0.045,-69.403
1747511488.60,-0.005,0.084,-0.002,0.327,0.011,-0.000,4.318,-0.036,-69.404
1747511488.62,-0.000,0.087,-0.011,0.323,0.001,-0.002,4.690,-0.030,-69.404
1747511488.64,-0.006,0.086,-0.003,0.320,0.009,-0.003,5.058,-0.023,-69.405
1747511488.66,-0.008,0.085,-0.004,0.315,0.012,-0.001,5.421,-0.011,-69.406
1747511488.68,-0.001,0.083,-0.012,0.312,0.008,-0.002,5.778,0.001,-69.408
1747511488.70,-0.003,0.086,-0.008,0.308,0.010,0.000,6.130,0.010,-69.408
1747511488.72,-0.002,0.083,-0.008,0.303,0.004,-0.001,6.479,0.018,-69.410
1747511488.74,0.006,0.083,-0.011,0.299,0.002,0.001,6.822,0.023,-69.410
1747511488.76,-0.004,0.086,-0.006,0.294,0.010,-0.000,7.162,0.030,-69.409
1747511488.78,-0.013,0.085,-0.008,0.288,0.006,-0.002,7.494,0.038,-69.410
1747511488.80,-0.006,0.084,-0.009,0.280,0.011,-0.003,7.818,0.050,-69.412
1747511488.82,0.004,0.082,-0.010,0.275,0.007,-0.001,8.136,0.063,-69.414
1747511488.84,-0.002,0.086,-0.016,0.270,0.006,-0.002,8.447,0.069,-69.415
1747511488.86,-0.005,0.084,-0.010,0.262,0.004,-0.001,8.752,0.073,-69.417
1747511488.88,0.004,0.083,-0.013,0.258,-0.003,0.002,9.047,0.074,-69.418
1747511488.90,-0.006,0.085,-0.010,0.249,0.005,-0.002,9.336,0.077,-69.418
1747511488.92,-0.012,0.084,-0.012,0.241,0.010,-0.003,9.616,0.085,-69.421
1747511488.94,0.001,0.087,-0.012,0.234,0.006,0.001,9.886,0.093,-69.423
1747511488.96,-0.000,0.083,-0.014,0.227,0.006,-0.001,10.113,0.099,-69.424
1747511488.98,-0.006,0.083,-0.017,0.216,0.001,0.002,10.326,0.102,-69.425
1747511489.00,-0.002,0.086,-0.014,0.205,0.006,-0.002,10.525,0.100,-69.426
1747511489.02,0.001,0.083,-0.014,0.196,0.003,-0.002,10.713,0.106,-69.427
1747511489.04,-0.009,0.083,-0.015,0.185,0.006,-0.002,10.889,0.111,-69.428
1747511489.06,-0.009,0.082,-0.013,0.172,0.006,-0.002,11.054,0.117,-69.431
1747511489.08,0.007,0.082,-0.021,0.163,-0.003,-0.001,11.206,0.120,-69.432
1747511489.10,0.000,0.081,-0.020,0.149,0.001,-0.001,11.347,0.119,-69.433
1747511489.12,-0.013,0.081,-0.015,0.138,0.006,-0.001,11.473,0.122,-69.434
1747511489.14,-0.001,0.078,-0.022,0.123,0.002,0.001,11.584,0.125,-69.433
1747511489.16,-0.002,0.077,-0.022,0.108,0.004,0.000,11.679,0.131,-69.434
1747511489.18,-0.008,0.071,-0.024,0.091,0.006,0.001,11.759,0.139,-69.436
1747511489.20,0.009,0.075,-0.031,0.078,-0.007,0.002,11.822,0.133,-69.435
1747511489.22,-0.002,0.075,-0.026,0.060,-0.004,-0.000,11.869,0.126,-69.433
1747511489.24,-0.014,0.066,-0.027,0.044,0.001,-0.000,11.896,0.129,-69.435
1747511489.26,0.003,0.064,-0.037,0.028,0.003,0.001,11.912,0.128,-69.434
1747511489.28,0.003,0.059,-0.037,0.011,0.001,0.000,11.912,0.130,-69.433
1747511489.30,-0.006,0.063,-0.032,-0.011,-0.002,0.000,11.894,0.132,-69.433
1747511489.32,0.000,0.048,-0.049,-0.028,-0.007,0.000,11.859,0.123,-69.432
1747511489.34,0.002,0.037,-0.045,-0.047,-0.002,-0.001,11.806,0.117,-69.431
1747511489.36,-0.005,0.053,-0.038,-0.067,-0.000,-0.000,11.733,0.118,-69.431
1747511489.38,-0.010,0.035,-0.050,-0.088,-0.006,-0.001,11.637,0.114,-69.431
1747511489.40,0.004,0.019,-0.060,-0.105,-0.007,-0.000,11.522,0.105,-69.431
1747511489.42,0.012,0.026,-0.056,-0.127,-0.006,0.006,11.385,0.097,-69.428
1747511489.44,-0.005,0.025,-0.052,-0.147,-0.009,0.001,11.226,0.087,-69.424
1747511489.46,-0.016,0.020,-0.054,-0.166,-0.006,0.002,11.043,0.079,-69.423
1747511489.48,0.001,0.006,-0.064,-0.186,-0.005,0.002,10.839,0.072,-69.422
1747511489.50,0.004,0.017,-0.063,-0.206,-0.012,0.003,10.612,0.064,-69.420
1747511489.52,0.006,-0.008,-0.069,-0.226,-0.016,0.002,10.364,0.048,-69.417
1747511489.54,0.010,0.000,-0.057,-0.249,-0.013,0.006,10.092,0.027,-69.411
1747511489.56,-0.015,-0.021,-0.109,-0.257,-0.004,0.004,9.798,0.006,-69.406
1747511489.58,-0.018,-0.007,-0.043,-0.295,-0.004,-0.003,9.481,-0.006,-69.405
1747511489.60,0.001,-0.019,-0.065,-0.307,0.005,0.002,9.142,-0.016,-69.405
1747511489.62,0.022,-0.027,-0.075,-0.322,-0.030,0.004,8.784,-0.035,-69.403
1747511489.64,0.007,-0.027,-0.070,-0.340,-0.022,0.005,8.406,-0.060,-69.398
1747511489.66,0.006,-0.038,-0.087,-0.360,-0.025,0.006,8.007,-0.085,-69.392
1747511489.68,-0.009,-0.029,-0.071,-0.377,-0.011,0.005,7.586,-0.108,-69.387
1747511489.70,-0.018,-0.041,-0.076,-0.398,-0.006,0.000,7.146,-0.129,-69.383
1747511489.72,-0.011,-0.034,-0.068,-0.411,-0.018,-0.001,6.683,-0.145,-69.384
1747511489.74,0.021,-0.060,-0.078,-0.430,-0.028,0.007,6.201,-0.168,-69.382
1747511489.76,0.030,-0.057,-0.080,-0.444,-0.027,0.011,5.702,-0.198,-69.373
1747511489.78,-0.007,-0.045,-0.079,-0.462,-0.024,0.007,5.186,-0.228,-69.365
1747511489.80,-0.023,-0.067,-0.080,-0.475,-0.024,-0.000,4.651,-0.258,-69.363
1747511489.82,-0.014,-0.056,-0.070,-0.492,-0.024,0.001,4.097,-0.282,-69.366
1747511489.84,0.017,-0.077,-0.086,-0.507,-0.020,0.009,3.526,-0.309,-69.364
1747511489.86,0.031,-0.079,-0.083,-0.518,-0.031,0.010,2.941,-0.336,-69.355
1747511489.88,0.005,-0.082,-0.069,-0.532,-0.028,0.012,2.343,-0.366,-69.346
1747511489.90,-0.021,-0.081,-0.084,-0.542,-0.028,0.003,1.729,-0.399,-69.342
1747511489.92,-0.026,-0.084,-0.076,-0.554,-0.026,-0.000,1.102,-0.430,-69.346
1747511489.94,0.013,-0.098,-0.078,-0.563,-0.022,0.007,0.465,-0.459,-69.348
1747511489.96,0.036,-0.101,-0.082,-0.571,-0.023,0.015,-0.183,-0.487,-69.342
1747511489.98,0.015,-0.103,-0.081,-0.575,-0.030,0.013,-0.837,-0.516,-69.331
1747511490.00,-0.014,-0.112,-0.076,-0.579,-0.028,0.007,-1.497,-0.550,-69.322
1747511490.02,-0.009,-0.102,-0.076,-0.585,-0.028,0.007,-2.160,-0.582,-69.319
1747511490.04,-0.001,-0.119,-0.071,-0.583,-0.020,0.013,-2.827,-0.609,-69.317
1747511490.06,0.014,-0.117,-0.074,-0.578,-0.016,0.011,-3.490,-0.630,-69.312
1747511490.08,0.015,-0.123,-0.072,-0.580,-0.017,0.018,-4.151,-0.650,-69.302
1747511490.10,0.013,-0.122,-0.070,-0.569,-0.018,0.017,-4.807,-0.668,-69.292
1747511490.12,-0.005,-0.122,-0.076,-0.561,-0.019,0.012,-5.455,-0.689,-69.283
1747511490.14,-0.019,-0.119,-0.063,-0.556,-0.025,0.005,-6.094,-0.716,-69.282
1747511490.16,-0.010,-0.124,-0.070,-0.545,-0.032,0.005,-6.721,-0.750,-69.285
1747511490.18,0.023,-0.123,-0.063,-0.531,-0.021,0.013,-7.335,-0.781,-69.284
1747511490.20,0.033,-0.123,-0.062,-0.519,-0.011,0.018,-7.937,-0.797,-69.274
1747511490.22,-0.002,-0.120,-0.065,-0.507,-0.015,0.014,-8.523,-0.808,-69.263
1747511490.24,-0.030,-0.116,-0.052,-0.492,-0.015,0.007,-9.092,-0.822,-69.260
1747511490.26,-0.010,-0.118,-0.068,-0.476,-0.027,0.005,-9.644,-0.846,-69.263
1747511490.28,0.024,-0.117,-0.063,-0.456,-0.024,0.007,-10.175,-0.875,-69.264
1747511490.30,0.022,-0.118,-0.062,-0.440,-0.022,0.013,-10.688,-0.900,-69.260
1747511490.32,0.001,-0.119,-0.058,-0.423,-0.014,0.010,-11.179,-0.920,-69.255
1747511490.34,-0.006,-0.115,-0.050,-0.403,-0.003,0.009,-11.652,-0.929,-69.250
1747511490.36,-0.001,-0.113,-0.056,-0.385,-0.002,0.008,-12.101,-0.931,-69.247
1747511490.38,0.004,-0.118,-0.063,-0.360,-0.012,0.009,-12.526,-0.936,-69.245
1747511490.40,0.005,-0.115,-0.064,-0.341,-0.013,0.008,-12.927,-0.953,-69.241
1747511490.42,0.002,-0.108,-0.052,-0.316,-0.017,0.005,-13.300,-0.973,-69.240
1747511490.44,-0.009,-0.119,-0.057,-0.294,-0.012,0.003,-13.649,-0.993,-69.243
1747511490.46,-0.002,-0.113,-0.054,-0.269,-0.007,0.003,-13.969,-1.006,-69.246
1747511490.48,0.010,-0.114,-0.050,-0.242,-0.001,0.006,-14.262,-1.009,-69.245
1747511490.50,0.012,-0.107,-0.047,-0.213,-0.004,0.006,-14.521,-1.009,-69.242
1747511490.52,0.002,-0.108,-0.064,-0.183,-0.009,0.004,-14.747,-1.016,-69.241
1747511490.54,-0.012,-0.105,-0.042,-0.152,-0.013,-0.001,-14.941,-1.029,-69.242
1747511490.56,0.000,-0.091,-0.036,-0.123,-0.005,0.000,-15.087,-1.038,-69.244
1747511490.58,0.010,-0.098,-0.042,-0.092,0.000,0.003,-15.197,-1.039,-69.246
1747511490.60,0.013,-0.091,-0.033,-0.062,0.006,0.005,-15.270,-1.033,-69.244
1747511490.62,0.007,-0.088,-0.040,-0.028,0.005,0.003,-15.303,-1.027,-69.241
1747511490.64,-0.005,-0.072,-0.024,0.007,0.000,0.002,-15.301,-1.021,-69.239
1747511490.66,-0.008,-0.072,-0.023,0.039,0.000,0.001,-15.256,-1.018,-69.239
1747511490.68,0.007,-0.068,-0.020,0.070,0.010,0.002,-15.171,-1.010,-69.237
1747511490.70,0.014,-0.051,-0.007,0.103,0.014,0.003,-15.041,-0.992,-69.232
1747511490.72,0.000,-0.049,-0.007,0.134,0.014,0.001,-14.876,-0.973,-69.229
1747511490.74,-0.009,-0.044,-0.003,0.166,0.015,-0.002,-14.678,-0.961,-69.227
1747511490.76,0.002,-0.039,-0.001,0.198,0.017,-0.001,-14.447,-0.942,-69.225
1747511490.78,0.013,-0.026,0.009,0.227,0.018,0.000,-14.188,-0.915,-69.219
1747511490.80,0.001,-0.010,0.020,0.255,0.016,-0.001,-13.900,-0.891,-69.215
1747511490.82,-0.009,-0.012,0.019,0.282,0.011,-0.004,-13.583,-0.876,-69.211
1747511490.84,0.000,-0.009,0.027,0.308,0.022,-0.000,-13.240,-0.856,-69.209
1747511490.86,0.015,0.003,0.029,0.328,0.023,0.001,-12.873,-0.826,-69.203
1747511490.88,-0.002,0.012,0.041,0.351,0.023,-0.002,-12.484,-0.794,-69.197
1747511490.90,-0.012,0.011,0.038,0.373,0.020,-0.004,-12.070,-0.768,-69.194
1747511490.92,0.001,0.027,0.051,0.395,0.021,-0.001,-11.631,-0.741,-69.192
1747511490.94,0.013,0.038,0.054,0.415,0.023,-0.000,-11.169,-0.714,-69.187
1747511490.96,-0.007,0.036,0.054,0.430,0.026,-0.004,-10.687,-0.687,-69.183
1747511490.98,-0.007,0.052,0.066,0.446,0.028,-0.003,-10.187,-0.657,-69.182
1747511491.00,0.003,0.060,0.071,0.460,0.030,-0.005,-9.671,-0.625,-69.179
1747511491.02,-0.000,0.061,0.068,0.474,0.032,-0.001,-9.138,-0.590,-69.176
1747511491.04,-0.000,0.068,0.067,0.485,0.026,-0.002,-8.590,-0.559,-69.173
1747511491.06,-0.003,0.092,0.083,0.491,0.027,-0.003,-8.034,-0.529,-69.171
1747511491.08,-0.004,0.088,0.080,0.501,0.026,-0.005,-7.467,-0.500,-69.168
1747511491.10,-0.002,0.093,0.075,0.507,0.026,-0.003,-6.891,-0.470,-69.165
1747511491.12,-0.002,0.107,0.078,0.515,0.027,-0.003,-6.307,-0.438,-69.164
1747511491.14,0.001,0.110,0.075,0.521,0.021,0.001,-5.716,-0.410,-69.161
1747511491.16,0.000,0.118,0.074,0.527,0.020,-0.001,-5.119,-0.385,-69.158
1747511491.18,-0.005,0.123,0.072,0.525,0.018,-0.002,-4.518,-0.362,-69.156
1747511491.20,-0.001,0.132,0.073,0.529,0.021,-0.002,-3.915,-0.338,-69.153
1747511491.22,-0.001,0.133,0.069,0.532,0.021,0.000,-3.310,-0.309,-69.150
1747511491.24,-0.008,0.140,0.061,0.529,0.024,-0.003,-2.703,-0.284,-69.148
1747511491.26,-0.006,0.149,0.059,0.530,0.022,-0.002,-2.097,-0.258,-69.150
1747511491.28,0.006,0.150,0.053,0.530,0.016,0.000,-1.493,-0.235,-69.148
1747511491.30,-0.006,0.151,0.043,0.525,0.008,-0.000,-0.889,-0.217,-69.145
1747511491.32,-0.011,0.149,0.052,0.520,0.029,-0.003,-0.288,-0.199,-69.145
1747511491.33,0.004,0.155,0.040,0.526,0.016,-0.001,0.312,-0.181,-69.145
1747511491.35,0.000,0.164,0.036,0.525,-0.002,0.002,0.911,-0.168,-69.145
1747511491.37,-0.014,0.156,0.035,0.514,0.020,-0.000,1.504,-0.151,-69.144
1747511491.39,0.002,0.163,0.023,0.512,0.010,-0.003,2.089,-0.134,-69.144
1747511491.41,-0.010,0.157,0.024,0.502,0.022,-0.002,2.668,-0.119,-69.143
1747511491.43,-0.016,0.160,0.019,0.494,0.020,-0.002,3.237,-0.096,-69.145
1747511491.45,0.013,0.156,0.011,0.492,0.006,0.000,3.798,-0.079,-69.146
1747511491.47,0.000,0.158,0.012,0.480,0.015,-0.003,4.352,-0.065,-69.146
1747511491.49,-0.018,0.153,0.013,0.473,0.019,-0.001,4.894,-0.047,-69.148
1747511491.51,0.002,0.155,0.007,0.457,0.019,-0.004,5.425,-0.030,-69.151
1747511491.53,0.001,0.150,-0.002,0.450,0.012,-0.004,5.946,-0.015,-69.152
1747511491.55,-0.011,0.149,0.004,0.435,0.009,-0.003,6.450,0.001,-69.155
1747511491.57,-0.003,0.144,-0.007,0.424,0.007,-0.002,6.940,0.016,-69.159
1747511491.59,0.002,0.144,-0.008,0.408,0.008,-0.001,7.415,0.026,-69.161
1747511491.61,-0.008,0.141,-0.006,0.394,0.011,-0.004,7.873,0.037,-69.162
1747511491.63,-0.006,0.134,-0.010,0.377,0.009,-0.003,8.312,0.049,-69.165
1747511491.65,-0.004,0.133,-0.011,0.359,0.010,-0.002,8.731,0.061,-69.168
1747511491.67,-0.007,0.126,-0.015,0.341,0.014,-0.001,9.130,0.075,-69.171
1747511491.69,-0.002,0.128,-0.013,0.321,0.012,-0.001,9.508,0.088,-69.174
1747511491.71,0.002,0.118,-0.018,0.302,0.007,-0.001,9.864,0.100,-69.176
1747511491.73,-0.006,0.118,-0.020,0.281,0.010,-0.003,10.198,0.107,-69.178
1747511491.75,-0.010,0.114,-0.021,0.260,0.010,-0.001,10.506,0.117,-69.180
1747511491.77,0.002,0.104,-0.029,0.236,0.007,-0.000,10.790,0.128,-69.183
1747511491.79,0.002,0.104,-0.027,0.213,0.001,0.002,11.048,0.135,-69.183
1747511491.81,-0.009,0.098,-0.033,0.190,0.003,-0.002,11.279,0.137,-69.185
1747511491.83,-0.004,0.092,-0.035,0.166,0.001,-0.000,11.483,0.140,-69.187
1747511491.85,0.004,0.092,-0.033,0.146,0.001,-0.000,11.621,0.142,-69.186
1747511491.87,-0.008,0.076,-0.041,0.118,0.005,-0.001,11.739,0.145,-69.188
1747511491.89,-0.003,0.074,-0.041,0.094,0.002,-0.001,11.834,0.148,-69.189
1747511491.91,0.005,0.074,-0.046,0.071,-0.003,0.001,11.909,0.145,-69.188
1747511491.93,-0.006,0.058,-0.048,0.043,-0.001,-0.002,11.958,0.144,-69.190
1747511491.95,-0.002,0.055,-0.052,0.019,-0.006,0.001,11.981,0.139,-69.192
1747511491.97,0.002,0.055,-0.053,-0.010,-0.005,0.003,11.979,0.131,-69.190
1747511491.99,-0.003,0.045,-0.057,-0.034,-0.004,-0.002,11.947,0.126,-69.190
1747511492.01,-0.002,0.023,-0.060,-0.055,-0.008,-0.002,11.890,0.119,-69.192
1747511492.03,-0.001,-0.006,-0.070,-0.081,-0.006,0.001,11.807,0.112,-69.193
1747511492.05,0.009,0.031,-0.065,-0.107,-0.011,0.001,11.698,0.104,-69.191
1747511492.07,-0.000,0.016,-0.063,-0.129,-0.012,-0.001,11.562,0.094,-69.189
1747511492.09,-0.014,0.013,-0.063,-0.154,-0.009,-0.001,11.398,0.082,-69.189
1747511492.11,0.005,-0.013,-0.078,-0.174,-0.015,0.004,11.209,0.072,-69.188
1747511492.13,0.010,0.016,-0.065,-0.202,-0.008,0.004,10.996,0.057,-69.185
1747511492.15,0.003,-0.007,-0.080,-0.220,-0.020,0.004,10.755,0.041,-69.180
1747511492.17,-0.002,-0.012,-0.072,-0.242,-0.011,0.002,10.492,0.022,-69.178
1747511492.19,-0.008,-0.023,-0.080,-0.262,-0.010,0.002,10.204,0.003,-69.176
1747511492.21,0.003,-0.027,-0.074,-0.282,-0.013,0.001,9.893,-0.012,-69.173
1747511492.23,0.004,-0.023,-0.077,-0.301,-0.019,0.004,9.560,-0.029,-69.169
1747511492.25,0.003,-0.042,-0.076,-0.321,-0.019,0.004,9.205,-0.048,-69.165
1747511492.27,-0.004,-0.034,-0.075,-0.342,-0.018,0.002,8.828,-0.070,-69.162
1747511492.29,0.009,-0.055,-0.082,-0.356,-0.017,0.007,8.430,-0.094,-69.158
1747511492.31,0.002,-0.044,-0.070,-0.373,-0.020,0.002,8.014,-0.114,-69.154
1747511492.33,-0.008,-0.043,-0.077,-0.390,-0.021,0.001,7.577,-0.137,-69.153
1747511492.35,0.001,-0.058,-0.086,-0.405,-0.023,0.002,7.122,-0.163,-69.151
1747511492.37,0.007,-0.061,-0.073,-0.421,-0.016,0.006,6.650,-0.184,-69.147
1747511492.39,0.015,-0.065,-0.073,-0.436,-0.024,0.004,6.161,-0.207,-69.141
1747511492.41,-0.007,-0.060,-0.073,-0.448,-0.023,0.006,5.656,-0.235,-69.137
1747511492.43,-0.008,-0.071,-0.083,-0.464,-0.023,0.005,5.134,-0.265,-69.135
1747511492.45,0.011,-0.077,-0.072,-0.475,-0.025,0.007,4.599,-0.293,-69.131
1747511492.47,0.017,-0.078,-0.066,-0.485,-0.017,0.009,4.052,-0.316,-69.126
1747511492.49,-0.002,-0.081,-0.079,-0.493,-0.021,0.005,3.494,-0.343,-69.121
1747511492.51,-0.013,-0.081,-0.074,-0.499,-0.026,0.002,2.927,-0.374,-69.119
1747511492.53,0.013,-0.088,-0.065,-0.509,-0.026,0.008,2.350,-0.402,-69.117
1747511492.55,0.016,-0.085,-0.065,-0.514,-0.015,0.008,1.767,-0.427,-69.112
1747511492.57,-0.006,-0.089,-0.077,-0.519,-0.023,0.006,1.178,-0.454,-69.108
1747511492.59,-0.015,-0.096,-0.064,-0.522,-0.027,0.003,0.585,-0.483,-69.107
1747511492.61,0.015,-0.093,-0.058,-0.525,-0.027,0.008,-0.014,-0.510,-69.104
1747511492.63,0.019,-0.094,-0.066,-0.528,-0.018,0.011,-0.614,-0.536,-69.099
1747511492.65,-0.005,-0.094,-0.071,-0.527,-0.020,0.009,-1.215,-0.560,-69.093
1747511492.67,-0.008,-0.096,-0.055,-0.526,-0.028,0.008,-1.814,-0.586,-69.092
1747511492.69,0.002,-0.097,-0.055,-0.523,-0.022,0.007,-2.412,-0.616,-69.092
1747511492.71,0.012,-0.096,-0.065,-0.517,-0.019,0.012,-3.006,-0.646,-69.089
1747511492.73,0.016,-0.097,-0.059,-0.514,-0.016,0.010,-3.596,-0.669,-69.083
1747511492.75,0.003,-0.099,-0.049,-0.512,-0.020,0.011,-4.180,-0.689,-69.076
1747511492.77,-0.004,-0.095,-0.052,-0.503,-0.018,0.008,-4.758,-0.711,-69.073
1747511492.79,-0.004,-0.091,-0.060,-0.491,-0.022,0.005,-5.328,-0.734,-69.072
1747511492.81,0.005,-0.095,-0.052,-0.485,-0.018,0.011,-5.887,-0.759,-69.070
1747511492.83,0.017,-0.093,-0.044,-0.474,-0.017,0.011,-6.433,-0.781,-69.065
1747511492.85,0.005,-0.092,-0.045,-0.465,-0.013,0.012,-6.968,-0.801,-69.057
1747511492.87,-0.003,-0.088,-0.048,-0.450,-0.020,0.009,-7.491,-0.818,-69.054
1747511492.89,-0.001,-0.084,-0.043,-0.435,-0.014,0.010,-8.000,-0.834,-69.050
1747511492.91,0.004,-0.087,-0.043,-0.428,-0.012,0.008,-8.495,-0.850,-69.047
1747511492.93,0.004,-0.087,-0.040,-0.414,-0.011,0.009,-8.975,-0.868,-69.044
1747511492.95,0.009,-0.079,-0.054,-0.401,-0.018,0.012,-9.442,-0.885,-69.039
1747511492.97,0.006,-0.076,-0.039,-0.388,-0.020,0.007,-9.894,-0.901,-69.035
1747511492.99,-0.011,-0.080,-0.036,-0.376,-0.008,0.008,-10.332,-0.915,-69.033
1747511493.01,-0.009,-0.080,-0.047,-0.363,-0.013,0.002,-10.753,-0.932,-69.035
1747511493.03,0.010,-0.080,-0.044,-0.349,-0.015,0.008,-11.159,-0.949,-69.035
1747511493.05,0.024,-0.076,-0.036,-0.336,-0.011,0.010,-11.550,-0.961,-69.032
1747511493.07,0.005,-0.078,-0.045,-0.318,-0.011,0.008,-11.924,-0.972,-69.026
1747511493.09,-0.021,-0.083,-0.050,-0.305,-0.018,0.004,-12.283,-0.986,-69.025
1747511493.11,-0.013,-0.077,-0.048,-0.293,-0.013,0.002,-12.627,-1.006,-69.030
1747511493.13,0.022,-0.081,-0.048,-0.281,-0.018,0.004,-12.955,-1.022,-69.033
1747511493.15,0.022,-0.085,-0.041,-0.261,-0.006,0.009,-13.265,-1.030,-69.030
1747511493.17,-0.004,-0.079,-0.055,-0.245,-0.001,0.007,-13.554,-1.036,-69.026
1747511493.19,-0.017,-0.079,-0.049,-0.227,-0.008,-0.000,-13.825,-1.042,-69.027
1747511493.21,-0.001,-0.083,-0.042,-0.209,-0.012,0.002,-14.076,-1.052,-69.030
1747511493.23,0.019,-0.081,-0.046,-0.191,-0.004,0.001,-14.304,-1.060,-69.032
1747511493.25,0.013,-0.077,-0.045,-0.173,-0.001,0.004,-14.500,-1.064,-69.032
1747511493.27,-0.006,-0.082,-0.049,-0.149,-0.005,0.002,-14.673,-1.070,-69.030
1747511493.29,-0.015,-0.080,-0.039,-0.129,-0.005,-0.001,-14.822,-1.076,-69.033
1747511493.31,0.007,-0.070,-0.031,-0.105,-0.002,0.001,-14.945,-1.078,-69.035
1747511493.33,0.022,-0.076,-0.039,-0.084,0.000,0.005,-15.040,-1.072,-69.034
1747511493.35,0.004,-0.076,-0.044,-0.057,0.005,0.004,-15.108,-1.067,-69.030
1747511493.37,-0.006,-0.065,-0.034,-0.031,0.001,-0.001,-15.147,-1.065,-69.029
1747511493.39,-0.003,-0.060,-0.023,-0.007,0.005,-0.000,-15.157,-1.062,-69.029
1747511493.41,0.006,-0.062,-0.031,0.018,0.004,0.001,-15.137,-1.054,-69.027
1747511493.43,0.011,-0.059,-0.027,0.045,0.009,0.003,-15.085,-1.042,-69.024
1747511493.45,0.000,-0.048,-0.020,0.070,0.010,0.001,-15.002,-1.033,-69.021
1747511493.47,-0.011,-0.043,-0.016,0.097,0.003,-0.001,-14.891,-1.025,-69.021
1747511493.49,0.006,-0.046,-0.017,0.125,0.009,-0.000,-14.746,-1.015,-69.020
1747511493.51,0.019,-0.041,-0.011,0.149,0.014,0.002,-14.570,-0.996,-69.015
1747511493.53,0.001,-0.029,-0.001,0.173,0.017,-0.001,-14.368,-0.974,-69.009
1747511493.55,-0.010,-0.027,-0.003,0.198,0.012,-0.004,-14.143,-0.959,-69.007
1747511493.57,0.002,-0.014,0.010,0.220,0.014,-0.005,-13.891,-0.943,-69.006
1747511493.59,0.009,-0.011,0.009,0.245,0.014,0.000,-13.612,-0.920,-69.001
1747511493.61,0.002,-0.004,0.018,0.266,0.019,0.002,-13.315,-0.898,-68.997
1747511493.63,-0.001,-0.001,0.020,0.287,0.020,-0.001,-12.994,-0.880,-68.995
1747511493.65,0.002,0.003,0.021,0.309,0.023,-0.002,-12.655,-0.860,-68.991
1747511493.67,-0.003,0.017,0.035,0.326,0.021,-0.003,-12.295,-0.831,-68.987
1747511493.69,0.000,0.013,0.031,0.345,0.019,-0.003,-11.915,-0.803,-68.983
1747511493.71,0.008,0.031,0.040,0.361,0.024,-0.002,-11.512,-0.779,-68.980
1747511493.73,0.004,0.030,0.041,0.375,0.023,0.000,-11.091,-0.749,-68.974
1747511493.75,-0.009,0.039,0.047,0.391,0.024,-0.004,-10.654,-0.722,-68.970
1747511493.77,-0.001,0.050,0.054,0.405,0.026,-0.002,-10.201,-0.697,-68.968
1747511493.79,0.008,0.049,0.050,0.414,0.026,-0.001,-9.735,-0.670,-68.965
1747511493.81,0.001,0.061,0.058,0.423,0.026,-0.002,-9.256,-0.642,-68.961
1747511493.83,-0.006,0.056,0.059,0.434,0.026,-0.003,-8.766,-0.612,-68.957
1747511493.85,-0.001,0.071,0.057,0.441,0.026,-0.005,-8.266,-0.583,-68.955
1747511493.87,-0.003,0.080,0.064,0.450,0.025,-0.004,-7.757,-0.554,-68.952
1747511493.89,0.001,0.074,0.058,0.455,0.020,-0.001,-7.241,-0.530,-68.951
1747511493.91,0.005,0.095,0.064,0.458,0.027,-0.000,-6.720,-0.503,-68.947
1747511493.93,-0.004,0.090,0.059,0.463,0.021,-0.001,-6.190,-0.476,-68.945
1747511493.95,-0.009,0.102,0.062,0.464,0.024,-0.003,-5.659,-0.451,-68.943
1747511493.97,0.003,0.102,0.058,0.469,0.021,-0.001,-5.126,-0.427,-68.940
1747511493.99,0.005,0.102,0.056,0.471,0.020,-0.002,-4.589,-0.402,-68.938
1747511494.01,-0.002,0.114,0.050,0.473,0.022,-0.000,-4.048,-0.379,-68.935
1747511494.03,-0.012,0.113,0.054,0.473,0.019,-0.002,-3.507,-0.357,-68.934
1747511494.05,-0.004,0.117,0.050,0.472,0.018,-0.003,-2.967,-0.334,-68.934
1747511494.07,0.008,0.119,0.039,0.473,0.011,-0.002,-2.427,-0.315,-68.933
1747511494.09,-0.005,0.121,0.038,0.471,0.006,0.000,-1.887,-0.300,-68.932
1747511494.11,-0.008,0.131,0.045,0.462,0.031,-0.001,-1.349,-0.286,-68.929
1747511494.13,0.003,0.121,0.033,0.463,0.020,-0.001,-0.813,-0.274,-68.930
1747511494.15,0.008,0.138,0.031,0.469,-0.006,0.001,-0.280,-0.269,-68.927
1747511494.17,-0.012,0.123,0.031,0.467,0.014,-0.002,0.251,-0.264,-68.925
1747511494.19,0.001,0.136,0.024,0.460,0.010,-0.001,0.778,-0.253,-68.923
1747511494.21,-0.007,0.123,0.022,0.453,0.021,-0.001,1.300,-0.240,-68.921
1747511494.23,-0.024,0.134,0.019,0.449,0.027,-0.003,1.816,-0.220,-68.924
1747511494.25,0.015,0.125,0.011,0.451,0.005,0.001,2.328,-0.205,-68.925
1747511494.27,0.018,0.128,0.008,0.444,0.006,0.002,2.835,-0.196,-68.921
1747511494.29,-0.020,0.125,0.018,0.432,0.019,-0.002,3.336,-0.181,-68.918
1747511494.31,-0.017,0.130,0.013,0.428,0.023,-0.003,3.828,-0.160,-68.919
1747511494.33,0.004,0.122,-0.001,0.418,0.020,0.000,4.313,-0.139,-68.920
1747511494.35,0.006,0.124,0.004,0.417,0.009,0.000,4.791,-0.120,-68.919
1747511494.37,0.002,0.120,-0.006,0.411,0.005,0.000,5.262,-0.107,-68.919
1747511494.39,-0.005,0.124,0.001,0.401,0.014,-0.003,5.723,-0.098,-68.919
1747511494.41,-0.015,0.117,0.002,0.388,0.023,-0.002,6.173,-0.077,-68.920
1747511494.43,-0.002,0.121,-0.005,0.380,0.014,-0.002,6.613,-0.057,-68.921
1747511494.45,-0.001,0.117,-0.009,0.374,0.012,-0.000,7.042,-0.042,-68.923
1747511494.47,0.006,0.114,-0.009,0.358,0.007,0.002,7.460,-0.029,-68.923
1747511494.48,0.004,0.113,-0.016,0.350,0.009,-0.003,7.865,-0.022,-68.922
1747511494.51,-0.021,0.117,0.002,0.338,0.017,-0.000,8.259,-0.009,-68.923
1747511494.53,-0.009,0.110,-0.008,0.322,0.015,-0.004,8.636,0.010,-68.927
1747511494.54,0.013,0.107,-0.021,0.312,0.008,0.001,8.999,0.023,-68.928
1747511494.56,-0.002,0.108,-0.014,0.299,0.008,-0.005,9.346,0.033,-68.929
1747511494.58,-0.005,0.102,-0.018,0.283,0.003,-0.001,9.678,0.041,-68.932
1747511494.60,-0.004,0.101,-0.015,0.268,0.006,-0.002,9.991,0.049,-68.933
1747511494.62,-0.006,0.102,-0.017,0.252,0.008,-0.001,10.285,0.056,-68.935
1747511494.64,0.002,0.109,-0.018,0.238,0.004,0.001,10.564,0.062,-68.937
1747511494.66,0.008,0.098,-0.022,0.221,0.005,0.002,10.825,0.067,-68.936
1747511494.68,-0.009,0.097,-0.018,0.201,0.005,0.000,11.064,0.072,-68.935
1747511494.70,-0.011,0.087,-0.026,0.177,0.011,-0.001,11.263,0.081,-68.937
1747511494.72,0.001,0.085,-0.026,0.162,0.008,-0.001,11.412,0.090,-68.939
1747511494.74,0.002,0.086,-0.030,0.144,0.003,0.002,11.544,0.098,-68.939
1747511494.76,-0.002,0.079,-0.035,0.123,-0.002,-0.004,11.654,0.095,-68.939
1747511494.78,0.002,0.074,-0.033,0.104,-0.006,0.002,11.748,0.087,-68.939
1747511494.80,0.000,0.076,-0.037,0.081,-0.005,-0.000,11.829,0.080,-68.938
1747511494.82,-0.009,0.067,-0.036,0.060,0.003,-0.002,11.889,0.079,-68.939
1747511494.84,0.003,0.064,-0.035,0.037,0.003,0.001,11.927,0.083,-68.939
1747511494.86,-0.001,0.060,-0.046,0.014,0.002,0.000,11.945,0.086,-68.938
1747511494.88,-0.012,0.050,-0.047,-0.006,0.000,-0.003,11.940,0.088,-68.939
1747511494.90,0.012,0.044,-0.055,-0.029,-0.008,0.002,11.912,0.083,-68.939
1747511494.92,0.010,0.040,-0.055,-0.049,-0.011,0.001,11.861,0.073,-68.937
1747511494.94,-0.018,0.041,-0.053,-0.076,-0.004,-0.000,11.784,0.064,-68.937
1747511494.96,-0.004,0.028,-0.055,-0.098,-0.004,0.001,11.683,0.057,-68.937
1747511494.98,0.012,0.018,-0.062,-0.120,-0.006,0.003,11.557,0.053,-68.935
1747511495.00,-0.003,0.015,-0.062,-0.142,-0.006,0.001,11.405,0.049,-68.933
1747511495.02,-0.000,0.014,-0.069,-0.168,-0.017,0.003,11.227,0.035,-68.932
1747511495.04,0.003,0.008,-0.053,-0.184,-0.013,0.009,11.026,0.025,-68.927
1747511495.06,0.017,0.002,-0.072,-0.207,-0.007,0.001,10.802,0.005,-68.921
1747511495.08,-0.019,0.001,-0.085,-0.231,-0.008,-0.001,10.554,-0.006,-68.920
1747511495.10,-0.007,-0.009,-0.056,-0.258,-0.000,0.005,10.279,-0.014,-68.920
1747511495.12,0.012,-0.026,-0.078,-0.268,-0.016,0.003,9.981,-0.028,-68.916
1747511495.14,0.008,-0.030,-0.079,-0.286,-0.028,0.005,9.663,-0.048,-68.910
1747511495.16,-0.003,-0.024,-0.086,-0.310,-0.016,0.005,9.323,-0.073,-68.905
1747511495.18,-0.005,-0.030,-0.069,-0.326,-0.022,0.000,8.961,-0.093,-68.902
1747511495.20,0.000,-0.040,-0.066,-0.347,-0.013,0.000,8.576,-0.112,-68.902
1747511495.22,0.001,-0.039,-0.071,-0.361,-0.018,0.003,8.172,-0.129,-68.901
1747511495.24,0.021,-0.053,-0.084,-0.379,-0.023,0.007,7.746,-0.150,-68.897
1747511495.26,0.006,-0.047,-0.083,-0.394,-0.021,0.007,7.305,-0.176,-68.888
1747511495.28,-0.014,-0.052,-0.072,-0.409,-0.025,0.001,6.846,-0.204,-68.884
1747511495.30,-0.015,-0.059,-0.074,-0.429,-0.014,0.001,6.367,-0.229,-68.884
1747511495.32,0.013,-0.055,-0.076,-0.443,-0.019,0.002,5.871,-0.248,-68.883
1747511495.34,0.022,-0.068,-0.068,-0.453,-0.022,0.009,5.359,-0.272,-68.878
1747511495.36,0.007,-0.070,-0.080,-0.469,-0.022,0.008,4.832,-0.300,-68.870
1747511495.38,-0.003,-0.066,-0.076,-0.481,-0.024,0.007,4.290,-0.328,-68.865
1747511495.40,-0.011,-0.079,-0.069,-0.489,-0.024,0.004,3.735,-0.356,-68.862
1747511495.42,-0.003,-0.079,-0.074,-0.501,-0.022,0.005,3.169,-0.382,-68.861
1747511495.44,0.017,-0.081,-0.071,-0.509,-0.023,0.009,2.591,-0.406,-68.857
1747511495.46,0.018,-0.089,-0.072,-0.517,-0.026,0.009,2.004,-0.433,-68.851
1747511495.48,0.005,-0.089,-0.073,-0.526,-0.028,0.008,1.408,-0.464,-68.844
1747511495.50,-0.012,-0.089,-0.068,-0.530,-0.026,0.004,0.806,-0.495,-68.841
1747511495.52,-0.008,-0.095,-0.065,-0.535,-0.022,0.004,0.196,-0.522,-68.841
1747511495.54,0.016,-0.097,-0.067,-0.538,-0.021,0.010,-0.417,-0.549,-68.839
1747511495.56,0.021,-0.096,-0.069,-0.541,-0.020,0.009,-1.032,-0.572,-68.834
1747511495.58,0.003,-0.102,-0.065,-0.538,-0.028,0.010,-1.649,-0.601,-68.829
1747511495.60,-0.009,-0.096,-0.064,-0.542,-0.031,0.006,-2.268,-0.636,-68.828
1747511495.62,0.001,-0.105,-0.064,-0.539,-0.025,0.005,-2.883,-0.669,-68.828
1747511495.64,0.011,-0.099,-0.059,-0.538,-0.018,0.009,-3.498,-0.695,-68.827
1747511495.66,0.011,-0.103,-0.064,-0.531,-0.020,0.010,-4.108,-0.716,-68.825
1747511495.68,0.003,-0.102,-0.065,-0.526,-0.027,0.010,-4.713,-0.741,-68.822
1747511495.70,-0.004,-0.102,-0.057,-0.519,-0.024,0.006,-5.311,-0.769,-68.820
1747511495.72,-0.000,-0.105,-0.057,-0.514,-0.005,0.008,-5.902,-0.784,-68.821
1747511495.74,0.010,-0.103,-0.058,-0.507,0.005,0.012,-6.487,-0.782,-68.817
1747511495.76,0.012,-0.102,-0.057,-0.496,-0.002,0.009,-7.058,-0.781,-68.812
1747511495.78,0.003,-0.104,-0.056,-0.482,-0.011,0.008,-7.616,-0.783,-68.809
1747511495.80,0.001,-0.101,-0.052,-0.469,-0.016,0.008,-8.161,-0.785,-68.805
1747511495.82,0.005,-0.097,-0.052,-0.454,-0.039,0.007,-8.687,-0.818,-68.803
1747511495.84,0.002,-0.100,-0.055,-0.439,-0.048,0.006,-9.198,-0.868,-68.803
1747511495.86,0.004,-0.096,-0.043,-0.426,-0.034,0.006,-9.692,-0.913,-68.803
1747511495.88,0.006,-0.094,-0.046,-0.433,-0.026,0.007,-10.176,-0.936,-68.803
1747511495.90,0.006,-0.092,-0.057,-0.404,-0.021,0.008,-10.644,-0.954,-68.802
1747511495.92,0.007,-0.094,-0.040,-0.386,-0.014,0.008,-11.093,-0.968,-68.800
1747511495.94,0.008,-0.087,-0.046,-0.363,-0.021,0.008,-11.519,-0.987,-68.797
1747511495.96,0.002,-0.087,-0.043,-0.339,-0.013,0.006,-11.920,-1.009,-68.796
1747511495.98,-0.001,-0.084,-0.036,-0.319,-0.029,0.004,-12.296,-1.035,-68.796
1747511496.00,-0.004,-0.082,-0.038,-0.301,-0.023,0.004,-12.648,-1.055,-68.800
1747511496.02,0.009,-0.077,-0.031,-0.286,-0.019,0.005,-12.983,-1.083,-68.802
1747511496.04,0.016,-0.081,-0.032,-0.263,-0.038,0.010,-13.299,-1.104,-68.800
1747511496.06,0.002,-0.070,-0.024,-0.246,-0.014,0.006,-13.591,-1.131,-68.796
1747511496.08,-0.010,-0.070,-0.029,-0.232,0.008,0.003,-13.864,-1.143,-68.797
1747511496.10,-0.001,-0.067,-0.032,-0.208,0.005,0.004,-14.116,-1.133,-68.798
1747511496.12,0.017,-0.065,-0.032,-0.188,0.004,0.005,-14.341,-1.129,-68.797
1747511496.14,0.008,-0.063,-0.022,-0.163,0.012,0.004,-14.533,-1.118,-68.794
1747511496.16,-0.007,-0.056,-0.019,-0.144,0.006,0.003,-14.688,-1.109,-68.793
1747511496.18,-0.003,-0.052,-0.027,-0.125,0.003,0.003,-14.818,-1.099,-68.794
1747511496.20,0.007,-0.043,-0.018,-0.102,-0.007,0.001,-14.922,-1.088,-68.792
1747511496.22,0.003,-0.045,-0.018,-0.083,-0.001,0.001,-14.998,-1.081,-68.792
1747511496.24,0.005,-0.040,-0.014,-0.061,-0.002,0.001,-15.055,-1.083,-68.794
1747511496.26,0.007,-0.028,-0.006,-0.045,0.001,-0.238,-15.089,-1.090,-68.859
1747511496.28,0.004,0.037,-0.014,-0.024,0.006,-0.505,-15.105,-1.232,-69.397
1747511496.30,0.004,-0.084,-0.010,-0.007,-0.021,-0.400,-15.101,-1.364,-69.869
1747511496.32,0.020,-0.039,-0.003,0.013,0.002,-0.397,-15.077,-1.497,-70.358
1747511496.34,-0.002,-0.025,-0.007,0.034,-0.000,-0.179,-15.034,-1.590,-70.710
1747511496.36,-0.007,-0.004,-0.000,0.052,0.018,0.001,-14.988,-1.592,-70.774
1747511496.38,-0.001,-0.006,0.008,0.072,0.055,-0.001,-14.905,-1.553,-70.770
1747511496.40,-0.008,0.003,0.016,0.093,0.089,-0.000,-14.803,-1.470,-70.768
1747511496.42,-0.013,-0.006,-0.005,0.144,0.555,-0.011,-14.665,-1.151,-70.767
1747511496.44,0.048,-0.069,-0.013,0.098,0.235,-0.182,-14.514,-0.546,-70.913
1747511496.46,0.053,-0.138,0.018,0.114,-0.580,-0.114,-14.376,-0.808,-71.046
1747511496.48,-0.030,0.152,0.016,0.158,0.242,-0.042,-14.241,-1.176,-71.179
1747511496.50,0.006,0.071,0.010,0.146,-0.088,-0.093,-14.064,-1.032,-71.204
1747511496.52,0.091,0.099,0.013,0.167,-0.008,-0.371,-13.883,-1.179,-71.556
1747511496.54,-0.119,0.073,0.017,0.160,-0.042,-0.050,-13.694,-1.280,-71.758
1747511496.56,-0.037,-0.078,0.006,0.177,-0.037,0.000,-13.505,-1.320,-71.760
1747511496.58,-0.015,0.028,0.023,0.185,0.012,0.016,-13.299,-1.314,-71.748
1747511496.60,0.117,0.003,0.026,0.188,0.127,0.310,-13.084,-1.186,-71.574
1747511496.62,0.078,-0.083,0.017,0.169,0.123,0.443,-12.894,-0.956,-71.050
1747511496.64,-0.163,0.117,0.014,0.187,0.052,0.096,-12.701,-0.738,-70.694
1747511496.66,-0.094,0.092,0.015,0.110,-0.112,-0.011,-12.520,-0.763,-70.686
1747511496.68,0.006,0.049,0.010,-0.095,-0.105,0.033,-12.510,-0.907,-70.688
1747511496.70,0.030,0.029,0.021,-0.014,-0.052,0.024,-12.531,-0.946,-70.614
1747511496.72,0.076,-0.009,-0.018,-0.107,-0.341,0.131,-12.636,-1.132,-70.595
1747511496.74,-0.002,-0.073,-0.053,-0.226,-0.644,0.550,-12.868,-1.610,-70.189
1747511496.76,-0.009,0.051,-0.095,-0.152,-0.684,0.700,-13.078,-2.236,-69.413
1747511496.78,-0.002,0.063,0.052,-0.254,-0.578,0.403,-13.377,-2.825,-68.780
1747511496.80,-0.045,0.099,-0.032,0.031,-0.735,0.326,-13.508,-3.484,-68.382
1747511496.82,-0.075,0.115,-0.160,0.219,-0.828,0.557,-13.389,-4.244,-67.876
1747511496.84,-0.058,-0.042,-0.269,0.672,-1.158,0.530,-12.990,-5.224,-67.174
1747511496.86,0.034,0.110,-0.473,1.363,-1.090,0.599,-11.875,-6.446,-66.395
1747511496.88,0.093,0.217,-0.385,1.303,-0.235,0.389,-10.353,-7.032,-65.614
1747511496.90,-0.118,0.138,-0.403,1.147,-0.305,0.435,-9.055,-7.136,-65.011
1747511496.92,-0.158,0.235,-0.422,1.212,-0.673,0.619,-7.785,-7.652,-64.226
1747511496.94,-0.098,0.303,-0.230,0.898,-0.495,0.633,-6.679,-8.229,-63.323
1747511496.96,-0.111,0.342,-0.165,0.818,-0.264,0.480,-5.839,-8.551,-62.561
1747511496.98,-0.097,0.325,-0.267,0.969,-0.650,0.540,-4.923,-8.978,-61.859
1747511497.00,-0.086,0.330,-0.236,1.032,-1.330,0.871,-3.909,-10.027,-60.853
1747511497.02,-0.118,0.380,-0.071,0.839,-1.173,0.731,-3.008,-11.488,-59.700
1747511497.04,-0.109,0.436,0.001,0.187,-0.577,0.385,-2.536,-12.435,-58.941
1747511497.06,-0.110,0.230,-0.102,-0.157,-0.190,0.240,-2.661,-12.806,-58.649
1747511497.08,-0.039,0.179,-0.317,0.144,-0.511,0.708,-2.796,-13.136,-58.169
1747511497.10,0.041,0.246,-0.306,0.224,-0.897,1.063,-2.805,-13.915,-57.054
1747511497.12,-0.039,0.263,-0.186,0.005,-0.962,0.726,-2.956,-14.965,-56.005
1747511497.14,-0.069,0.219,-0.054,0.441,-0.640,0.306,-2.924,-15.818,-55.389
1747511497.16,-0.051,0.242,-0.166,1.115,-0.729,0.107,-2.096,-16.522,-54.939
1747511497.18,0.002,0.083,-0.210,1.134,-1.319,0.442,-0.880,-17.665,-54.292
1747511497.20,-0.083,0.083,-0.120,0.667,-1.823,0.809,-0.132,-19.478,-53.243
1747511497.22,-0.127,0.078,-0.089,0.354,-1.485,0.703,0.066,-21.468,-52.206
1747511497.24,-0.060,0.069,-0.091,0.280,-0.572,0.100,0.218,-22.645,-51.619
1747511497.26,-0.145,0.095,0.023,0.016,0.075,-0.368,0.476,-22.845,-51.712
1747511497.28,-0.157,0.066,0.072,-0.386,-0.126,-0.357,0.440,-22.835,-52.229
1747511497.30,-0.045,-0.006,0.091,-0.220,-0.504,-0.157,0.161,-23.167,-52.645
1747511497.32,-0.128,-0.054,0.018,0.396,-0.793,-0.221,0.334,-23.920,-52.792
1747511497.34,-0.045,-0.016,0.077,0.714,-0.747,-0.305,1.077,-24.802,-52.787
1747511497.36,0.080,0.016,0.158,0.691,-0.495,-0.494,2.016,-25.529,-52.841
1747511497.38,0.068,0.003,0.289,0.465,-0.090,-0.720,2.924,-25.885,-53.175
1747511497.40,0.004,0.016,0.356,0.064,0.182,-0.809,3.605,-25.766,-53.856
1747511497.42,0.126,0.005,0.293,-0.328,0.535,-0.530,3.792,-25.311,-54.639
1747511497.44,0.152,-0.102,0.189,-0.529,0.694,-0.364,3.528,-24.538,-55.269
1747511497.46,0.055,0.025,0.239,-0.522,0.862,-0.371,3.151,-23.610,-55.919
1747511497.48,0.109,0.018,0.307,-0.605,0.476,-0.481,2.745,-22.790,-56.601
1747511497.50,0.149,-0.016,0.300,0.138,-0.284,-0.060,2.491,-22.613,-57.201
1747511497.52,0.189,-0.163,0.065,0.845,0.130,-0.134,3.032,-22.546,-57.086
1747511497.54,0.269,-0.222,-0.151,1.265,0.271,0.079,4.222,-22.331,-56.660
1747511497.56,0.428,-0.108,0.108,1.152,0.979,0.718,5.368,-21.778,-55.760
1747511497.58,0.539,-0.179,0.279,0.856,1.502,1.177,6.021,-20.441,-54.202
1747511497.60,0.310,0.049,0.193,0.600,1.763,0.601,6.442,-18.752,-52.944
1747511497.62,-0.002,0.018,0.217,0.178,1.494,0.449,6.742,-16.930,-52.268
1747511497.63,0.040,0.015,0.283,-0.656,1.174,0.380,6.279,-15.352,-51.961
1747511497.66,0.016,-0.019,0.121,-0.540,0.900,0.592,5.419,-14.269,-51.564
1747511497.67,-0.209,-0.014,-0.044,-0.041,1.089,0.525,4.945,-13.189,-51.028
1747511497.69,-0.200,-0.132,-0.025,0.316,1.519,0.544,4.970,-11.870,-50.410
1747511497.72,-0.199,-0.140,0.259,0.502,2.215,0.696,5.357,-9.741,-49.595
1747511497.73,-0.038,-0.072,0.196,-0.032,1.907,0.535,5.540,-7.452,-48.827
1747511497.75,0.091,0.059,0.169,-0.508,1.764,0.428,5.154,-5.336,-48.352
1747511497.77,0.095,-0.011,0.049,-0.811,1.427,0.491,4.336,-3.498,-47.881
1747511497.79,-0.042,-0.017,-0.061,-0.620,1.059,0.390,3.444,-2.160,-47.407
1747511497.81,-0.132,0.020,-0.090,0.167,1.094,0.185,3.131,-0.955,-47.079
1747511497.83,-0.045,0.061,-0.131,0.970,1.293,0.185,3.821,0.374,-46.916
1747511497.85,0.121,0.077,0.056,1.205,1.707,0.301,5.124,2.079,-46.628
1747511497.87,0.094,0.046,0.122,0.797,1.614,0.220,6.344,4.040,-46.408
1747511497.89,-0.009,-0.023,0.102,0.102,0.939,0.095,6.842,5.479,-46.277
1747511497.91,-0.036,-0.014,0.020,0.014,0.447,0.051,6.864,6.222,-46.176
1747511497.93,-0.022,0.062,-0.101,0.344,0.483,-0.190,7.049,6.692,-46.275
1747511497.95,0.004,0.052,-0.091,0.566,0.870,-0.339,7.545,7.527,-46.659
1747511497.97,0.026,0.034,-0.012,0.477,0.687,-0.252,8.111,8.536,-47.116
1747511497.99,0.020,0.050,0.024,0.220,0.289,0.008,8.486,9.106,-47.309
1747511498.01,-0.019,0.017,0.012,0.066,0.079,-0.010,8.635,9.293,-47.306
1747511498.03,-0.006,0.011,-0.012,0.161,0.060,-0.120,8.718,9.390,-47.390
1747511498.05,0.085,0.049,0.148,0.998,-0.213,-0.310,9.388,9.413,-47.795
1747511498.07,0.130,0.126,-0.071,0.837,-0.609,-0.222,10.478,9.049,-48.303
1747511498.09,0.022,0.042,-0.062,0.028,-0.436,-0.235,10.911,8.400,-48.627
1747511498.11,-0.004,0.069,0.131,-0.151,0.188,-0.260,10.750,8.296,-48.897
1747511498.13,0.055,0.108,0.135,-0.233,0.490,-0.188,10.523,8.796,-49.133
1747511498.15,0.032,0.083,-0.012,-0.263,0.374,-0.118,10.195,9.336,-49.257
1747511498.17,0.037,0.047,-0.138,-0.112,-0.030,-0.165,9.944,9.583,-49.371
1747511498.19,0.057,0.060,-0.181,0.203,-0.434,-0.245,9.954,9.331,-49.617
1747511498.21,0.054,0.063,-0.107,0.483,-0.512,-0.248,10.314,8.836,-49.970
1747511498.23,0.088,0.062,0.050,0.429,-0.432,-0.181,10.822,8.343,-50.317
1747511498.25,0.095,0.073,0.118,0.167,-0.306,-0.028,11.148,7.939,-50.477
1747511498.27,0.058,0.068,0.044,0.055,-0.137,-0.014,11.253,7.702,-50.506
1747511498.29,0.031,0.056,-0.055,0.096,0.046,0.004,11.330,7.661,-50.527
1747511498.31,0.049,0.046,-0.059,0.153,0.082,0.047,11.481,7.734,-50.522
1747511498.33,0.120,0.082,-0.020,0.217,0.192,0.121,11.706,7.886,-50.445
1747511498.35,0.107,0.090,-0.041,0.283,0.206,0.079,12.008,8.084,-50.367
1747511498.37,0.076,0.054,-0.033,0.384,0.475,0.035,12.385,8.457,-50.360
1747511498.39,0.008,0.027,-0.067,0.472,0.641,0.014,12.887,9.125,-50.414
1747511498.41,0.017,0.040,-0.036,0.446,0.661,0.141,13.412,9.884,-50.428
1747511498.43,0.110,0.083,0.045,0.476,0.624,0.206,13.969,10.596,-50.305
1747511498.45,0.063,0.079,0.032,0.448,0.823,0.124,14.535,11.371,-50.212
1747511498.47,-0.009,0.020,0.027,0.365,1.062,0.084,15.025,12.475,-50.194
1747511498.49,-0.013,0.015,-0.006,0.319,1.056,0.172,15.408,13.685,-50.123
1747511498.51,-0.013,0.044,0.004,0.349,0.706,0.268,15.853,14.685,-49.898
1747511498.53,-0.025,0.031,-0.036,0.508,0.413,0.274,16.361,15.277,-49.647
1747511498.55,0.101,0.021,0.157,0.734,-0.356,-0.057,17.206,15.216,-49.780
1747511498.57,0.091,0.083,-0.009,0.207,-0.556,-0.105,17.653,14.740,-50.059
1747511498.59,-0.074,0.034,-0.017,-0.013,-0.428,-0.053,17.725,14.186,-50.081
1747511498.62,-0.091,0.013,0.006,0.148,-0.372,-0.211,17.729,13.793,-50.178
