Time,AccX,AccY,AccZ,GyroX,GyroY,GyroZ,Pitch,Roll,Yaw
1747607223.88,0.016,-0.019,0.041,-0.172,-0.344,0.103,-86.466,22.115,-13.404
1747607223.89,-0.024,-0.019,0.034,-0.160,-0.295,0.091,-86.536,23.365,-11.967
1747607223.90,-0.048,-0.015,0.011,-0.130,-0.207,0.082,-86.595,24.547,-10.638
1747607223.91,-0.054,-0.004,0.004,-0.101,-0.121,0.087,-86.636,25.672,-9.417
1747607223.92,-0.052,0.016,0.015,-0.098,-0.056,0.083,-86.665,26.824,-8.212
1747607223.93,-0.036,0.028,0.026,-0.097,-0.028,0.083,-86.692,27.995,-7.018
1747607223.94,-0.016,0.027,0.037,-0.061,-0.024,0.095,-86.708,29.172,-5.824
1747607223.95,0.003,0.014,0.015,-0.034,0.020,0.093,-86.703,30.226,-4.766
1747607223.96,0.009,0.002,0.012,-0.046,0.080,0.077,-86.698,31.182,-3.835
1747607223.97,0.000,-0.004,0.031,-0.045,0.144,0.073,-86.702,32.096,-2.985
1747607223.98,-0.004,-0.005,0.025,-0.049,0.158,0.079,-86.704,33.010,-2.156
1747607223.99,-0.003,0.005,0.007,-0.040,0.169,0.076,-86.703,33.928,-1.330
1747607224.00,0.001,0.021,0.010,-0.025,0.159,0.065,-86.699,34.743,-0.609
1747607224.01,0.012,0.041,0.004,-0.012,0.136,0.060,-86.690,35.402,-0.032
1747607224.02,0.021,0.049,-0.013,-0.012,0.139,0.060,-86.679,36.019,0.507
1747607224.03,0.034,0.031,0.008,-0.023,0.126,0.063,-86.668,36.689,1.101
1747607224.04,0.043,0.007,0.026,-0.014,0.082,0.052,-86.657,37.332,1.685
1747607224.05,0.036,-0.005,0.008,-0.011,0.033,0.035,-86.649,37.789,2.110
1747607224.06,0.034,-0.010,-0.001,-0.014,0.001,0.033,-86.645,38.152,2.464
1747607224.07,0.049,-0.004,-0.007,-0.013,-0.033,0.035,-86.641,38.485,2.807
1747607224.08,0.065,0.008,-0.028,-0.005,-0.065,0.016,-86.637,38.729,3.080
1747607224.09,0.068,0.013,-0.044,0.013,-0.071,0.001,-86.632,38.744,3.135
1747607224.10,0.064,0.003,-0.054,0.015,-0.082,-0.004,-86.624,38.594,3.027
1747607224.11,0.064,0.002,-0.049,0.009,-0.094,-0.001,-86.619,38.516,3.000
1747607224.12,0.062,0.009,-0.039,0.039,-0.098,0.000,-86.609,38.414,2.952
1747607224.13,0.049,0.016,-0.036,0.088,-0.094,-0.012,-86.581,38.014,2.606
1747607224.14,0.015,0.010,-0.042,0.112,-0.050,-0.010,-86.536,37.348,1.981
1747607224.15,-0.015,-0.002,-0.040,0.077,0.030,-0.008,-86.490,36.793,1.432
1747607224.16,-0.031,-0.010,-0.017,0.047,0.120,-0.009,-86.458,36.499,1.094
1747607224.17,-0.033,-0.003,-0.004,0.037,0.162,-0.012,-86.437,36.316,0.827
1747607224.18,-0.024,-0.003,0.001,0.039,0.170,-0.001,-86.417,36.198,0.615
1747607224.19,0.011,-0.008,0.011,0.044,0.181,0.005,-86.392,36.129,0.444
1747607224.20,0.051,-0.006,0.043,0.039,0.150,-0.006,-86.369,36.028,0.247
1747607224.21,0.056,-0.011,0.058,0.039,0.088,-0.021,-86.354,35.804,-0.047
1747607224.22,0.028,-0.011,0.054,0.058,0.027,-0.031,-86.338,35.391,-0.492
1747607224.23,-0.012,0.008,0.043,0.075,0.045,-0.039,-86.317,34.748,-1.153
1747607224.24,-0.051,0.010,0.037,0.041,0.119,-0.061,-86.304,34.104,-1.844
1747607224.25,-0.074,0.009,0.063,0.013,0.169,-0.074,-86.315,33.536,-2.498
1747607224.26,-0.087,0.025,0.082,-0.013,0.205,-0.068,-86.338,33.107,-3.034
1747607224.27,-0.078,0.024,0.079,-0.050,0.243,-0.065,-86.373,32.914,-3.355
1747607224.28,-0.038,0.018,0.087,-0.065,0.239,-0.062,-86.422,32.899,-3.511
1747607224.29,0.013,0.017,0.100,-0.067,0.192,-0.056,-86.471,32.952,-3.582
1747607224.30,0.048,0.008,0.092,-0.085,0.161,-0.051,-86.524,33.060,-3.577
1747607224.31,0.069,-0.018,0.083,-0.118,0.122,-0.059,-86.592,33.240,-3.478
1747607224.32,0.089,-0.045,0.059,-0.149,0.058,-0.045,-86.675,33.581,-3.188
1747607224.33,0.106,-0.056,0.028,-0.132,-0.030,-0.036,-86.758,34.028,-2.750
1747607224.34,0.123,-0.048,-0.017,-0.120,-0.102,-0.042,-86.832,34.364,-2.372
1747607224.35,0.139,-0.028,-0.078,-0.115,-0.122,-0.032,-86.901,34.675,-1.997
1747607224.36,0.160,-0.016,-0.097,-0.086,-0.123,-0.031,-86.959,34.973,-1.627
1747607224.37,0.159,0.011,-0.117,-0.017,-0.126,-0.075,-87.002,34.812,-1.718
1747607224.38,0.094,0.040,-0.115,0.087,-0.143,-0.124,-87.018,33.640,-2.815
1747607224.39,-0.008,0.053,-0.110,0.177,-0.175,-0.140,-86.996,31.541,-4.826
1747607224.40,-0.077,0.053,-0.099,0.228,-0.131,-0.138,-86.935,29.042,-7.236
1747607224.41,-0.103,0.031,-0.091,0.198,-0.005,-0.104,-86.858,26.796,-9.446
1747607224.42,-0.086,-0.015,-0.044,0.127,0.118,-0.048,-86.793,25.390,-10.887
1747607224.43,-0.065,-0.052,-0.011,0.078,0.185,0.002,-86.745,24.867,-11.501
1747607224.44,-0.056,-0.061,-0.012,0.050,0.204,0.027,-86.708,24.875,-11.604
1747607224.45,-0.045,-0.043,-0.020,0.040,0.216,0.035,-86.675,25.105,-11.496
1747607224.46,-0.009,-0.008,-0.008,0.035,0.197,0.032,-86.646,25.382,-11.337
1747607224.47,0.034,0.017,0.012,0.044,0.151,0.011,-86.620,25.521,-11.299
1747607224.48,0.056,0.026,0.023,0.050,0.079,-0.015,-86.595,25.364,-11.523
1747607224.49,0.047,0.026,0.009,0.043,0.002,-0.040,-86.577,24.936,-11.975
1747607224.50,0.026,0.016,0.000,0.049,-0.073,-0.052,-86.564,24.317,-12.574
1747607224.51,0.021,0.001,0.002,0.077,-0.138,-0.064,-86.546,23.505,-13.329
1747607224.52,0.026,-0.011,0.015,0.131,-0.205,-0.087,-86.510,22.369,-14.369
1747607224.53,0.029,-0.016,0.025,0.203,-0.267,-0.096,-86.440,20.838,-15.767
1747607224.54,0.031,-0.020,0.016,0.231,-0.309,-0.092,-86.340,19.189,-17.255
1747607224.55,0.022,-0.011,0.006,0.224,-0.325,-0.082,-86.233,17.655,-18.609
1747607224.56,-0.012,0.008,0.001,0.213,-0.293,-0.072,-86.127,16.330,-19.758
1747607224.57,-0.057,0.030,0.002,0.224,-0.238,-0.069,-86.019,15.167,-20.772
1747607224.58,-0.101,0.043,0.011,0.230,-0.147,-0.065,-85.902,14.085,-21.745
1747607224.59,-0.123,0.040,0.024,0.205,-0.047,-0.062,-85.789,13.149,-22.628
1747607224.60,-0.129,0.029,0.058,0.191,0.048,-0.056,-85.688,12.382,-23.398
1747607224.61,-0.138,0.014,0.091,0.198,0.142,-0.054,-85.586,11.740,-24.097
1747607224.62,-0.144,0.002,0.095,0.200,0.214,-0.052,-85.482,11.189,-24.753
1747607224.63,-0.141,-0.005,0.104,0.186,0.236,-0.045,-85.378,10.720,-25.355
1747607224.64,-0.124,-0.012,0.101,0.139,0.203,-0.026,-85.291,10.393,-25.811
1747607224.65,-0.086,-0.021,0.100,0.110,0.171,-0.018,-85.225,10.206,-26.103
1747607224.66,-0.023,-0.017,0.104,0.123,0.186,-0.011,-85.164,10.073,-26.339
1747607224.67,0.044,0.004,0.106,0.135,0.183,0.005,-85.092,10.012,-26.508
1747607224.68,0.091,0.029,0.116,0.145,0.132,0.018,-85.011,10.043,-26.568
1747607224.69,0.100,0.036,0.117,0.157,0.043,0.010,-84.924,10.007,-26.654
1747607224.70,0.078,0.025,0.107,0.150,-0.073,0.001,-84.837,9.852,-26.801
1747607224.71,0.059,-0.008,0.089,0.173,-0.129,0.015,-84.748,9.654,-26.939
1747607224.72,0.070,-0.048,0.061,0.203,-0.122,0.038,-84.640,9.551,-26.970
1747607224.73,0.111,-0.068,0.042,0.239,-0.125,0.051,-84.513,9.530,-26.921
1747607224.74,0.132,-0.058,0.027,0.293,-0.157,0.055,-84.358,9.499,-26.872
1747607224.75,0.120,-0.030,-0.007,0.361,-0.173,0.059,-84.169,9.417,-26.859
1747607224.76,0.086,0.014,-0.035,0.407,-0.220,0.053,-83.945,9.266,-26.900
1747607224.77,0.031,0.063,-0.046,0.428,-0.267,0.036,-83.707,9.021,-27.005
1747607224.78,-0.042,0.088,-0.066,0.475,-0.224,-0.000,-83.451,8.625,-27.259
1747607224.79,-0.104,0.074,-0.063,0.535,-0.088,-0.037,-83.167,8.083,-27.712
1747607224.80,-0.155,0.034,-0.027,0.590,0.048,-0.063,-82.853,7.490,-28.299
1747607224.81,-0.211,-0.003,-0.005,0.630,0.135,-0.077,-82.512,6.904,-28.946
1747607224.81,-0.257,-0.013,-0.021,0.607,0.201,-0.079,-82.164,6.363,-29.588
1747607224.83,-0.275,-0.018,-0.022,0.571,0.313,-0.077,-81.835,5.935,-30.165
1747607224.84,-0.234,-0.023,-0.002,0.561,0.479,-0.045,-81.518,5.691,-30.640
1747607224.84,-0.126,-0.025,-0.004,0.573,0.555,0.023,-81.198,5.738,-30.897
1747607224.86,-0.010,-0.037,-0.015,0.636,0.536,0.093,-80.853,6.041,-30.905
1747607224.86,0.054,-0.042,-0.036,0.715,0.545,0.129,-80.462,6.482,-30.768
1747607224.88,0.086,-0.035,-0.022,0.768,0.547,0.152,-80.031,6.967,-30.595
1747607224.88,0.091,-0.031,0.030,0.793,0.469,0.189,-79.577,7.486,-30.365
1747607224.90,0.075,-0.032,0.038,0.826,0.384,0.215,-79.104,8.006,-30.083
1747607224.90,0.063,-0.023,-0.008,0.850,0.307,0.230,-78.613,8.493,-29.789
1747607224.92,0.064,-0.019,-0.023,0.879,0.223,0.248,-78.105,8.931,-29.495
1747607224.92,0.075,-0.019,-0.019,0.911,0.142,0.258,-77.577,9.320,-29.205
1747607224.93,0.093,-0.010,0.017,0.977,0.053,0.229,-77.024,9.598,-28.978
1747607224.94,0.086,0.014,0.057,1.065,-0.081,0.185,-76.430,9.672,-28.895
1747607224.95,0.042,0.045,0.035,1.113,-0.196,0.161,-75.799,9.557,-28.930
1747607224.96,-0.038,0.054,0.026,1.075,-0.202,0.164,-75.164,9.389,-28.981
1747607224.97,-0.127,0.024,0.080,0.976,-0.035,0.131,-74.570,9.273,-29.027
1747607224.98,-0.210,-0.006,0.122,0.852,0.130,0.096,-74.045,9.231,-29.095
1747607224.99,-0.270,-0.019,0.161,0.778,0.230,0.113,-73.578,9.276,-29.156
1747607225.00,-0.275,-0.003,0.123,0.760,0.321,0.155,-73.135,9.446,-29.125
1747607225.01,-0.201,0.035,0.111,0.792,0.344,0.214,-72.684,9.736,-29.022
1747607225.02,-0.073,0.070,0.127,0.930,0.335,0.261,-72.178,10.093,-28.841
1747607225.03,0.052,0.087,0.107,1.019,0.281,0.270,-71.598,10.420,-28.685
1747607225.04,0.132,0.084,0.111,0.992,0.139,0.273,-71.004,10.681,-28.534
1747607225.05,0.130,0.061,0.144,0.962,0.082,0.271,-70.427,10.880,-28.386
1747607225.06,0.056,0.025,0.164,0.957,0.060,0.235,-69.863,11.031,-28.256
1747607225.07,-0.018,-0.017,0.166,0.969,0.021,0.232,-69.296,11.112,-28.192
1747607225.08,-0.049,-0.039,0.085,0.950,0.053,0.287,-68.730,11.233,-28.077
1747607225.09,-0.011,-0.068,0.024,0.930,0.103,0.341,-68.169,11.454,-27.889
1747607225.10,0.075,-0.090,-0.022,0.942,0.018,0.421,-67.602,11.764,-27.589
1747607225.11,0.183,-0.099,-0.088,1.012,-0.140,0.430,-67.007,12.029,-27.265
1747607225.12,0.286,-0.064,-0.142,1.126,-0.311,0.359,-66.364,12.125,-27.017
1747607225.13,0.291,-0.009,-0.152,1.332,-0.424,0.189,-65.648,11.932,-26.994
1747607225.14,0.134,0.051,-0.130,1.418,-0.394,0.048,-64.856,11.486,-27.225
1747607225.15,-0.129,0.082,-0.074,1.243,-0.508,-0.028,-64.105,10.925,-27.564
1747607225.16,-0.348,0.059,-0.004,1.104,-0.474,0.043,-63.453,10.386,-27.831
1747607225.17,-0.416,-0.039,-0.075,1.045,-0.024,0.139,-62.838,10.117,-27.958
1747607225.18,-0.309,-0.165,-0.107,0.908,0.448,0.249,-62.270,10.271,-27.934
1747607225.19,-0.130,-0.233,0.010,0.950,0.468,0.351,-61.723,10.674,-27.783
1747607225.20,0.024,-0.237,-0.007,1.006,0.374,0.495,-61.126,11.159,-27.492
1747607225.21,0.176,-0.168,-0.088,1.045,0.112,0.585,-60.491,11.646,-27.104
1747607225.22,0.302,-0.026,-0.080,1.141,-0.120,0.586,-59.812,11.984,-26.700
1747607225.23,0.324,0.092,-0.040,1.146,-0.154,0.542,-59.099,12.206,-26.349
1747607225.24,0.280,0.135,0.071,1.082,-0.223,0.450,-58.419,12.334,-26.075
1747607225.25,0.159,0.133,0.095,1.077,-0.304,0.396,-57.763,12.342,-25.885
1747607225.26,0.013,0.095,0.007,0.987,-0.269,0.403,-57.138,12.319,-25.707
1747607225.27,-0.051,0.031,0.056,0.979,-0.141,0.415,-56.545,12.369,-25.506
1747607225.28,-0.050,-0.003,0.115,1.023,-0.165,0.413,-55.934,12.453,-25.310
1747607225.29,-0.055,-0.006,0.069,1.039,-0.300,0.400,-55.310,12.467,-25.131
1747607225.30,-0.059,-0.003,0.009,1.085,-0.369,0.364,-54.672,12.393,-24.986
1747607225.31,-0.028,0.008,-0.004,1.121,-0.303,0.311,-54.013,12.271,-24.894
1747607225.32,0.005,0.034,0.006,1.106,-0.176,0.245,-53.357,12.163,-24.860
1747607225.33,-0.006,0.045,0.043,1.110,-0.062,0.211,-52.710,12.086,-24.871
1747607225.34,-0.055,0.046,0.048,1.036,0.039,0.217,-52.082,12.069,-24.889
1747607225.35,-0.095,0.030,0.047,0.955,0.119,0.279,-51.499,12.134,-24.861
1747607225.36,-0.058,-0.007,0.069,0.921,0.168,0.360,-50.938,12.304,-24.754
1747607225.37,0.019,-0.036,0.075,0.927,0.063,0.403,-50.376,12.498,-24.594
1747607225.38,0.058,-0.039,0.045,0.953,-0.138,0.403,-49.802,12.606,-24.425
1747607225.39,0.079,-0.020,-0.003,0.970,-0.260,0.381,-49.216,12.604,-24.273
1747607225.40,0.117,0.017,0.007,1.048,-0.319,0.313,-48.614,12.519,-24.170
1747607225.41,0.124,0.055,0.031,1.144,-0.318,0.231,-47.968,12.356,-24.144
1747607225.42,0.076,0.062,0.015,1.184,-0.278,0.148,-47.292,12.141,-24.199
1747607225.43,0.002,0.038,0.004,1.141,-0.199,0.122,-46.624,11.933,-24.298
1747607225.44,-0.034,-0.019,0.021,1.057,-0.170,0.172,-45.995,11.782,-24.368
1747607225.45,-0.013,-0.087,0.057,1.019,-0.141,0.278,-45.390,11.695,-24.363
1747607225.46,0.034,-0.124,0.072,0.958,-0.106,0.395,-44.796,11.700,-24.258
1747607225.47,0.078,-0.109,0.059,0.913,-0.085,0.457,-44.224,11.778,-24.069
1747607225.48,0.099,-0.059,0.054,0.934,-0.140,0.473,-43.655,11.865,-23.858
1747607225.49,0.079,-0.011,0.026,0.983,-0.231,0.492,-43.063,11.909,-23.641
1747607225.50,0.036,0.019,-0.039,1.032,-0.312,0.469,-42.443,11.890,-23.434
1747607225.51,-0.027,0.047,-0.070,1.097,-0.358,0.375,-41.797,11.803,-23.281
1747607225.52,-0.105,0.063,-0.045,1.100,-0.331,0.254,-41.144,11.646,-23.218
1747607225.53,-0.165,0.051,-0.015,1.092,-0.286,0.158,-40.509,11.460,-23.231
1747607225.54,-0.190,0.020,-0.012,1.087,-0.211,0.097,-39.884,11.269,-23.301
1747607225.55,-0.200,-0.007,-0.020,1.038,-0.063,0.077,-39.279,11.134,-23.391
1747607225.56,-0.167,-0.012,-0.017,1.008,0.053,0.105,-38.698,11.079,-23.473
1747607225.57,-0.119,-0.009,-0.005,1.011,0.072,0.121,-38.119,11.083,-23.525
1747607225.58,-0.139,0.011,0.003,0.982,0.134,0.160,-37.548,11.112,-23.567
1747607225.59,-0.136,0.050,0.021,1.035,0.163,0.162,-36.966,11.189,-23.589
1747607225.60,-0.105,0.074,0.038,1.093,0.107,0.103,-36.354,11.236,-23.642
1747607225.61,-0.121,0.105,0.013,1.115,0.056,0.031,-35.728,11.218,-23.747
1747607225.62,-0.116,0.111,-0.013,1.174,-0.062,-0.014,-35.088,11.131,-23.898
1747607225.63,-0.099,0.081,0.008,1.221,-0.027,-0.132,-34.422,10.982,-24.103
1747607225.64,-0.079,0.059,0.067,1.201,0.028,-0.222,-33.762,10.830,-24.384
1747607225.65,-0.044,0.033,0.053,1.160,0.015,-0.205,-33.120,10.681,-24.675
1747607225.66,-0.038,0.003,-0.019,1.091,-0.052,-0.190,-32.510,10.517,-24.956
1747607225.67,-0.013,-0.016,-0.038,1.065,-0.040,-0.033,-31.918,10.372,-25.167
1747607225.68,0.089,-0.038,-0.011,1.072,0.026,0.035,-31.317,10.311,-25.279
1747607225.69,0.165,-0.037,0.051,1.069,0.007,0.045,-30.710,10.267,-25.384
1747607225.70,0.165,-0.010,0.045,1.047,-0.075,0.078,-30.110,10.210,-25.467
1747607225.71,0.126,-0.010,0.027,1.089,-0.216,0.083,-29.503,10.092,-25.538
1747607225.72,0.089,-0.010,0.025,1.134,-0.248,0.053,-28.869,9.914,-25.620
1747607225.73,0.101,-0.007,0.050,1.185,-0.246,0.003,-28.214,9.722,-25.730
1747607225.74,0.114,-0.012,0.044,1.218,-0.209,-0.038,-27.540,9.527,-25.871
1747607225.75,0.087,-0.044,0.052,1.179,-0.157,-0.059,-26.865,9.352,-26.032
1747607225.76,0.064,-0.070,0.039,1.099,-0.062,-0.000,-26.228,9.228,-26.172
1747607225.77,0.040,-0.111,-0.069,1.058,-0.015,0.124,-25.616,9.175,-26.248
1747607225.78,-0.006,-0.117,-0.123,0.999,0.046,0.192,-25.022,9.188,-26.242
1747607225.79,-0.037,-0.070,-0.096,1.015,0.023,0.184,-24.438,9.211,-26.227
1747607225.80,-0.017,-0.001,-0.038,1.023,-0.004,0.168,-23.846,9.220,-26.220
1747607225.81,-0.002,0.104,0.021,1.050,-0.090,0.086,-23.251,9.187,-26.242
1747607225.82,-0.012,0.220,0.068,1.097,-0.207,0.007,-22.641,9.073,-26.323
1747607225.83,-0.032,0.258,0.039,1.165,-0.382,0.046,-22.002,8.856,-26.419
1747607225.84,-0.012,0.222,0.068,1.249,-0.340,0.006,-21.316,8.610,-26.506
1747607225.85,0.068,0.139,0.133,1.212,-0.359,-0.058,-20.618,8.365,-26.636
1747607225.86,0.132,0.057,0.068,1.147,-0.382,-0.057,-19.957,8.106,-26.774
1747607225.87,0.119,-0.014,-0.052,1.088,-0.321,0.020,-19.327,7.865,-26.884
1747607225.88,0.088,-0.089,-0.101,0.990,-0.195,0.132,-18.731,7.709,-26.922
1747607225.89,0.050,-0.163,-0.088,0.909,-0.112,0.229,-18.183,7.632,-26.888
1747607225.90,0.029,-0.205,-0.024,0.882,-0.044,0.272,-17.658,7.612,-26.807
1747607225.91,0.067,-0.127,0.048,0.900,-0.009,0.300,-17.133,7.631,-26.706
1747607225.92,0.120,0.009,0.104,0.938,-0.059,0.246,-16.592,7.641,-26.620
1747607225.93,0.148,0.116,0.089,0.984,-0.180,0.250,-16.030,7.590,-26.551
1747607225.94,0.147,0.131,0.044,1.017,-0.248,0.231,-15.445,7.485,-26.485
1747607225.95,0.118,0.098,-0.010,0.999,-0.302,0.232,-14.859,7.341,-26.426
1747607225.96,0.070,0.072,-0.059,0.973,-0.285,0.215,-14.281,7.185,-26.367
1747607225.97,-0.019,0.053,-0.056,0.891,-0.253,0.204,-13.739,7.046,-26.313
1747607225.98,-0.067,0.008,-0.069,0.878,-0.223,0.229,-13.227,6.922,-26.252
1747607225.99,-0.034,-0.055,-0.058,0.882,-0.156,0.283,-12.708,6.834,-26.164
1747607226.00,0.020,-0.018,0.097,0.872,-0.160,0.272,-12.196,6.770,-26.060
1747607226.01,0.007,0.102,0.132,0.941,-0.197,0.237,-11.665,6.683,-25.975
1747607226.02,-0.026,0.126,0.039,0.962,-0.110,0.226,-11.108,6.608,-25.906
1747607226.03,-0.002,0.072,0.053,0.975,-0.053,0.194,-10.546,6.575,-25.848
1747607226.04,0.027,0.026,0.008,0.963,-0.073,0.174,-9.983,6.551,-25.806
1747607226.05,0.013,0.002,-0.058,0.940,-0.084,0.142,-9.433,6.505,-25.782
1747607226.06,-0.032,-0.054,-0.084,0.935,0.029,0.136,-8.893,6.492,-25.763
1747607226.07,-0.033,-0.108,-0.089,0.903,0.127,0.104,-8.363,6.540,-25.753
1747607226.08,-0.025,-0.116,-0.143,0.856,0.156,0.157,-7.856,6.625,-25.745
1747607226.09,-0.002,-0.120,-0.115,0.879,0.125,0.184,-7.355,6.712,-25.697
1747607226.10,0.013,-0.052,-0.001,0.877,0.082,0.162,-6.845,6.774,-25.661
1747607226.11,0.020,0.117,0.108,0.925,0.051,0.169,-6.325,6.814,-25.626
1747607226.12,-0.038,0.301,0.125,0.948,0.058,0.150,-5.785,6.845,-25.596
1747607226.13,-0.145,0.362,0.065,0.985,0.038,0.148,-5.230,6.870,-25.577
1747607226.14,-0.154,0.265,-0.011,1.002,0.052,0.147,-4.654,6.899,-25.568
1747607226.15,-0.073,0.121,0.004,1.016,0.031,-0.110,-4.079,6.921,-25.620
1747607226.16,-0.021,-0.028,-0.020,0.981,-0.055,-0.244,-3.525,6.903,-25.797
1747607226.17,-0.015,-0.164,-0.096,0.943,-0.076,-0.221,-2.994,6.850,-25.998
1747607226.18,-0.038,-0.240,-0.125,0.872,0.006,-0.186,-2.495,6.818,-26.173
1747607226.19,-0.060,-0.253,-0.120,0.844,0.088,-0.146,-2.021,6.841,-26.328
1747607226.20,-0.050,-0.171,-0.096,0.823,0.129,-0.022,-1.554,6.903,-26.435
1747607226.21,-0.026,0.002,-0.018,0.811,0.108,0.102,-1.089,6.969,-26.467
1747607226.22,-0.001,0.208,0.041,0.792,0.129,0.174,-0.625,7.036,-26.443
1747607226.23,0.039,0.332,0.040,0.788,0.154,0.206,-0.163,7.119,-26.232
1747607226.24,0.077,0.288,0.009,0.752,0.138,0.203,0.289,7.205,-26.171
1747607226.25,0.101,0.092,-0.054,0.752,0.056,0.130,0.725,7.267,-25.816
1747607226.26,0.147,-0.139,-0.071,0.713,-0.044,0.064,1.150,7.268,-25.818
1747607226.27,0.153,-0.376,-0.035,0.659,-0.127,0.030,1.540,7.220,-25.553
1747607226.28,0.190,-0.381,-0.026,0.632,-0.190,0.027,1.908,7.130,-25.584
1747607226.29,0.124,-0.202,-0.066,0.574,-0.173,0.045,2.253,7.023,-25.403
1747607226.30,0.007,-0.032,-0.076,0.567,-0.086,0.076,2.577,6.949,-25.409
1747607226.31,-0.094,0.066,-0.060,0.604,0.038,0.118,2.917,6.933,-25.190
1747607226.32,-0.132,0.138,-0.041,0.594,0.117,0.108,3.264,6.979,-25.166
1747607226.33,-0.109,0.171,-0.034,0.624,0.109,0.065,3.614,7.046,-25.158
1747607226.34,-0.060,0.166,-0.031,0.636,0.090,0.014,3.976,7.103,-25.179
1747607226.35,-0.038,0.153,-0.004,0.635,0.066,-0.051,4.333,7.154,-25.234
1747607226.36,-0.030,0.121,-0.013,0.653,0.005,-0.108,4.693,7.181,-25.325
1747607226.37,-0.040,0.070,-0.040,0.652,-0.027,-0.127,5.054,7.185,-25.330
1747607226.38,-0.040,0.036,-0.022,0.675,-0.027,-0.212,5.418,7.181,-25.468
1747607226.39,-0.026,0.014,-0.023,0.674,-0.037,-0.224,5.785,7.183,-25.444
1747607226.40,0.005,0.004,-0.025,0.691,-0.031,-0.261,6.155,7.183,-25.629
1747607226.41,0.015,0.010,-0.015,0.691,-0.051,-0.201,6.530,7.182,-25.608
1747607226.42,0.044,0.058,0.018,0.659,-0.059,-0.143,6.900,7.167,-25.751
1747607226.43,0.055,0.104,-0.034,0.632,-0.037,-0.145,7.255,7.154,-25.694
1747607226.44,0.057,0.129,-0.074,0.623,-0.022,-0.113,7.600,7.154,-25.814
1747607226.45,0.039,0.106,-0.072,0.607,-0.019,-0.087,7.942,7.157,-25.723
1747607226.46,0.005,0.068,-0.058,0.588,-0.029,-0.087,8.273,7.156,-25.815
1747607226.47,0.025,0.039,-0.046,0.588,-0.069,-0.088,8.599,7.142,-25.719
1747607226.48,0.059,0.014,-0.036,0.576,-0.162,-0.112,8.923,7.089,-25.810
1747607226.49,0.072,-0.017,-0.024,0.579,-0.270,-0.136,9.240,6.985,-25.729
1747607226.50,0.101,-0.030,-0.026,0.641,-0.346,-0.121,9.576,6.824,-25.843
1747607226.51,0.100,0.001,-0.007,0.656,-0.347,-0.137,9.937,6.644,-25.771
1747607226.52,0.059,0.074,0.033,0.678,-0.285,-0.145,10.305,6.486,-25.898
1747607226.53,-0.003,0.113,0.020,0.674,-0.215,-0.148,10.681,6.368,-25.847
1747607226.54,-0.074,0.098,-0.023,0.663,-0.134,-0.147,11.051,6.291,-25.974
1747607226.55,-0.120,0.046,-0.052,0.668,-0.024,-0.138,11.414,6.271,-25.899
1747607226.56,-0.097,0.017,-0.033,0.637,-0.017,-0.218,11.777,6.287,-26.051
1747607226.57,-0.104,-0.044,-0.042,0.618,-0.064,-0.229,12.116,6.301,-26.037
1747607226.58,-0.019,-0.095,-0.016,0.634,-0.146,-0.242,12.458,6.278,-26.214
1747607226.59,0.032,-0.062,-0.018,0.639,-0.222,-0.282,12.802,6.215,-26.235
1747607226.60,0.061,-0.003,-0.006,0.649,-0.275,-0.295,13.149,6.119,-26.443
1747607226.61,0.071,0.032,-0.007,0.650,-0.279,-0.274,13.501,6.006,-26.482
1747607226.62,0.043,0.056,-0.011,0.638,-0.227,-0.226,13.853,5.903,-26.500
1747607226.63,0.006,0.075,-0.029,0.622,-0.121,-0.182,14.198,5.841,-26.657
1747607226.64,-0.017,0.081,-0.049,0.618,-0.008,-0.147,14.541,5.836,-26.630
1747607226.65,-0.022,0.059,-0.055,0.606,0.090,-0.125,14.882,5.892,-26.745
1747607226.66,0.006,0.004,-0.041,0.568,0.079,-0.113,15.208,5.972,-26.687
1747607226.67,0.032,-0.043,-0.046,0.532,-0.006,-0.079,15.514,6.019,-26.777
1747607226.68,0.067,-0.076,-0.046,0.505,-0.087,-0.051,15.805,6.011,-26.690
1747607226.69,0.105,-0.076,-0.027,0.487,-0.154,-0.028,16.084,5.956,-26.743
1747607226.70,0.121,-0.047,-0.032,0.493,-0.179,-0.004,16.360,5.871,-26.632
1747607226.71,0.101,-0.007,-0.040,0.485,-0.162,0.014,16.639,5.780,-26.659
1747607226.72,0.053,0.041,-0.048,0.465,-0.116,0.049,16.910,5.704,-26.529
1747607226.73,0.001,0.044,-0.059,0.465,-0.036,0.134,17.177,5.652,-26.499
1747607226.74,-0.033,0.040,-0.053,0.442,0.001,0.087,17.443,5.629,-26.315
1747607226.75,-0.082,0.022,-0.061,0.413,0.017,0.074,17.688,5.630,-26.293
1747607226.76,-0.056,-0.031,-0.049,0.390,-0.037,0.037,17.920,5.622,-26.119
1747607226.77,-0.019,-0.050,-0.061,0.367,-0.102,-0.006,18.137,5.586,-26.132
1747607226.78,0.013,-0.053,-0.059,0.338,-0.138,-0.036,18.335,5.526,-26.020
1747607226.79,0.034,-0.053,-0.067,0.321,-0.139,-0.027,18.521,5.458,-26.059
1747607226.80,0.024,-0.038,-0.069,0.288,-0.120,0.010,18.695,5.392,-25.941
1747607226.81,0.006,-0.009,-0.060,0.253,-0.098,0.035,18.845,5.331,-25.934
1747607226.82,0.006,0.024,-0.063,0.221,-0.081,0.024,18.982,5.276,-25.803
1747607226.83,-0.033,-0.057,-0.071,0.211,-0.054,0.024,19.105,5.237,-25.799
1747607226.84,-0.002,-0.037,-0.048,0.187,-0.048,0.018,19.221,5.207,-25.666
1747607226.85,0.020,-0.016,-0.041,0.156,-0.024,0.015,19.319,5.185,-25.667
1747607226.86,0.024,-0.058,-0.029,0.142,0.019,0.021,19.401,5.183,-25.534
1747607226.87,0.039,-0.054,-0.027,0.118,0.012,0.031,19.478,5.191,-25.528
1747607226.88,0.022,-0.093,-0.046,0.098,-0.026,0.070,19.540,5.179,-25.379
1747607226.89,0.036,-0.074,-0.049,0.118,-0.029,0.086,19.605,5.148,-25.332
1747607226.90,0.039,0.003,-0.047,0.096,-0.015,0.033,19.671,5.127,-25.184
1747607226.91,-0.004,-0.001,-0.028,0.063,-0.013,0.027,19.718,5.114,-25.171
1747607226.92,-0.004,-0.014,-0.040,0.038,-0.012,0.038,19.748,5.099,-25.030
1747607226.93,0.002,-0.000,-0.069,0.025,0.039,0.079,19.769,5.095,-24.999
1747607226.94,-0.025,0.015,-0.037,0.016,0.059,0.045,19.788,5.113,-24.836
1747607226.95,-0.060,0.045,-0.018,0.001,0.049,0.051,19.795,5.137,-24.809
1747607226.96,-0.027,0.011,-0.023,0.009,0.003,0.066,19.803,5.142,-24.649
1747607226.97,0.043,0.036,-0.044,0.031,-0.038,0.083,19.821,5.118,-24.605
1747607226.98,0.049,0.055,-0.039,0.040,-0.049,0.087,19.844,5.077,-24.438
1747607226.99,0.048,0.040,-0.023,0.040,-0.054,0.093,19.870,5.029,-24.386
1747607227.00,0.047,0.017,-0.019,0.047,-0.053,0.100,19.899,4.979,-24.214
1747607227.01,0.009,0.017,-0.022,0.051,-0.037,0.092,19.930,4.934,-24.157
1747607227.02,-0.039,0.017,-0.009,0.056,-0.016,0.064,19.963,4.901,-23.998
1747607227.03,-0.055,0.029,-0.002,0.065,-0.008,0.032,19.995,4.881,-23.970
1747607227.04,-0.033,0.033,-0.011,0.078,-0.011,-0.001,20.035,4.872,-23.851
1747607227.05,-0.008,0.031,-0.019,0.074,-0.039,-0.020,20.074,4.868,-23.864
1747607227.06,0.004,0.033,-0.023,0.074,-0.086,-0.026,20.107,4.843,-23.769
1747607227.07,-0.005,0.027,-0.033,0.087,-0.104,-0.019,20.147,4.798,-23.790
1747607227.08,-0.022,0.027,-0.031,0.080,-0.083,-0.023,20.192,4.754,-23.701
1747607227.09,-0.033,0.027,-0.015,0.081,-0.053,-0.031,20.233,4.725,-23.722
1747607227.10,-0.035,0.012,-0.005,0.083,-0.037,-0.035,20.276,4.705,-23.643
1747607227.11,-0.031,-0.016,-0.002,0.097,-0.037,-0.055,20.321,4.689,-23.673
1747607227.12,0.005,-0.006,0.015,0.109,-0.042,-0.067,20.373,4.679,-23.617
1747607227.13,0.035,0.016,0.026,0.114,-0.068,-0.067,20.429,4.664,-23.665
1747607227.14,0.028,0.024,0.011,0.113,-0.088,-0.048,20.487,4.634,-23.611
1747607227.15,0.019,0.019,-0.009,0.104,-0.102,-0.020,20.540,4.587,-23.636
1747607227.16,0.027,0.022,-0.038,0.108,-0.089,-0.002,20.592,4.531,-23.555
1747607227.17,0.020,0.023,-0.043,0.118,-0.067,0.000,20.649,4.483,-23.557
1747607227.18,-0.010,0.005,-0.022,0.110,-0.036,0.002,20.711,4.448,-23.473
1747607227.19,-0.024,-0.011,-0.004,0.101,-0.019,-0.002,20.772,4.428,-23.476
1747607227.20,-0.013,-0.012,-0.004,0.116,-0.032,-0.012,20.834,4.420,-23.397
1747607227.21,-0.004,-0.005,-0.006,0.113,-0.034,-0.028,20.896,4.419,-23.418
1747607227.22,0.004,0.001,0.004,0.096,-0.030,-0.052,20.946,4.422,-23.344
1747607227.23,0.001,0.006,-0.014,0.080,-0.036,-0.062,20.986,4.423,-23.386
1747607227.24,-0.006,0.004,-0.063,0.054,-0.026,-0.047,21.011,4.425,-23.318
1747607227.25,-0.016,-0.016,-0.083,0.033,0.018,-0.047,21.027,4.435,-23.349
1747607227.26,-0.030,-0.030,-0.075,-0.001,0.056,-0.048,21.033,4.467,-23.279
1747607227.27,-0.020,-0.026,-0.071,-0.047,0.032,-0.038,21.017,4.499,-23.302
1747607227.28,0.010,-0.044,-0.083,-0.098,0.009,-0.019,20.975,4.513,-23.207
1747607227.29,0.028,-0.055,-0.073,-0.137,0.018,0.001,20.908,4.520,-23.207
1747607227.30,0.039,-0.038,-0.051,-0.191,0.043,0.025,20.815,4.532,-23.088
1747607227.31,0.028,-0.039,-0.069,-0.260,0.046,0.047,20.689,4.546,-23.055
1747607227.32,0.009,-0.076,-0.104,-0.335,0.055,0.061,20.522,4.555,-22.906
1747607227.33,0.009,-0.110,-0.131,-0.400,0.103,0.064,20.315,4.579,-22.849
1747607227.34,0.012,-0.114,-0.126,-0.446,0.188,0.067,20.076,4.640,-22.694
1747607227.35,-0.013,-0.106,-0.110,-0.520,0.220,0.052,19.805,4.738,-22.633
1747607227.36,-0.037,-0.106,-0.100,-0.569,0.198,0.033,19.495,4.841,-22.486
1747607227.37,-0.031,-0.093,-0.102,-0.612,0.158,0.038,19.162,4.926,-22.434
1747607227.38,0.011,-0.071,-0.094,-0.666,0.103,0.046,18.802,4.984,-22.281
1747607227.39,0.057,-0.052,-0.108,-0.713,0.024,0.070,18.412,4.997,-22.210
1747607227.40,0.075,-0.064,-0.125,-0.742,-0.003,0.100,18.001,4.971,-22.025
1747607227.41,0.063,-0.069,-0.093,-0.785,0.046,0.122,17.573,4.950,-21.918
1747607227.42,0.039,-0.044,-0.067,-0.830,0.091,0.142,17.119,4.954,-21.711
1747607227.43,0.012,-0.032,-0.083,-0.857,0.124,0.172,16.647,4.975,-21.573
1747607227.44,-0.008,-0.049,-0.095,-0.898,0.138,0.190,16.157,5.008,-21.336
1747607227.45,0.005,-0.048,-0.091,-0.925,0.122,0.188,15.647,5.041,-21.176
1747607227.46,0.053,-0.033,-0.081,-0.959,0.064,0.191,15.121,5.054,-20.931
1747607227.47,0.075,-0.034,-0.065,-0.994,-0.015,0.225,14.576,5.024,-20.760
1747607227.48,0.072,-0.052,-0.067,-1.020,-0.085,0.281,14.015,4.945,-20.471
1747607227.49,0.060,-0.059,-0.074,-1.038,-0.096,0.313,13.442,4.836,-20.244
1747607227.50,0.028,-0.047,-0.040,-1.037,-0.018,0.340,12.868,4.746,-19.900
1747607227.51,-0.009,-0.040,-0.019,-1.029,0.051,0.321,12.295,4.703,-19.655
1747607227.52,-0.051,-0.015,-0.018,-1.009,0.119,0.270,11.730,4.707,-19.340
1747607227.53,-0.093,0.022,-0.015,-1.033,0.167,0.239,11.162,4.749,-19.144
1747607227.54,-0.111,0.022,-0.044,-1.035,0.193,0.208,10.581,4.817,-18.872
1747607227.55,-0.100,-0.002,-0.046,-1.049,0.204,0.156,9.998,4.907,-18.717
1747607227.56,-0.081,-0.028,0.001,-1.058,0.149,0.117,9.405,4.986,-18.479
1747607227.57,-0.041,-0.050,0.001,-1.077,0.110,0.107,8.802,5.043,-18.361
1747607227.58,0.035,-0.071,-0.038,-1.043,0.051,0.097,8.205,5.073,-18.149
1747607227.59,0.092,-0.072,-0.051,-1.054,-0.004,0.104,7.614,5.071,-17.952
1747607227.60,0.094,-0.055,-0.052,-1.043,-0.029,0.111,7.021,5.045,-17.837
1747607227.61,0.050,-0.028,-0.043,-1.052,-0.019,0.118,6.434,5.017,-17.645
1747607227.62,-0.006,-0.004,-0.021,-1.098,0.046,0.149,5.828,5.011,-17.515
1747607227.63,-0.026,0.009,-0.002,-1.100,0.085,0.162,5.209,5.033,-17.297
1747607227.64,-0.035,0.025,-0.016,-1.097,0.147,0.151,4.593,5.085,-17.151
1747607227.65,-0.061,0.027,-0.014,-1.102,0.242,0.124,3.976,5.186,-16.956
1747607227.66,-0.078,0.013,0.025,-1.118,0.306,0.098,3.351,5.337,-16.835
1747607227.67,-0.042,-0.015,0.011,-1.161,0.298,0.080,2.710,5.504,-16.660
1747607227.68,0.021,-0.057,-0.062,-1.203,0.255,0.105,2.041,5.661,-16.541
1747607227.69,0.094,-0.089,-0.104,-1.244,0.166,0.141,1.356,5.776,-16.331
1747607227.70,0.139,-0.098,-0.123,-1.319,0.102,0.180,0.635,5.847,-16.165
1747607227.71,0.128,-0.098,-0.099,-1.361,0.106,0.232,-0.115,5.905,-15.905
1747607227.72,0.081,-0.091,-0.052,-1.339,0.118,0.216,-0.870,5.967,-15.695
1747607227.73,0.005,-0.075,0.001,-1.328,0.214,0.157,-1.612,6.064,-15.449
1747607227.74,-0.056,-0.058,0.000,-1.353,0.298,0.112,-2.367,6.219,-15.290
1747607227.75,-0.079,-0.060,-0.017,-1.342,0.334,0.079,-3.124,6.409,-15.097
1747607227.76,-0.086,-0.061,-0.052,-1.400,0.349,0.084,-3.895,6.612,-14.964
1747607227.77,-0.065,-0.039,-0.063,-1.459,0.357,0.112,-4.701,6.826,-14.755
1747607227.78,-0.025,-0.003,-0.066,-1.468,0.281,0.101,-5.524,7.022,-14.590
1747607227.79,-0.018,0.036,-0.084,-1.502,0.324,0.066,-6.360,7.207,-14.377
1747607227.80,-0.012,0.058,-0.044,-1.455,0.372,0.030,-7.195,7.423,-14.241
1747607227.81,0.008,0.034,-0.058,-1.452,0.421,-0.014,-8.015,7.666,-14.068
1747607227.82,-0.022,-0.016,-0.066,-1.453,0.453,-0.082,-8.840,7.928,-13.981
1747607227.83,-0.066,-0.077,-0.028,-1.483,0.446,-0.159,-9.678,8.195,-13.876
1747607227.84,-0.096,-0.126,-0.030,-1.511,0.446,-0.212,-10.541,8.452,-13.857
1747607227.85,-0.115,-0.143,-0.022,-1.547,0.481,-0.220,-11.423,8.718,-13.791
1747607227.86,-0.107,-0.124,-0.023,-1.588,0.492,-0.204,-12.326,9.002,-13.772
1747607227.87,-0.068,-0.081,-0.065,-1.625,0.497,-0.185,-13.250,9.291,-13.682
1747607227.88,-0.018,-0.019,-0.055,-1.636,0.520,-0.174,-14.186,9.594,-13.629
1747607227.89,0.045,0.031,-0.016,-1.633,0.506,-0.177,-15.123,9.904,-13.521
1747607227.90,0.078,0.063,0.009,-1.627,0.447,-0.193,-16.058,10.194,-13.459
1747607227.91,0.073,0.069,0.028,-1.647,0.373,-0.211,-16.997,10.443,-13.362
1747607227.92,0.052,0.058,0.036,-1.658,0.321,-0.235,-17.948,10.656,-13.312
1747607227.93,0.031,0.032,0.015,-1.656,0.298,-0.258,-18.905,10.845,-13.247
1747607227.94,0.003,0.001,-0.008,-1.644,0.277,-0.253,-19.858,11.018,-13.210
1747607227.95,-0.028,-0.023,-0.017,-1.670,0.319,-0.223,-20.811,11.206,-13.130
1747607227.96,-0.030,-0.040,-0.003,-1.689,0.363,-0.201,-21.778,11.429,-13.054
1747607227.97,-0.015,-0.048,0.003,-1.670,0.364,-0.204,-22.740,11.670,-12.951
1747607227.98,-0.014,-0.043,0.014,-1.663,0.395,-0.194,-23.695,11.921,-12.861
1747607227.98,0.015,-0.021,0.016,-1.659,0.417,-0.165,-24.644,12.198,-12.743
1747607228.00,0.074,0.001,-0.018,-1.665,0.388,-0.136,-25.589,12.486,-12.609
1747607228.00,0.096,0.020,-0.030,-1.649,0.319,-0.152,-26.532,12.751,-12.454
1747607228.01,0.081,0.043,0.014,-1.639,0.254,-0.187,-27.468,12.973,-12.325
1747607228.02,0.043,0.055,0.068,-1.647,0.175,-0.231,-28.410,13.148,-12.209
1747607228.03,-0.010,0.047,0.075,-1.621,0.093,-0.280,-29.352,13.262,-12.130
1747607228.05,-0.052,0.020,0.050,-1.618,0.057,-0.256,-30.286,13.338,-12.045
1747607228.05,-0.032,-0.050,0.037,-1.638,0.138,-0.199,-31.221,13.444,-11.941
1747607228.06,0.047,-0.129,0.041,-1.607,0.192,-0.166,-32.147,13.612,-11.811
1747607228.07,0.092,-0.155,0.056,-1.621,0.207,-0.143,-33.061,13.810,-11.654
1747607228.08,0.098,-0.142,0.055,-1.645,0.262,-0.142,-33.986,14.039,-11.492
1747607228.09,0.062,-0.115,0.043,-1.630,0.283,-0.138,-34.913,14.301,-11.309
1747607228.10,-0.006,-0.080,0.001,-1.612,0.234,-0.126,-35.828,14.561,-11.149
1747607228.11,-0.068,-0.044,-0.026,-1.599,0.231,-0.107,-36.732,14.815,-10.940
1747607228.12,-0.066,-0.012,-0.013,-1.596,0.266,-0.094,-37.627,15.094,-10.753
1747607228.13,-0.019,-0.014,0.013,-1.603,0.260,-0.117,-38.524,15.389,-10.522
1747607228.14,0.032,-0.030,0.040,-1.605,0.247,-0.140,-39.427,15.676,-10.343
1747607228.15,0.076,-0.057,0.054,-1.617,0.201,-0.148,-40.334,15.947,-10.120
1747607228.16,0.124,-0.058,0.079,-1.640,0.139,-0.133,-41.252,16.200,-9.931
1747607228.17,0.152,-0.036,0.093,-1.631,0.089,-0.113,-42.168,16.442,-9.668
1747607228.18,0.140,-0.008,0.095,-1.642,-0.008,-0.131,-43.083,16.647,-9.445
1747607228.19,0.067,0.060,0.064,-1.636,-0.105,-0.132,-44.002,16.805,-9.172
1747607228.20,0.030,0.145,0.046,-1.613,-0.288,-0.157,-44.915,16.881,-8.955
1747607228.21,-0.019,0.175,0.023,-1.555,-0.377,-0.171,-45.809,16.857,-8.713
1747607228.22,-0.058,0.155,0.001,-1.532,-0.353,-0.171,-46.681,16.825,-8.519
1747607228.23,-0.008,0.076,-0.002,-1.499,-0.281,-0.187,-47.538,16.807,-8.295
1747607228.24,0.050,-0.021,-0.014,-1.503,-0.233,-0.220,-48.392,16.817,-8.138
1747607228.25,0.100,-0.108,0.008,-1.500,-0.214,-0.211,-49.251,16.836,-7.944
1747607228.26,0.118,-0.157,0.069,-1.448,-0.297,-0.189,-50.091,16.853,-7.794
1747607228.27,0.101,-0.150,0.102,-1.366,-0.432,-0.157,-50.889,16.811,-7.577
1747607228.28,0.052,-0.099,0.070,-1.298,-0.520,-0.155,-51.643,16.707,-7.422
1747607228.29,0.006,-0.041,0.017,-1.226,-0.557,-0.213,-52.364,16.536,-7.249
1747607228.30,-0.043,0.006,-0.007,-1.126,-0.539,-0.311,-53.051,16.281,-7.239
1747607228.31,-0.096,0.015,-0.012,-1.059,-0.425,-0.338,-53.702,15.992,-7.252
1747607228.32,-0.129,-0.017,-0.019,-1.009,-0.226,-0.343,-54.322,15.769,-7.353
1747607228.33,-0.144,-0.074,-0.010,-1.004,-0.049,-0.338,-54.926,15.650,-7.408
1747607228.34,-0.135,-0.129,-0.017,-1.045,0.095,-0.354,-55.541,15.613,-7.515
1747607228.35,-0.101,-0.172,-0.041,-1.105,0.282,-0.294,-56.187,15.705,-7.538
1747607228.36,-0.023,-0.185,0.016,-1.071,0.372,-0.239,-56.827,15.936,-7.557
1747607228.37,0.059,-0.165,0.062,-1.027,0.322,-0.207,-57.437,16.204,-7.475
1747607228.38,0.107,-0.114,0.051,-0.973,0.236,-0.209,-58.019,16.440,-7.443
1747607228.39,0.146,-0.041,0.021,-0.894,0.147,-0.243,-58.566,16.599,-7.384
1747607228.40,0.176,0.026,-0.022,-0.844,0.056,-0.269,-59.084,16.659,-7.444
1747607228.41,0.179,0.068,-0.040,-0.828,-0.031,-0.313,-59.587,16.626,-7.489
1747607228.42,0.143,0.086,-0.026,-0.853,-0.051,-0.349,-60.101,16.522,-7.580
1747607228.43,0.112,0.080,0.031,-0.883,-0.054,-0.370,-60.634,16.393,-7.696
1747607228.44,0.101,0.056,0.092,-0.905,-0.102,-0.314,-61.180,16.271,-7.787
1747607228.45,0.078,0.026,0.088,-0.922,-0.191,-0.271,-61.727,16.164,-7.815
1747607228.46,0.069,-0.011,0.060,-0.961,-0.318,-0.223,-62.282,16.043,-7.787
1747607228.47,0.076,-0.040,0.018,-1.028,-0.380,-0.160,-62.856,15.936,-7.680
1747607228.48,0.099,-0.060,-0.031,-1.035,-0.434,-0.115,-63.448,15.876,-7.485
1747607228.49,0.119,-0.053,-0.070,-1.002,-0.440,-0.113,-64.025,15.824,-7.262
1747607228.50,0.094,-0.029,-0.055,-0.968,-0.460,-0.066,-64.581,15.777,-7.030
1747607228.51,0.050,0.012,-0.031,-0.914,-0.445,-0.009,-65.104,15.788,-6.729
1747607228.52,0.025,0.052,-0.056,-0.844,-0.311,-0.021,-65.589,15.855,-6.414
1747607228.53,0.026,0.066,-0.045,-0.804,-0.236,-0.001,-66.042,15.976,-6.116
1747607228.54,0.014,0.055,-0.014,-0.818,-0.249,0.046,-66.482,16.157,-5.768
1747607228.55,-0.037,0.030,-0.013,-0.895,-0.284,0.075,-66.940,16.404,-5.334
1747607228.56,-0.126,-0.005,-0.004,-0.965,-0.402,0.054,-67.442,16.666,-4.840
1747607228.57,-0.257,-0.050,0.011,-0.894,-0.468,-0.064,-67.954,16.792,-4.431
1747607228.58,-0.363,-0.102,-0.033,-0.837,-0.402,-0.184,-68.444,16.719,-4.239
1747607228.59,-0.367,-0.143,-0.054,-0.898,-0.277,-0.217,-68.949,16.595,-4.163
1747607228.60,-0.293,-0.151,-0.014,-0.975,-0.167,-0.178,-69.497,16.586,-4.039
1747607228.61,-0.216,-0.126,0.014,-0.967,-0.169,-0.159,-70.059,16.681,-3.842
1747607228.62,-0.187,-0.064,-0.023,-0.873,-0.260,-0.141,-70.589,16.754,-3.631
1747607228.63,-0.204,0.019,-0.120,-0.794,-0.206,-0.168,-71.068,16.768,-3.471
1747607228.64,-0.206,0.072,-0.125,-0.807,-0.119,-0.205,-71.534,16.762,-3.378
1747607228.65,-0.209,0.082,-0.035,-0.840,-0.007,-0.205,-72.021,16.796,-3.303
1747607228.66,-0.232,0.070,-0.001,-0.814,0.144,-0.214,-72.509,16.912,-3.224
1747607228.67,-0.268,0.026,-0.008,-0.767,0.344,-0.230,-72.976,17.078,-3.193
1747607228.68,-0.247,-0.040,-0.009,-0.791,0.558,-0.203,-73.436,17.382,-3.150
1747607228.69,-0.159,-0.071,-0.022,-0.795,0.643,-0.196,-73.904,17.828,-3.046
1747607228.70,-0.044,-0.042,-0.061,-0.744,0.626,-0.209,-74.358,18.289,-2.946
1747607228.71,0.062,0.014,-0.075,-0.702,0.524,-0.207,-74.788,18.687,-2.880
1747607228.72,0.139,0.069,-0.066,-0.669,0.362,-0.191,-75.195,19.006,-2.810
1747607228.73,0.180,0.083,-0.029,-0.645,0.247,-0.182,-75.584,19.268,-2.716
1747607228.74,0.167,0.059,-0.005,-0.582,0.201,-0.185,-75.950,19.460,-2.648
1747607228.75,0.122,-0.007,-0.006,-0.531,0.202,-0.154,-76.282,19.625,-2.595
1747607228.76,0.095,-0.097,-0.043,-0.533,0.131,-0.082,-76.590,19.907,-2.402
1747607228.77,0.102,-0.141,-0.098,-0.528,0.086,-0.073,-76.888,20.228,-2.136
1747607228.78,0.105,-0.134,-0.118,-0.544,0.064,-0.084,-77.192,20.555,-1.843
1747607228.79,0.106,-0.061,-0.083,-0.520,0.045,-0.115,-77.498,20.832,-1.592
1747607228.80,0.081,0.038,-0.025,-0.439,0.023,-0.132,-77.779,20.994,-1.445
1747607228.81,0.060,0.087,0.022,-0.383,-0.026,-0.124,-78.023,21.060,-1.379
1747607228.82,0.068,0.062,0.060,-0.380,-0.129,-0.102,-78.248,21.099,-1.294
1747607228.83,0.085,-0.007,0.075,-0.384,-0.229,-0.068,-78.469,21.155,-1.133
1747607228.84,0.102,-0.069,0.063,-0.402,-0.296,-0.042,-78.689,21.260,-0.870
1747607228.85,0.106,-0.064,0.034,-0.416,-0.293,-0.033,-78.914,21.422,-0.531
1747607228.86,0.073,0.002,0.023,-0.412,-0.193,-0.051,-79.142,21.624,-0.179
1747607228.87,0.023,0.051,0.028,-0.406,-0.072,-0.093,-79.374,21.798,0.072
1747607228.88,-0.044,0.058,0.055,-0.396,-0.018,-0.152,-79.614,21.892,0.192
1747607228.89,-0.120,0.017,0.059,-0.382,0.009,-0.210,-79.859,21.812,0.112
1747607228.90,-0.160,-0.043,0.053,-0.371,0.041,-0.225,-80.104,21.608,-0.109
1747607228.91,-0.144,-0.061,0.047,-0.372,0.114,-0.178,-80.344,21.470,-0.293
1747607228.92,-0.082,-0.014,0.034,-0.362,0.193,-0.100,-80.569,21.572,-0.277
1747607228.93,-0.023,0.052,0.016,-0.359,0.280,-0.051,-80.774,21.936,-0.047
1747607228.94,-0.002,0.095,0.019,-0.399,0.305,-0.044,-80.983,22.465,0.318
1747607228.95,-0.013,0.085,0.046,-0.446,0.361,-0.057,-81.217,23.080,0.752
1747607228.96,-0.005,0.021,0.072,-0.524,0.428,-0.065,-81.485,23.838,1.284
1747607228.97,0.024,-0.050,0.116,-0.529,0.329,-0.085,-81.779,24.643,1.875
1747607228.98,0.043,-0.103,0.122,-0.492,0.185,-0.099,-82.066,25.327,2.418
1747607228.99,0.066,-0.105,0.075,-0.445,0.044,-0.143,-82.337,25.807,2.840
1747607229.00,0.092,-0.043,0.023,-0.432,-0.040,-0.151,-82.599,26.038,3.074
1747607229.01,0.102,0.034,-0.008,-0.418,-0.089,-0.157,-82.856,26.232,3.308
1747607229.02,0.088,0.070,0.011,-0.382,-0.157,-0.174,-83.103,26.306,3.452
1747607229.03,0.049,0.056,0.016,-0.328,-0.193,-0.205,-83.332,26.138,3.387
1747607229.04,0.010,0.029,-0.021,-0.310,-0.120,-0.236,-83.549,25.737,3.076
1747607229.05,0.005,0.009,-0.024,-0.342,-0.040,-0.228,-83.774,25.323,2.704
1747607229.06,0.017,0.000,0.020,-0.359,-0.017,-0.203,-84.010,25.062,2.456
1747607229.07,0.020,0.002,0.037,-0.346,-0.010,-0.160,-84.237,24.961,2.363
1747607229.08,0.027,0.007,0.007,-0.332,-0.004,-0.110,-84.444,25.069,2.475
1747607229.09,0.024,0.000,-0.012,-0.376,-0.035,-0.070,-84.649,25.512,2.927
1747607229.10,-0.014,-0.015,0.004,-0.367,-0.062,-0.075,-84.858,26.093,3.541
1747607229.11,-0.056,-0.042,-0.013,-0.355,-0.008,-0.103,-85.065,26.599,4.071
1747607229.12,-0.068,-0.067,-0.022,-0.356,0.064,-0.115,-85.274,27.024,4.482
1747607229.13,-0.042,-0.055,-0.012,-0.403,0.082,-0.105,-85.495,27.589,5.004
1747607229.14,0.002,-0.011,-0.006,-0.392,0.049,-0.123,-85.728,28.354,5.731
1747607229.15,0.046,0.035,-0.027,-0.277,-0.045,-0.145,-85.938,28.625,5.998
1747607229.16,0.063,0.049,-0.079,-0.121,-0.133,-0.117,-86.074,28.429,5.855
1747607229.17,0.077,0.036,-0.104,0.025,-0.181,-0.102,-86.125,27.708,5.224
1747607229.18,0.089,0.024,-0.112,0.091,-0.149,-0.081,-86.117,26.682,4.292
1747607229.19,0.097,0.044,-0.109,0.083,-0.104,-0.028,-86.085,25.844,3.494
1747607229.20,0.086,0.047,-0.063,0.052,-0.133,0.016,-86.051,25.527,3.244
1747607229.21,0.039,-0.004,-0.036,0.038,-0.194,0.046,-86.022,25.484,3.247
1747607229.22,-0.022,-0.068,-0.045,0.060,-0.180,0.063,-85.983,25.655,3.528
1747607229.23,-0.050,-0.113,-0.040,0.089,-0.135,0.044,-85.931,25.687,3.596
1747607229.24,-0.034,-0.105,-0.024,0.114,-0.109,0.036,-85.869,25.556,3.533
1747607229.25,0.004,-0.049,-0.020,0.139,-0.090,0.034,-85.795,25.300,3.278
1747607229.26,0.037,0.024,-0.013,0.160,-0.087,0.037,-85.702,25.031,3.059
1747607229.27,0.041,0.074,-0.004,0.194,-0.064,0.057,-85.593,24.776,2.787
1747607229.28,0.012,0.088,0.008,0.189,-0.041,0.055,-85.474,24.562,2.602
1747607229.29,-0.054,0.060,0.025,0.147,0.001,0.016,-85.376,24.303,2.304
1747607229.30,-0.130,0.014,0.036,0.108,0.073,-0.034,-85.310,23.878,1.858
1747607229.31,-0.151,-0.027,0.071,0.067,0.145,-0.064,-85.276,23.339,1.234
1747607229.32,-0.118,-0.050,0.120,0.037,0.157,-0.050,-85.263,22.897,0.701
1747607229.33,-0.055,-0.045,0.137,0.012,0.100,-0.030,-85.258,22.665,0.393
1747607229.34,-0.002,-0.004,0.115,0.017,0.007,-0.022,-85.256,22.523,0.220
1747607229.35,0.015,0.043,0.096,0.043,-0.082,-0.038,-85.246,22.250,-0.032
1747607229.36,-0.001,0.063,0.080,0.069,-0.122,-0.058,-85.228,21.741,-0.482
1747607229.37,-0.026,0.055,0.060,0.098,-0.102,-0.065,-85.198,21.045,-1.114
1747607229.38,-0.040,0.028,0.040,0.121,-0.049,-0.063,-85.155,20.281,-1.836
1747607229.39,-0.044,0.000,0.035,0.151,0.013,-0.057,-85.100,19.527,-2.582
1747607229.40,-0.050,-0.015,0.029,0.212,0.080,-0.056,-85.023,18.765,-3.374
1747607229.41,-0.065,-0.015,0.004,0.283,0.129,-0.055,-84.906,17.965,-4.237
1747607229.42,-0.081,-0.012,-0.011,0.344,0.170,-0.054,-84.752,17.148,-5.142
1747607229.43,-0.089,-0.011,-0.026,0.402,0.250,-0.056,-84.562,16.310,-6.103
1747607229.44,-0.079,-0.002,-0.047,0.404,0.337,-0.045,-84.351,15.548,-7.037
1747607229.45,-0.067,0.010,-0.032,0.375,0.388,-0.025,-84.145,14.984,-7.814
1747607229.46,-0.068,0.016,-0.001,0.379,0.415,-0.015,-83.942,14.587,-8.445
1747607229.47,-0.062,0.014,-0.005,0.363,0.412,-0.003,-83.739,14.283,-8.989
1747607229.48,-0.053,0.006,0.011,0.340,0.405,0.022,-83.544,14.125,-9.381
1747607229.49,-0.035,0.004,0.042,0.344,0.430,0.037,-83.352,14.093,-9.654
1747607229.50,-0.015,-0.001,0.056,0.407,0.451,0.023,-83.142,14.055,-9.946
1747607229.51,-0.011,-0.013,0.059,0.556,0.436,0.008,-82.877,13.842,-10.418
1747607229.52,-0.018,-0.009,0.037,0.693,0.352,0.023,-82.524,13.467,-11.024
1747607229.53,-0.017,0.011,-0.018,0.677,0.239,0.017,-82.135,13.047,-11.620
1747607229.54,-0.017,0.034,0.001,0.603,0.164,-0.007,-81.780,12.605,-12.178
1747607229.55,-0.019,0.028,0.048,0.605,0.187,-0.010,-81.446,12.167,-12.719
1747607229.56,0.013,-0.005,0.061,0.644,0.214,0.009,-81.097,11.798,-13.210
1747607229.57,0.052,-0.025,0.042,0.652,0.204,0.036,-80.731,11.526,-13.607
1747607229.58,0.066,-0.026,0.044,0.665,0.156,0.045,-80.359,11.319,-13.925
1747607229.59,0.053,-0.015,0.062,0.694,0.051,0.040,-79.973,11.086,-14.223
1747607229.60,0.016,0.002,0.039,0.747,-0.050,0.020,-79.567,10.753,-14.559
1747607229.61,-0.015,0.008,-0.006,0.853,-0.034,-0.004,-79.118,10.307,-14.983
1747607229.62,-0.012,0.001,-0.034,0.912,0.019,-0.004,-78.618,9.832,-15.465
1747607229.63,0.027,0.009,0.008,0.873,-0.026,0.044,-78.111,9.467,-15.836
1747607229.64,0.059,0.022,0.067,0.816,-0.055,0.084,-77.629,9.249,-16.034
1747607229.65,0.050,0.015,0.084,0.801,-0.067,0.114,-77.166,9.134,-16.116
1747607229.66,0.002,-0.005,0.064,0.844,-0.029,0.133,-76.692,9.087,-16.133
1747607229.67,-0.053,-0.031,0.039,0.841,0.071,0.135,-76.202,9.102,-16.130
1747607229.68,-0.088,-0.050,0.056,0.782,0.195,0.158,-75.731,9.207,-16.154
1747607229.69,-0.082,-0.059,0.097,0.757,0.345,0.210,-75.282,9.482,-16.028
1747607229.70,-0.039,-0.061,0.117,0.826,0.440,0.243,-74.817,9.905,-15.878
1747607229.71,-0.008,-0.039,0.116,0.920,0.425,0.272,-74.300,10.361,-15.664
1747607229.72,-0.009,0.007,0.080,0.975,0.344,0.305,-73.736,10.793,-15.505
1747607229.73,-0.006,0.056,0.064,0.955,0.262,0.331,-73.158,11.213,-15.248
1747607229.74,0.012,0.096,0.047,0.910,0.263,0.325,-72.599,11.619,-15.027
1747607229.75,0.020,0.109,0.060,0.878,0.341,0.305,-72.062,12.018,-14.790
1747607229.76,0.013,0.084,0.140,0.868,0.328,0.285,-71.541,12.399,-14.646
1747607229.77,-0.019,0.034,0.189,0.863,0.160,0.261,-71.023,12.674,-14.506
1747607229.78,-0.084,0.006,0.107,0.808,-0.024,0.218,-70.527,12.792,-14.473
1747607229.79,-0.133,0.001,0.047,0.775,-0.122,0.168,-70.063,12.762,-14.455
1747607229.80,-0.113,-0.000,0.025,0.808,-0.079,0.154,-69.605,12.673,-14.541
1747607229.81,-0.037,-0.002,0.029,0.930,0.034,0.162,-69.102,12.606,-14.599
1747607229.82,0.031,0.013,0.035,1.002,0.084,0.186,-68.536,12.581,-14.727
1747607229.83,0.046,0.041,0.028,0.985,0.146,0.196,-67.958,12.600,-14.772
1747607229.84,0.024,0.054,0.029,0.978,0.345,0.204,-67.386,12.709,-14.857
1747607229.85,-0.009,0.040,0.064,0.952,0.486,0.239,-66.819,12.949,-14.859
1747607229.86,-0.069,0.000,0.068,0.906,0.506,0.301,-66.267,13.301,-14.840
1747607229.87,-0.132,-0.037,0.039,0.787,0.507,0.363,-65.749,13.750,-14.665
1747607229.88,-0.143,-0.052,0.032,0.636,0.553,0.406,-65.306,14.306,-14.437
1747607229.89,-0.058,-0.045,0.073,0.640,0.580,0.428,-64.898,14.936,-14.104
1747607229.90,0.086,-0.018,0.061,0.726,0.426,0.429,-64.458,15.515,-13.839
1747607229.91,0.195,0.020,0.019,0.868,0.165,0.389,-63.959,15.901,-13.598
1747607229.92,0.223,0.048,-0.013,1.053,-0.065,0.305,-63.376,16.008,-13.549
1747607229.93,0.185,0.048,-0.049,1.119,-0.199,0.208,-62.735,15.864,-13.619
1747607229.94,0.100,0.021,-0.064,1.101,-0.161,0.131,-62.097,15.601,-13.843
1747607229.95,-0.014,-0.013,-0.090,0.988,-0.076,0.108,-61.501,15.354,-14.048
1747607229.96,-0.136,-0.041,-0.117,0.814,0.006,0.118,-60.987,15.198,-14.262
1747607229.97,-0.226,-0.073,-0.092,0.692,0.178,0.145,-60.555,15.175,-14.343
1747607229.98,-0.229,-0.102,-0.020,0.664,0.345,0.194,-60.160,15.314,-14.413
1747607229.99,-0.119,-0.115,0.020,0.737,0.316,0.258,-59.743,15.541,-14.376
1747607230.00,0.026,-0.098,-0.019,0.864,0.172,0.319,-59.258,15.745,-14.353
1747607230.01,0.144,-0.064,-0.068,0.983,-0.004,0.328,-58.701,15.851,-14.284
1747607230.02,0.202,-0.032,-0.089,1.120,-0.103,0.308,-58.073,15.824,-14.317
1747607230.03,0.185,-0.028,-0.095,1.121,0.014,0.281,-57.404,15.770,-14.342
1747607230.04,0.126,-0.034,-0.089,0.990,0.174,0.235,-56.785,15.793,-14.437
1747607230.05,0.038,-0.036,-0.041,0.873,0.252,0.243,-56.236,15.892,-14.467
1747607230.06,-0.047,-0.063,0.001,0.793,0.242,0.321,-55.737,16.071,-14.478
1747607230.07,-0.079,-0.107,0.017,0.713,0.149,0.412,-55.265,16.301,-14.336
1747607230.08,-0.044,-0.126,-0.039,0.655,0.041,0.459,-54.822,16.543,-14.158
1747607230.09,0.051,-0.126,-0.033,0.674,-0.067,0.474,-54.385,16.748,-13.903
1747607230.10,0.174,-0.091,-0.017,0.768,-0.218,0.432,-53.918,16.847,-13.720
1747607230.11,0.262,-0.035,-0.007,0.889,-0.334,0.397,-53.397,16.809,-13.571
1747607230.12,0.280,0.040,0.030,0.975,-0.366,0.374,-52.821,16.683,-13.518
1747607230.13,0.226,0.136,0.044,0.967,-0.290,0.304,-52.229,16.529,-13.475
1747607230.14,0.090,0.176,0.061,0.857,-0.214,0.234,-51.686,16.385,-13.528
1747607230.15,-0.054,0.157,0.109,0.778,-0.218,0.275,-51.199,16.271,-13.519
1747607230.16,-0.118,0.075,0.040,0.681,-0.253,0.377,-50.749,16.211,-13.461
1747607230.17,-0.093,-0.000,-0.036,0.622,-0.250,0.432,-50.327,16.216,-13.270
1747607230.18,-0.024,-0.038,-0.045,0.630,-0.239,0.400,-49.919,16.235,-13.108
1747607230.19,0.023,-0.037,-0.010,0.686,-0.289,0.336,-49.500,16.201,-12.958
1747607230.20,0.010,-0.016,0.000,0.752,-0.377,0.286,-49.056,16.076,-12.906
1747607230.21,-0.041,0.027,-0.005,0.851,-0.417,0.240,-48.576,15.865,-12.879
1747607230.22,-0.104,0.067,-0.012,0.990,-0.318,0.164,-48.039,15.619,-12.957
1747607230.23,-0.138,0.083,-0.014,1.092,-0.141,0.045,-47.448,15.378,-13.105
1747607230.24,-0.152,0.088,-0.015,1.109,0.023,-0.057,-46.840,15.160,-13.360
1747607230.25,-0.157,0.068,0.005,1.012,0.087,-0.071,-46.263,14.987,-13.646
1747607230.26,-0.150,0.015,0.037,0.888,0.104,0.002,-45.746,14.874,-13.877
1747607230.27,-0.123,-0.059,-0.013,0.781,0.106,0.126,-45.276,14.848,-14.000
1747607230.28,-0.053,-0.128,-0.043,0.754,0.096,0.199,-44.832,14.886,-14.029
1747607230.29,0.028,-0.155,-0.044,0.804,0.064,0.218,-44.373,14.938,-14.024
1747607230.30,0.108,-0.129,0.002,0.896,-0.034,0.181,-43.876,14.934,-14.043
1747607230.31,0.125,-0.054,0.046,1.009,-0.142,0.123,-43.328,14.834,-14.120
1747607230.32,0.095,0.024,0.024,1.102,-0.237,0.045,-42.733,14.620,-14.267
1747607230.33,0.049,0.072,0.014,1.128,-0.169,-0.047,-42.115,14.351,-14.483
1747607230.34,0.033,0.078,0.104,1.096,-0.040,-0.105,-41.508,14.113,-14.754
1747607230.35,0.056,0.050,0.127,0.995,0.024,-0.083,-40.938,13.941,-15.018
1747607230.36,0.075,0.018,-0.010,0.832,-0.115,0.024,-40.437,13.790,-15.212
1747607230.37,0.044,-0.009,-0.082,0.736,-0.127,0.136,-39.994,13.664,-15.288
1747607230.38,0.067,-0.039,-0.024,0.727,-0.062,0.230,-39.566,13.618,-15.283
1747607230.39,0.125,-0.034,0.082,0.743,-0.118,0.290,-39.123,13.608,-15.222
1747607230.40,0.111,0.013,0.058,0.762,-0.200,0.290,-38.665,13.570,-15.141
1747607230.41,0.061,0.101,0.009,0.784,-0.315,0.243,-38.200,13.460,-15.082
1747607230.42,0.025,0.178,-0.002,0.866,-0.396,0.172,-37.716,13.261,-15.072
1747607230.43,0.020,0.228,0.029,0.985,-0.356,0.081,-37.185,13.005,-15.134
1747607230.44,0.043,0.237,0.176,1.043,-0.302,-0.017,-36.613,12.735,-15.275
1747607230.45,0.064,0.200,0.119,0.974,-0.396,-0.063,-36.054,12.430,-15.462
1747607230.46,0.046,0.109,-0.095,0.851,-0.558,-0.045,-35.552,12.050,-15.639
1747607230.47,-0.025,-0.014,-0.176,0.810,-0.525,0.052,-35.092,11.665,-15.757
1747607230.48,-0.038,-0.137,-0.063,0.820,-0.409,0.138,-34.625,11.372,-15.802
1747607230.49,-0.049,-0.214,0.035,0.837,-0.280,0.161,-34.144,11.172,-15.810
1747607230.50,-0.097,-0.219,0.054,0.834,-0.229,0.124,-33.658,11.024,-15.824
1747607230.51,-0.160,-0.155,0.022,0.828,-0.224,0.070,-33.183,10.868,-15.865
1747607230.52,-0.176,-0.060,-0.016,0.878,-0.176,0.015,-32.702,10.708,-15.945
1747607230.53,-0.092,0.023,0.034,0.943,-0.050,-0.041,-32.191,10.579,-16.068
1747607230.54,0.016,0.085,0.153,0.944,-0.011,-0.087,-31.667,10.480,-16.228
1747607230.55,0.098,0.120,0.096,0.907,-0.096,-0.079,-31.154,10.369,-16.398
1747607230.56,0.116,0.087,-0.035,0.797,-0.272,0.022,-30.679,10.196,-16.520
1747607230.57,0.098,0.026,-0.086,0.761,-0.338,0.167,-30.235,10.003,-16.551
1747607230.58,0.136,-0.044,-0.034,0.775,-0.312,0.314,-29.779,9.851,-16.478
1747607230.59,0.162,-0.091,0.005,0.803,-0.251,0.342,-29.301,9.755,-16.349
1747607230.60,0.133,-0.066,0.016,0.793,-0.237,0.297,-28.821,9.675,-16.230
1747607230.61,0.054,-0.008,0.014,0.817,-0.255,0.287,-28.342,9.583,-16.132
1747607230.62,-0.010,0.043,0.016,0.855,-0.278,0.282,-27.844,9.474,-16.040
1747607230.63,-0.038,0.078,0.048,0.854,-0.264,0.276,-27.337,9.357,-15.952
1747607230.64,-0.036,0.095,0.091,0.870,-0.250,0.235,-26.827,9.246,-15.877
1747607230.65,-0.013,0.073,0.051,0.868,-0.205,0.195,-26.316,9.135,-15.831
1747607230.66,-0.012,0.008,-0.055,0.824,-0.155,0.193,-25.821,9.049,-15.797
1747607230.67,-0.003,-0.062,-0.132,0.772,-0.180,0.242,-25.352,8.980,-15.741
1747607230.68,-0.019,-0.108,-0.143,0.740,-0.154,0.291,-24.902,8.918,-15.648
1747607230.69,-0.039,-0.106,-0.059,0.732,-0.003,0.279,-24.463,8.916,-15.539
1747607230.70,-0.018,-0.057,0.033,0.759,-0.009,0.236,-24.019,8.951,-15.454
1747607230.71,-0.053,0.023,0.039,0.790,-0.024,0.205,-23.561,8.967,-15.393
1747607230.72,-0.068,0.089,0.027,0.801,-0.078,0.148,-23.097,8.952,-15.360
1747607230.73,-0.044,0.129,0.046,0.839,-0.119,0.086,-22.624,8.892,-15.366
1747607230.74,-0.031,0.145,0.044,0.877,-0.113,0.024,-22.135,8.805,-15.415
1747607230.75,-0.033,0.131,0.049,0.918,-0.106,-0.005,-21.628,8.714,-15.496
1747607230.76,-0.030,0.093,0.006,0.958,-0.123,-0.021,-21.097,8.614,-15.592
1747607230.77,-0.021,0.056,-0.061,0.920,-0.085,-0.004,-20.567,8.518,-15.686
1747607230.78,-0.026,0.029,-0.074,0.875,0.004,0.026,-20.060,8.469,-15.761
1747607230.79,-0.036,0.019,-0.039,0.820,0.060,0.076,-19.576,8.473,-15.806
1747607230.80,-0.048,0.022,-0.020,0.768,0.085,0.109,-19.121,8.510,-15.819
1747607230.81,-0.045,0.056,0.005,0.752,0.102,0.104,-18.683,8.564,-15.823
1747607230.82,-0.041,0.094,0.030,0.748,0.070,0.091,-18.251,8.612,-15.831
1747607230.83,-0.017,0.111,0.024,0.768,-0.019,0.061,-17.818,8.621,-15.853
1747607230.84,0.042,0.087,-0.012,0.817,-0.128,-0.020,-17.366,8.561,-15.911
1747607230.85,0.110,0.035,-0.024,0.826,-0.240,-0.077,-16.906,8.427,-16.013
1747607230.86,0.150,-0.017,0.005,0.865,-0.365,-0.083,-16.438,8.217,-16.136
1747607230.87,0.131,-0.052,0.002,0.879,-0.383,-0.038,-15.947,7.966,-16.246
1747607230.88,0.077,-0.096,-0.013,0.829,-0.221,-0.002,-15.465,7.768,-16.327
1747607230.89,0.029,-0.140,-0.011,0.787,-0.095,0.046,-15.006,7.666,-16.380
1747607230.90,-0.024,-0.160,-0.024,0.747,-0.013,0.141,-14.565,7.635,-16.386
1747607230.91,-0.072,-0.131,0.004,0.722,0.066,0.222,-14.136,7.663,-16.336
1747607230.92,-0.083,-0.028,0.087,0.699,0.132,0.261,-13.714,7.743,-16.249
1747607230.93,-0.065,0.112,0.100,0.676,0.114,0.249,-13.306,7.839,-16.152
1747607230.94,-0.001,0.180,0.016,0.701,0.017,0.201,-12.901,7.895,-16.076
1747607230.95,0.091,0.132,-0.069,0.739,-0.122,0.134,-12.480,7.876,-16.037
1747607230.96,0.168,0.038,-0.078,0.762,-0.284,0.071,-12.048,7.759,-16.037
1747607230.97,0.170,-0.032,-0.060,0.779,-0.400,0.014,-11.608,7.553,-16.048
1747607230.98,0.090,-0.102,-0.049,0.785,-0.407,0.023,-11.164,7.308,-16.099
1747607230.99,-0.005,-0.149,-0.007,0.816,-0.317,0.080,-10.707,7.092,-16.084
1747607231.00,-0.079,-0.127,0.065,0.812,-0.179,0.135,-10.237,6.952,-16.080
1747607231.01,-0.137,-0.020,0.093,0.773,-0.078,0.146,-9.778,6.884,-16.009
1747607231.02,-0.176,0.094,0.034,0.748,0.025,0.140,-9.339,6.875,-15.979
1747607231.03,-0.167,0.131,0.001,0.756,0.083,0.117,-8.903,6.914,-15.904
1747607231.04,-0.108,0.118,-0.009,0.761,0.037,0.060,-8.466,6.951,-15.905
1747607231.05,-0.040,0.095,-0.061,0.754,-0.062,-0.010,-8.035,6.943,-15.893
1747607231.06,0.027,0.056,-0.089,0.753,-0.165,-0.063,-7.611,6.866,-15.968
1747607231.07,0.089,0.002,-0.066,0.768,-0.247,-0.078,-7.188,6.736,-16.007
1747607231.08,0.116,-0.055,-0.051,0.808,-0.280,-0.069,-6.743,6.572,-16.109
1747607231.09,0.106,-0.094,-0.002,0.823,-0.242,-0.003,-6.284,6.413,-16.126
1747607231.09,0.060,-0.057,0.071,0.818,-0.157,0.022,-5.816,6.293,-16.174
1747607231.11,-0.021,0.019,0.102,0.798,-0.052,0.047,-5.355,6.229,-16.142
1747607231.11,-0.083,0.052,0.084,0.800,0.093,0.073,-4.900,6.237,-16.157
1747607231.13,-0.088,0.043,0.051,0.805,0.209,0.090,-4.438,6.329,-16.093
1747607231.13,-0.003,0.012,-0.014,0.775,0.163,0.092,-3.985,6.441,-16.092
1747607231.15,0.115,-0.010,-0.116,0.754,0.009,0.092,-3.545,6.490,-16.028
1747607231.15,0.177,0.004,-0.133,0.745,-0.127,0.002,-3.116,6.454,-16.053
1747607231.16,0.168,0.018,-0.097,0.721,-0.198,-0.017,-2.701,6.357,-16.057
1747607231.17,0.103,-0.039,-0.079,0.687,-0.226,-0.021,-2.302,6.231,-16.113
1747607231.18,0.024,-0.069,-0.066,0.684,-0.197,-0.003,-1.915,6.108,-16.110
1747607231.19,-0.032,-0.072,-0.012,0.711,-0.165,0.028,-1.518,6.005,-16.145
1747607231.20,-0.056,-0.011,0.042,0.697,-0.146,0.046,-1.116,5.915,-16.105
1747607231.21,-0.080,0.096,0.042,0.715,-0.106,0.048,-0.713,5.841,-16.120
1747607231.23,-0.084,0.162,0.033,0.742,-0.028,0.040,-0.295,5.802,-16.086
1747607231.23,-0.071,0.155,0.016,0.736,0.035,0.009,0.126,5.804,-16.114
1747607231.25,-0.048,0.107,-0.013,0.739,0.063,-0.034,0.545,5.834,-16.105
1747607231.25,-0.022,0.064,-0.048,0.700,0.045,-0.053,0.951,5.868,-16.173
1747607231.26,0.000,0.015,-0.074,0.703,-0.018,-0.053,1.343,5.878,-16.176
1747607231.27,0.014,0.001,-0.068,0.694,-0.057,-0.052,1.738,5.857,-16.248
1747607231.28,0.019,-0.001,-0.057,0.667,-0.122,-0.054,2.121,5.810,-16.252
1747607231.29,0.036,0.022,-0.110,0.658,-0.214,-0.027,2.495,5.718,-16.316
1747607231.30,0.033,0.036,-0.137,0.662,-0.275,-0.078,2.866,5.579,-16.310
1747607231.31,0.012,0.079,-0.079,0.668,-0.294,-0.090,3.241,5.419,-16.396
1747607231.32,0.003,0.123,-0.025,0.664,-0.320,-0.106,3.614,5.249,-16.413
1747607231.33,-0.029,0.108,-0.024,0.670,-0.298,-0.125,3.987,5.076,-16.443
1747607231.34,-0.032,0.071,-0.028,0.675,-0.239,-0.142,4.363,4.930,-16.553
1747607231.35,0.001,0.038,-0.005,0.672,-0.197,-0.159,4.739,4.816,-16.599
1747607231.36,0.009,0.034,-0.003,0.660,-0.162,-0.173,5.111,4.723,-16.726
1747607231.37,-0.002,0.022,-0.035,0.632,-0.138,-0.174,5.470,4.650,-16.779
1747607231.38,0.010,0.004,-0.065,0.613,-0.115,-0.135,5.819,4.590,-16.897
1747607231.39,0.022,0.006,-0.069,0.582,-0.096,-0.099,6.153,4.539,-16.928
1747607231.40,0.017,0.033,-0.061,0.555,-0.086,-0.078,6.474,4.497,-17.004
1747607231.41,0.015,0.035,-0.063,0.538,-0.101,-0.075,6.780,4.452,-17.006
1747607231.42,0.024,0.029,-0.053,0.530,-0.104,-0.074,7.083,4.400,-17.073
1747607231.43,0.037,0.017,-0.045,0.511,-0.155,-0.072,7.374,4.338,-17.076
1747607231.44,0.060,-0.015,-0.062,0.528,-0.203,-0.077,7.667,4.238,-17.130
1747607231.45,0.073,-0.022,-0.064,0.519,-0.246,-0.067,7.964,4.119,-17.134
1747607231.46,0.056,-0.005,-0.029,0.502,-0.262,-0.035,8.252,3.978,-17.183
1747607231.47,0.010,0.038,-0.021,0.501,-0.254,-0.014,8.538,3.835,-17.152
1747607231.48,-0.046,0.075,-0.032,0.478,-0.204,-0.016,8.816,3.707,-17.178
1747607231.49,-0.069,0.070,-0.036,0.479,-0.146,-0.023,9.088,3.612,-17.149
1747607231.50,-0.043,0.033,-0.033,0.496,-0.083,-0.024,9.365,3.554,-17.179
1747607231.51,0.000,0.008,-0.008,0.496,-0.092,-0.057,9.647,3.511,-17.167
1747607231.52,0.030,0.013,-0.007,0.484,-0.110,-0.071,9.923,3.464,-17.223
1747607231.53,0.049,0.010,-0.039,0.484,-0.162,-0.066,10.197,3.399,-17.238
1747607231.54,0.036,0.019,-0.066,0.462,-0.204,-0.069,10.465,3.303,-17.292
1747607231.55,-0.003,0.053,-0.077,0.457,-0.222,-0.067,10.727,3.190,-17.295
1747607231.56,-0.021,0.055,-0.080,0.461,-0.201,-0.069,10.986,3.078,-17.348
1747607231.57,-0.020,0.043,-0.051,0.471,-0.195,-0.082,11.249,2.977,-17.361
1747607231.58,-0.032,0.066,-0.041,0.503,-0.176,-0.100,11.523,2.883,-17.429
1747607231.59,-0.035,0.062,-0.030,0.519,-0.122,-0.122,11.812,2.814,-17.464
1747607231.60,-0.016,0.056,-0.015,0.557,-0.066,-0.116,12.116,2.778,-17.551
1747607231.61,-0.028,0.055,-0.016,0.559,-0.002,-0.102,12.432,2.775,-17.582
1747607231.62,-0.052,0.039,-0.002,0.534,0.020,-0.110,12.741,2.799,-17.658
1747607231.63,-0.042,0.057,-0.022,0.532,-0.026,-0.117,13.042,2.817,-17.690
1747607231.64,-0.005,0.034,-0.068,0.506,-0.093,-0.119,13.334,2.803,-17.773
1747607231.65,0.023,-0.013,-0.072,0.481,-0.165,-0.127,13.612,2.751,-17.808
1747607231.66,0.010,0.010,-0.049,0.478,-0.208,-0.126,13.883,2.661,-17.896
1747607231.67,-0.013,0.014,-0.016,0.478,-0.171,-0.143,14.154,2.573,-17.931
1747607231.68,0.005,0.013,0.016,0.455,-0.136,-0.175,14.416,2.511,-18.038
1747607231.69,0.016,0.013,0.001,0.431,-0.062,-0.158,14.665,2.480,-18.095
1747607231.70,-0.001,-0.011,-0.021,0.389,0.030,-0.116,14.891,2.505,-18.185
1747607231.71,-0.040,-0.035,-0.020,0.412,0.060,-0.080,15.122,2.546,-18.209
1747607231.72,-0.041,-0.068,-0.035,0.374,0.069,-0.062,15.344,2.600,-18.260
1747607231.73,0.019,-0.054,-0.015,0.365,0.040,-0.022,15.553,2.641,-18.255
1747607231.74,0.035,-0.014,-0.034,0.358,0.033,0.002,15.760,2.663,-18.267
1747607231.75,0.037,0.003,-0.044,0.324,-0.010,0.035,15.954,2.672,-18.211
1747607231.76,0.056,0.010,-0.039,0.321,-0.062,0.059,16.137,2.643,-18.188
1747607231.77,0.055,-0.010,-0.057,0.314,-0.056,0.028,16.321,2.604,-18.122
1747607231.78,0.049,-0.001,-0.036,0.279,-0.050,0.025,16.491,2.571,-18.115
1747607231.79,0.023,-0.014,-0.026,0.266,-0.015,0.030,16.647,2.549,-18.042
1747607231.80,-0.017,-0.016,-0.022,0.255,0.019,0.035,16.797,2.546,-18.030
1747607231.81,-0.041,-0.003,-0.010,0.249,0.024,0.062,16.941,2.555,-17.957
1747607231.82,-0.030,-0.001,-0.013,0.261,0.057,-0.011,17.087,2.573,-17.945
1747607231.83,-0.009,0.006,-0.012,0.256,0.061,-0.036,17.235,2.613,-17.898
1747607231.84,0.007,0.027,-0.016,0.244,0.066,-0.050,17.377,2.659,-17.931
1747607231.85,-0.003,0.005,-0.039,0.237,0.077,-0.035,17.512,2.710,-17.893
1747607231.86,-0.005,-0.011,-0.034,0.227,0.081,-0.027,17.645,2.763,-17.918
1747607231.87,-0.012,-0.018,-0.031,0.216,0.070,-0.030,17.770,2.813,-17.884
1747607231.88,0.009,-0.017,-0.030,0.221,0.035,-0.035,17.893,2.852,-17.910
1747607231.89,0.036,-0.009,-0.032,0.215,-0.040,-0.043,18.017,2.861,-17.875
1747607231.90,0.043,0.015,-0.032,0.212,-0.097,-0.020,18.138,2.827,-17.900
1747607231.91,0.032,0.020,-0.035,0.213,-0.122,-0.017,18.259,2.769,-17.859
1747607231.92,0.025,0.020,-0.027,0.218,-0.113,-0.007,18.375,2.706,-17.873
1747607231.93,0.016,0.021,-0.007,0.206,-0.068,0.029,18.491,2.653,-17.811
1747607231.94,-0.004,0.002,0.008,0.190,-0.001,-0.008,18.603,2.630,-17.804
1747607231.95,-0.014,-0.023,-0.005,0.188,0.016,-0.014,18.707,2.636,-17.766
1747607231.96,0.006,-0.025,-0.027,0.196,0.040,-0.020,18.815,2.659,-17.782
1747607231.97,0.002,-0.002,-0.020,0.198,0.014,-0.030,18.923,2.689,-17.759
1747607231.98,0.004,0.030,-0.015,0.204,-0.024,-0.025,19.030,2.704,-17.784
1747607231.99,0.009,0.015,-0.034,0.195,-0.058,-0.051,19.135,2.694,-17.762
1747607232.00,0.009,0.011,-0.036,0.221,-0.039,-0.051,19.247,2.681,-17.803
1747607232.01,0.009,-0.004,-0.030,0.220,0.008,-0.066,19.364,2.688,-17.792
1747607232.02,0.007,-0.040,-0.002,0.219,0.043,-0.082,19.485,2.719,-17.843
1747607232.03,0.003,-0.014,0.002,0.204,0.046,-0.091,19.606,2.762,-17.856
1747607232.04,0.010,-0.010,-0.014,0.190,0.041,-0.077,19.714,2.806,-17.913
1747607232.05,0.017,-0.009,-0.031,0.200,0.055,-0.053,19.821,2.848,-17.906
1747607232.06,0.012,-0.001,-0.030,0.177,0.046,-0.021,19.917,2.889,-17.935
1747607232.07,0.005,-0.001,-0.036,0.158,0.024,0.021,20.002,2.911,-17.888
1747607232.08,0.018,-0.022,-0.055,0.173,0.028,0.043,20.092,2.920,-17.873
1747607232.09,0.037,-0.020,-0.039,0.165,0.053,0.036,20.187,2.936,-17.801
1747607232.10,0.044,-0.005,-0.008,0.171,0.091,0.025,20.288,2.974,-17.789
1747607232.11,0.054,-0.001,0.014,0.160,0.081,0.014,20.384,3.023,-17.726
1747607232.12,0.045,0.006,-0.003,0.142,0.066,0.020,20.470,3.064,-17.720
1747607232.13,0.019,0.003,-0.031,0.131,0.050,0.034,20.545,3.094,-17.659
1747607232.14,-0.009,-0.016,-0.048,0.122,0.059,0.029,20.617,3.120,-17.644
1747607232.15,-0.017,-0.021,-0.044,0.094,0.077,0.004,20.675,3.155,-17.581
1747607232.16,-0.012,-0.011,-0.043,0.087,0.118,-0.003,20.724,3.213,-17.584
1747607232.17,-0.013,-0.010,-0.042,0.071,0.157,-0.007,20.769,3.297,-17.528
1747607232.18,0.001,-0.013,-0.042,0.061,0.171,-0.007,20.805,3.399,-17.537
1747607232.19,0.020,0.004,-0.042,0.050,0.123,-0.011,20.835,3.494,-17.485
1747607232.20,0.017,0.033,-0.052,0.040,0.055,-0.006,20.859,3.550,-17.493
1747607232.21,0.022,0.037,-0.067,0.032,0.018,-0.015,20.878,3.574,-17.444
1747607232.22,0.033,0.034,-0.051,0.024,0.030,-0.016,20.891,3.587,-17.454
1747607232.23,0.009,0.021,-0.047,-0.007,0.129,-0.016,20.898,3.632,-17.396
1747607232.24,-0.017,0.009,-0.047,-0.084,0.190,-0.023,20.871,3.727,-17.405
1747607232.25,-0.020,-0.022,-0.090,-0.138,0.174,-0.012,20.806,3.833,-17.340
1747607232.26,-0.008,-0.078,-0.141,-0.192,0.174,0.004,20.712,3.930,-17.335
1747607232.27,0.026,-0.080,-0.126,-0.236,0.165,0.007,20.588,4.024,-17.255
1747607232.28,0.058,-0.040,-0.100,-0.265,0.136,0.011,20.444,4.103,-17.177
1747607232.29,0.063,-0.023,-0.094,-0.317,0.129,0.036,20.280,4.168,-17.151
1747607232.30,0.056,-0.038,-0.072,-0.380,0.170,0.063,20.082,4.237,-17.042
1747607232.31,0.057,-0.067,-0.076,-0.445,0.230,0.099,19.850,4.327,-16.973
1747607232.32,0.053,-0.087,-0.099,-0.510,0.278,0.125,19.583,4.442,-16.818
1747607232.33,0.026,-0.108,-0.106,-0.582,0.308,0.143,19.279,4.575,-16.710
1747607232.34,0.008,-0.126,-0.115,-0.634,0.321,0.140,18.938,4.717,-16.532
1747607232.35,0.012,-0.128,-0.115,-0.671,0.307,0.114,18.572,4.861,-16.421
1747607232.36,0.010,-0.115,-0.086,-0.713,0.280,0.096,18.184,4.997,-16.256
1747607232.37,0.014,-0.122,-0.068,-0.778,0.246,0.086,17.765,5.117,-16.162
1747607232.38,0.025,-0.133,-0.072,-0.834,0.201,0.094,17.310,5.216,-16.011
1747607232.39,0.033,-0.144,-0.072,-0.887,0.142,0.073,16.825,5.288,-15.912
1747607232.40,0.018,-0.145,-0.091,-0.937,0.165,0.098,16.309,5.351,-15.759
1747607232.41,0.015,-0.135,-0.141,-0.976,0.149,0.097,15.770,5.409,-15.646
1747607232.42,-0.018,-0.057,-0.163,-1.008,0.152,0.064,15.210,5.466,-15.490
1747607232.43,-0.051,-0.006,-0.113,-1.047,0.174,0.061,14.630,5.534,-15.396
1747607232.44,-0.059,-0.006,-0.083,-1.095,0.143,0.069,14.024,5.602,-15.263
1747607232.45,-0.049,-0.020,-0.101,-1.116,0.085,0.069,13.399,5.641,-15.157
1747607232.46,-0.032,-0.029,-0.101,-1.155,0.030,0.052,12.758,5.651,-15.017
1747607232.47,-0.006,-0.037,-0.071,-1.176,-0.026,0.030,12.096,5.631,-14.926
1747607232.48,0.017,-0.052,-0.072,-1.172,-0.018,0.013,11.431,5.600,-14.801
1747607232.49,0.000,-0.051,-0.053,-1.218,0.004,0.018,10.754,5.582,-14.725
1747607232.50,-0.058,-0.041,-0.066,-1.251,0.033,0.019,10.051,5.578,-14.584
1747607232.51,-0.113,-0.032,-0.112,-1.264,0.099,0.013,9.337,5.602,-14.504
1747607232.52,-0.135,-0.025,-0.074,-1.272,0.182,-0.013,8.615,5.672,-14.378
1747607232.53,-0.109,-0.022,-0.036,-1.251,0.230,-0.070,7.896,5.784,-14.327
1747607232.54,-0.062,-0.020,-0.030,-1.246,0.250,-0.107,7.183,5.921,-14.259
1747607232.55,-0.021,-0.037,-0.020,-1.275,0.234,-0.104,6.460,6.059,-14.245
1747607232.56,0.020,-0.061,-0.031,-1.291,0.220,-0.082,5.724,6.184,-14.188
1747607232.57,0.033,-0.074,-0.050,-1.283,0.256,-0.054,4.990,6.315,-14.146
1747607232.58,0.022,-0.071,-0.030,-1.294,0.285,-0.050,4.255,6.467,-14.054
1747607232.59,0.005,-0.053,-0.005,-1.275,0.278,-0.072,3.521,6.626,-14.005
1747607232.60,-0.017,-0.037,0.019,-1.275,0.270,-0.088,2.794,6.780,-13.946
1747607232.61,-0.022,-0.032,0.034,-1.299,0.279,-0.084,2.056,6.936,-13.908
1747607232.62,0.010,-0.035,-0.002,-1.308,0.311,-0.045,1.314,7.102,-13.825
1747607232.63,0.051,-0.040,-0.025,-1.344,0.357,0.015,0.561,7.291,-13.739
1747607232.64,0.076,-0.024,-0.028,-1.377,0.365,0.057,-0.206,7.499,-13.593
1747607232.65,0.054,0.001,-0.064,-1.401,0.364,0.065,-0.991,7.709,-13.451
1747607232.66,0.022,0.014,-0.052,-1.369,0.375,0.039,-1.770,7.923,-13.290
1747607232.67,0.016,0.002,-0.016,-1.397,0.396,0.005,-2.548,8.149,-13.168
1747607232.68,0.031,-0.014,0.025,-1.444,0.330,-0.001,-3.352,8.366,-13.023
1747607232.69,0.045,-0.032,-0.018,-1.470,0.215,0.014,-4.175,8.528,-12.898
1747607232.70,0.045,-0.050,-0.054,-1.489,0.162,0.036,-5.009,8.646,-12.735
1747607232.71,0.047,-0.065,-0.040,-1.453,0.158,0.024,-5.838,8.750,-12.588
1747607232.72,0.036,-0.081,-0.011,-1.408,0.207,-0.002,-6.643,8.865,-12.438
1747607232.73,-0.013,-0.094,0.008,-1.384,0.299,-0.036,-7.430,9.025,-12.322
1747607232.74,-0.070,-0.104,0.001,-1.408,0.337,-0.088,-8.222,9.221,-12.221
1747607232.75,-0.127,-0.108,0.008,-1.437,0.368,-0.116,-9.034,9.432,-12.147
1747607232.76,-0.149,-0.107,0.001,-1.469,0.408,-0.114,-9.863,9.665,-12.081
1747607232.77,-0.122,-0.101,-0.025,-1.485,0.427,-0.120,-10.706,9.919,-12.001
1747607232.78,-0.066,-0.089,-0.032,-1.501,0.474,-0.148,-11.558,10.188,-11.928
1747607232.79,-0.014,-0.071,0.018,-1.509,0.544,-0.174,-12.420,10.494,-11.863
1747607232.80,0.040,-0.054,0.086,-1.500,0.536,-0.183,-13.283,10.818,-11.815
1747607232.81,0.082,-0.044,0.070,-1.507,0.487,-0.156,-14.144,11.127,-11.745
1747607232.82,0.102,-0.034,0.028,-1.503,0.432,-0.115,-15.003,11.414,-11.667
1747607232.83,0.104,-0.025,0.014,-1.485,0.356,-0.084,-15.850,11.673,-11.546
1747607232.84,0.077,-0.010,-0.043,-1.495,0.260,-0.080,-16.692,11.886,-11.449
1747607232.85,0.015,-0.000,-0.088,-1.523,0.223,-0.060,-17.543,12.065,-11.305
1747607232.86,-0.032,-0.012,-0.067,-1.525,0.227,-0.055,-18.402,12.241,-11.173
1747607232.87,-0.042,-0.045,0.002,-1.523,0.264,-0.071,-19.260,12.432,-11.013
1747607232.88,-0.028,-0.070,0.069,-1.505,0.334,-0.103,-20.115,12.653,-10.903
1747607232.89,-0.005,-0.089,0.082,-1.490,0.352,-0.125,-20.964,12.899,-10.768
1747607232.90,-0.008,-0.095,0.049,-1.477,0.343,-0.126,-21.804,13.143,-10.671
1747607232.91,-0.019,-0.083,-0.001,-1.489,0.359,-0.126,-22.645,13.394,-10.537
1747607232.92,-0.013,-0.052,-0.001,-1.486,0.390,-0.130,-23.489,13.662,-10.442
1747607232.93,-0.011,-0.010,0.017,-1.473,0.409,-0.126,-24.326,13.946,-10.300
1747607232.94,-0.021,0.030,0.030,-1.501,0.435,-0.107,-25.165,14.252,-10.181
1747607232.95,-0.022,0.066,0.033,-1.546,0.434,-0.097,-26.022,14.580,-10.003
1747607232.96,-0.006,0.093,0.022,-1.563,0.373,-0.083,-26.895,14.898,-9.851
1747607232.97,0.016,0.103,0.010,-1.548,0.329,-0.066,-27.765,15.195,-9.638
1747607232.98,0.059,0.107,0.017,-1.552,0.277,-0.062,-28.628,15.475,-9.464
1747607232.99,0.098,0.106,0.025,-1.558,0.172,-0.087,-29.495,15.715,-9.237
1747607233.00,0.112,0.097,-0.009,-1.553,0.033,-0.120,-30.368,15.879,-9.066
1747607233.01,0.085,0.069,-0.026,-1.514,-0.044,-0.155,-31.231,15.969,-8.874
1747607233.02,0.042,0.024,-0.029,-1.500,0.029,-0.204,-32.086,16.048,-8.757
1747607233.03,0.005,-0.030,-0.026,-1.513,0.037,-0.246,-32.947,16.146,-8.622
1747607233.04,-0.057,-0.086,-0.046,-1.553,-0.063,-0.225,-33.826,16.213,-8.533
1747607233.05,-0.113,-0.131,-0.089,-1.604,-0.073,-0.166,-34.724,16.269,-8.358
1747607233.06,-0.094,-0.156,-0.047,-1.627,-0.013,-0.123,-35.634,16.374,-8.184
1747607233.07,-0.035,-0.148,0.035,-1.608,0.048,-0.098,-36.540,16.531,-7.934
1747607233.08,0.014,-0.107,0.066,-1.589,0.117,-0.092,-37.429,16.736,-7.717
1747607233.09,0.048,-0.051,0.033,-1.594,0.143,-0.133,-38.317,16.971,-7.458
1747607233.10,0.047,-0.001,-0.020,-1.564,0.095,-0.191,-39.208,17.183,-7.279
1747607233.11,0.021,0.017,-0.034,-1.509,0.022,-0.200,-40.079,17.341,-7.083
1747607233.12,0.018,0.010,-0.061,-1.496,-0.047,-0.194,-40.928,17.464,-6.931
1747607233.13,0.038,-0.022,-0.088,-1.505,-0.138,-0.239,-41.782,17.536,-6.743
1747607233.14,0.035,-0.067,-0.050,-1.502,-0.174,-0.267,-42.646,17.553,-6.635
1747607233.15,0.039,-0.093,0.007,-1.487,-0.190,-0.303,-43.508,17.545,-6.496
1747607233.16,0.037,-0.112,0.047,-1.471,-0.239,-0.298,-44.366,17.510,-6.425
1747607233.17,0.020,-0.118,0.049,-1.480,-0.309,-0.248,-45.215,17.454,-6.281
1747607233.18,0.002,-0.092,-0.014,-1.542,-0.298,-0.188,-46.074,17.421,-6.130
1747607233.19,0.001,-0.060,-0.042,-1.572,-0.243,-0.170,-46.954,17.447,-5.879
1747607233.20,0.011,-0.024,0.004,-1.545,-0.208,-0.165,-47.834,17.510,-5.668
1747607233.21,0.011,0.028,0.043,-1.459,-0.177,-0.187,-48.682,17.587,-5.418
1747607233.22,0.019,0.074,0.052,-1.402,-0.165,-0.211,-49.492,17.649,-5.257
1747607233.23,0.016,0.099,0.027,-1.396,-0.194,-0.264,-50.294,17.683,-5.122
1747607233.24,-0.017,0.080,0.022,-1.383,-0.200,-0.299,-51.099,17.674,-4.987
1747607233.25,-0.037,0.022,-0.002,-1.399,-0.187,-0.291,-51.905,17.661,-4.935
1747607233.26,-0.022,-0.052,-0.028,-1.446,-0.160,-0.290,-52.731,17.675,-4.791
1747607233.27,0.004,-0.113,-0.012,-1.439,-0.135,-0.262,-53.565,17.725,-4.648
1747607233.28,0.021,-0.141,0.014,-1.413,-0.088,-0.245,-54.384,17.815,-4.458
1747607233.29,0.020,-0.128,0.056,-1.388,-0.079,-0.255,-55.189,17.923,-4.272
1747607233.30,-0.000,-0.076,0.057,-1.365,-0.123,-0.239,-55.980,18.025,-4.079
1747607233.31,-0.031,-0.010,0.021,-1.379,-0.165,-0.251,-56.766,18.107,-3.880
1747607233.32,-0.063,0.035,0.004,-1.399,-0.161,-0.274,-57.568,18.175,-3.686
1747607233.33,-0.075,0.050,-0.010,-1.373,-0.159,-0.295,-58.371,18.232,-3.512
1747607233.34,-0.067,0.042,-0.034,-1.362,-0.110,-0.309,-59.167,18.286,-3.357
1747607233.35,-0.046,0.017,-0.035,-1.329,-0.025,-0.366,-59.958,18.352,-3.238
1747607233.36,-0.014,-0.016,-0.033,-1.313,-0.035,-0.363,-60.739,18.407,-3.157
1747607233.37,-0.006,-0.045,-0.057,-1.285,-0.030,-0.352,-61.508,18.461,-3.071
1747607233.38,0.004,-0.063,-0.033,-1.258,-0.006,-0.345,-62.259,18.530,-2.983
1747607233.39,0.038,-0.053,0.022,-1.238,-0.009,-0.335,-62.998,18.610,-2.887
1747607233.40,0.052,-0.028,0.065,-1.212,0.071,-0.348,-63.723,18.697,-2.808
1747607233.41,0.062,-0.002,0.099,-1.238,0.133,-0.307,-64.445,18.856,-2.698
1747607233.42,0.057,0.021,0.130,-1.229,0.118,-0.299,-65.170,19.075,-2.539
1747607233.43,0.021,0.024,0.083,-1.219,0.014,-0.320,-65.886,19.252,-2.390
1747607233.44,-0.016,0.013,-0.016,-1.265,-0.056,-0.348,-66.617,19.360,-2.254
1747607233.45,-0.023,-0.018,-0.036,-1.298,-0.074,-0.382,-67.378,19.442,-2.128
1747607233.46,0.005,-0.042,0.032,-1.285,-0.154,-0.410,-68.152,19.447,-2.053
1747607233.47,-0.003,-0.036,0.003,-1.244,-0.115,-0.393,-68.910,19.426,-1.986
1747607233.48,-0.020,-0.023,-0.040,-1.231,-0.014,-0.394,-69.649,19.453,-1.919
1747607233.49,-0.030,-0.009,0.016,-1.245,0.063,-0.410,-70.393,19.523,-1.862
1747607233.50,-0.050,0.006,0.049,-1.200,0.137,-0.427,-71.134,19.611,-1.828
1747607233.51,-0.040,-0.001,0.059,-1.138,0.156,-0.359,-71.839,19.723,-1.800
1747607233.52,-0.001,-0.017,0.036,-1.137,0.171,-0.259,-72.506,19.980,-1.627
1747607233.53,0.043,-0.035,0.021,-1.201,0.199,-0.217,-73.179,20.428,-1.266
1747607233.54,0.056,-0.047,0.016,-1.216,0.215,-0.258,-73.875,20.962,-0.837
1747607233.55,0.046,-0.060,-0.009,-1.227,0.123,-0.278,-74.580,21.441,-0.441
1747607233.56,0.042,-0.065,-0.083,-1.227,0.141,-0.285,-75.292,21.910,-0.028
1747607233.57,0.052,-0.071,-0.042,-1.187,0.181,-0.304,-75.995,22.434,0.413
1747607233.58,0.075,-0.057,0.026,-1.097,0.058,-0.293,-76.664,22.880,0.799
1747607233.59,0.072,-0.036,-0.016,-1.070,-0.055,-0.279,-77.294,23.273,1.204
1747607233.60,0.046,-0.024,-0.065,-1.060,-0.141,-0.327,-77.921,23.612,1.607
1747607233.61,-0.003,-0.014,-0.083,-1.044,-0.204,-0.348,-78.549,23.807,1.912
1747607233.62,-0.061,-0.011,-0.110,-1.018,-0.137,-0.363,-79.170,23.986,2.197
1747607233.63,-0.077,0.004,-0.107,-0.969,-0.038,-0.394,-79.777,24.115,2.379
1747607233.64,-0.074,0.030,-0.067,-0.912,0.023,-0.393,-80.359,24.195,2.462
1747607233.65,-0.071,0.031,-0.047,-0.905,0.141,-0.390,-80.921,24.296,2.522
1747607233.66,-0.067,0.005,-0.044,-0.916,0.301,-0.377,-81.488,24.489,2.586
1747607233.67,-0.045,-0.037,-0.002,-0.881,0.347,-0.272,-82.033,25.006,2.917
1747607233.68,-0.040,-0.073,-0.009,-0.821,0.365,-0.218,-82.530,25.833,3.548
1747607233.69,-0.036,-0.077,-0.034,-0.788,0.411,-0.209,-82.995,26.803,4.302
1747607233.70,-0.014,-0.045,-0.031,-0.735,0.436,-0.211,-83.438,27.838,5.101
1747607233.71,0.013,-0.011,-0.028,-0.686,0.403,-0.220,-83.851,28.824,5.849
1747607233.72,0.033,0.010,-0.029,-0.691,0.324,-0.220,-84.255,29.811,6.634
1747607233.73,0.039,0.019,-0.025,-0.706,0.313,-0.269,-84.668,30.863,7.513
1747607233.74,0.037,0.006,-0.033,-0.692,0.326,-0.308,-85.098,31.784,8.250
1747607233.75,0.013,-0.010,0.007,-0.634,0.270,-0.301,-85.513,32.623,8.920
1747607233.76,0.010,-0.015,0.002,-0.568,0.212,-0.279,-85.890,33.402,9.564
1747607233.77,0.023,-0.001,-0.022,-0.519,0.195,-0.266,-86.234,34.140,10.188
1747607233.78,0.038,0.028,-0.016,-0.525,0.202,-0.242,-86.560,35.016,10.953
1747607233.79,0.040,0.043,0.010,-0.554,0.216,-0.213,-86.887,36.425,12.244
1747607233.80,0.035,0.032,0.035,-0.573,0.193,-0.183,-87.213,38.628,14.331
1747607233.81,0.011,-0.007,0.048,-0.526,0.214,-0.173,-87.519,41.483,17.075
1747607233.82,-0.015,-0.043,0.032,-0.460,0.247,-0.201,-87.797,44.373,19.834
1747607233.83,-0.033,-0.063,0.037,-0.435,0.193,-0.142,-88.045,47.664,23.001
1747607233.84,-0.072,-0.058,0.054,-0.427,0.158,-0.126,-88.261,52.153,27.393
1747607233.85,-0.100,-0.034,0.055,-0.406,0.184,-0.155,-88.463,57.417,32.563
1747607233.86,-0.097,0.007,0.025,-0.408,0.257,-0.168,-88.659,63.751,38.774
1747607233.87,-0.057,0.034,0.026,-0.415,0.309,-0.177,-88.840,72.188,47.051
1747607233.88,-0.023,0.036,0.046,-0.393,0.314,-0.179,-88.990,83.215,57.899
1747607233.89,0.005,0.013,0.040,-0.363,0.326,-0.169,-89.091,96.185,70.690
1747607233.90,0.048,-0.017,0.023,-0.411,0.282,-0.100,-89.106,111.260,85.587
1747607233.91,0.099,-0.022,0.036,-0.405,0.212,-0.121,-89.051,126.163,100.342
1747607233.92,0.118,-0.036,0.063,-0.382,0.018,-0.103,-88.949,138.246,112.358
1747607233.93,0.106,-0.046,0.048,-0.385,-0.231,-0.092,-88.808,147.118,121.293
1747607233.94,0.071,-0.037,0.020,-0.370,-0.383,-0.096,-88.645,153.894,128.252
1747607233.95,0.038,-0.023,-0.002,-0.334,-0.414,-0.105,-88.484,158.944,133.533
1747607233.96,0.044,-0.018,-0.014,-0.329,-0.427,-0.124,-88.328,163.102,137.933
1747607233.97,0.047,0.003,-0.022,-0.332,-0.453,-0.147,-88.165,166.876,141.960
1747607233.98,0.045,0.027,-0.032,-0.298,-0.422,-0.156,-88.005,170.238,145.575
1747607233.99,0.048,0.031,-0.042,-0.245,-0.404,-0.160,-87.864,173.130,148.705
1747607234.00,0.045,0.028,-0.048,-0.174,-0.422,-0.122,-87.752,175.329,151.141
1747607234.01,0.033,0.024,-0.047,-0.095,-0.421,-0.066,-87.679,176.566,152.618
1747607234.02,0.017,0.022,-0.035,-0.048,-0.469,-0.021,-87.641,176.935,153.241
1747607234.03,-0.025,0.022,-0.003,-0.052,-0.525,-0.001,-87.613,176.789,153.381
1747607234.04,-0.083,-0.003,0.014,-0.096,-0.493,-0.028,-87.573,176.766,153.651
1747607234.05,-0.119,-0.032,0.023,-0.126,-0.398,-0.046,-87.510,177.085,154.226
1747607234.06,-0.130,-0.031,0.039,-0.121,-0.240,-0.058,-87.440,177.645,154.971
1747607234.07,-0.126,-0.027,0.050,-0.053,-0.063,-0.075,-87.389,178.438,155.850
1747607234.08,-0.116,0.006,0.035,0.056,0.073,-0.072,-87.389,179.399,156.807
1747607234.09,-0.091,0.030,-0.006,0.133,0.165,-0.048,-87.446,-179.771,157.567
1747607234.10,-0.063,0.030,-0.014,0.086,0.163,-0.023,-87.513,-179.181,158.061
1747607234.11,-0.062,0.017,0.032,-0.004,0.152,-0.011,-87.534,-178.861,158.293
1747607234.12,-0.065,-0.004,0.068,-0.029,0.161,-0.019,-87.521,-178.587,158.478
1747607234.13,-0.041,-0.010,0.054,-0.020,0.163,-0.031,-87.505,-178.157,158.815
1747607234.14,-0.011,-0.003,0.027,-0.022,0.174,-0.023,-87.492,-177.692,159.184
1747607234.15,0.028,-0.006,0.031,-0.016,0.189,-0.013,-87.481,-177.352,159.421
1747607234.16,0.059,-0.024,0.053,-0.004,0.173,0.000,-87.475,-177.173,159.496
1747607234.17,0.073,-0.038,0.058,0.007,0.105,0.007,-87.475,-177.118,159.470
1747607234.18,0.071,-0.028,0.045,0.038,-0.022,0.007,-87.487,-177.121,159.442
1747607234.19,0.057,0.004,0.020,0.101,-0.147,0.002,-87.525,-177.140,159.472
1747607234.20,0.038,0.031,-0.000,0.148,-0.240,-0.020,-87.594,-176.976,159.748
1747607234.21,0.022,0.037,-0.009,0.151,-0.264,-0.027,-87.678,-176.637,160.234
1747607234.22,0.016,0.023,0.013,0.133,-0.217,-0.013,-87.758,-176.370,160.642
1747607234.23,0.021,0.002,0.035,0.102,-0.136,-0.011,-87.824,-176.254,160.860
1747607234.24,0.021,-0.014,0.049,0.092,-0.075,-0.015,-87.873,-176.166,161.008
1747607234.25,0.005,-0.016,0.047,0.117,-0.029,-0.023,-87.924,-175.992,161.211
1747607234.26,-0.019,-0.010,0.037,0.149,-0.025,-0.019,-87.993,-175.766,161.451
1747607234.26,-0.041,-0.003,0.038,0.185,-0.053,-0.006,-88.084,-175.599,161.641
1747607234.28,-0.059,0.008,0.037,0.228,-0.051,0.010,-88.202,-175.546,161.724
1747607234.28,-0.075,0.019,0.046,0.278,-0.056,0.020,-88.346,-175.560,161.740
1747607234.30,-0.088,0.016,0.051,0.316,-0.056,0.023,-88.516,-175.632,161.701
1747607234.30,-0.098,0.003,0.057,0.314,-0.050,0.028,-88.695,-175.813,161.551
1747607234.31,-0.099,-0.005,0.074,0.276,-0.028,0.033,-88.862,-176.205,161.183
1747607234.32,-0.091,-0.001,0.070,0.224,0.066,0.029,-89.000,-176.653,160.726
1747607234.33,-0.067,-0.016,0.079,0.190,0.154,0.040,-89.115,-177.342,159.973
1747607234.35,-0.031,-0.042,0.090,0.171,0.198,0.052,-89.213,-178.522,158.690
1747607234.35,0.001,-0.051,0.095,0.180,0.168,0.052,-89.307,179.782,156.887
1747607234.36,0.030,-0.038,0.087,0.214,0.082,0.042,-89.413,177.954,154.987
1747607234.37,0.057,-0.013,0.054,0.297,-0.032,0.032,-89.551,175.426,152.444
1747607234.38,0.082,0.018,0.016,0.416,-0.146,0.025,-89.746,169.671,146.740
1747607234.39,0.087,0.048,-0.022,0.535,-0.185,0.019,-89.951,71.924,49.089
1747607234.40,0.081,0.056,-0.034,0.612,-0.202,0.036,-89.645,11.103,-11.621
1747607234.41,0.065,0.035,-0.007,0.631,-0.243,0.066,-89.290,7.823,-14.775
1747607234.42,0.026,0.006,0.003,0.649,-0.304,0.089,-88.922,7.394,-15.049
1747607234.43,-0.021,-0.013,-0.003,0.660,-0.377,0.102,-88.543,7.463,-14.785
1747607234.44,-0.073,-0.001,-0.024,0.653,-0.373,0.096,-88.163,7.508,-14.521
1747607234.45,-0.124,0.001,-0.027,0.654,-0.202,0.084,-87.787,7.422,-14.439
1747607234.46,-0.139,-0.027,0.008,0.652,0.010,0.086,-87.409,7.359,-14.449
1747607234.47,-0.111,-0.050,0.029,0.650,0.142,0.097,-87.034,7.472,-14.384
1747607234.48,-0.067,-0.050,0.016,0.666,0.186,0.107,-86.655,7.717,-14.234
1747607234.49,-0.014,-0.029,-0.006,0.722,0.181,0.122,-86.255,8.005,-14.051
1747607234.50,0.044,0.001,-0.028,0.783,0.193,0.130,-85.817,8.250,-13.912
1747607234.51,0.099,0.022,-0.024,0.790,0.145,0.190,-85.357,8.628,-13.633
1747607234.52,0.139,0.036,0.005,0.748,-0.022,0.274,-84.903,9.407,-12.890
1747607234.53,0.125,0.037,0.021,0.759,-0.183,0.276,-84.454,10.253,-11.977
1747607234.54,0.024,0.014,0.015,0.813,-0.167,0.216,-83.986,10.713,-11.408
1747607234.55,-0.076,-0.026,0.028,0.824,-0.101,0.158,-83.504,10.790,-11.256
1747607234.56,-0.127,-0.062,0.044,0.791,-0.077,0.126,-83.035,10.684,-11.312
1747607234.57,-0.145,-0.072,0.004,0.763,-0.024,0.095,-82.588,10.503,-11.462
1747607234.58,-0.122,-0.060,-0.023,0.774,0.056,0.073,-82.150,10.280,-11.696
1747607234.59,-0.075,-0.036,-0.029,0.864,0.122,0.064,-81.685,10.018,-12.014
1747607234.60,-0.012,0.007,-0.038,0.952,0.108,0.094,-81.162,9.772,-12.334
1747607234.61,0.046,0.066,-0.043,0.965,0.052,0.148,-80.608,9.662,-12.597
1747607234.62,0.068,0.100,0.010,0.959,0.028,0.193,-80.051,9.708,-12.573
1747607234.63,0.034,0.081,0.094,0.959,-0.032,0.219,-79.492,9.843,-12.547
1747607234.64,-0.046,0.030,0.100,0.962,-0.179,0.221,-78.929,9.943,-12.385
1747607234.65,-0.140,-0.027,-0.000,0.951,-0.167,0.192,-78.369,9.944,-12.359
1747607234.66,-0.184,-0.076,-0.073,0.941,0.168,0.155,-77.820,9.959,-12.337
1747607234.67,-0.132,-0.108,0.009,0.935,0.425,0.143,-77.279,10.092,-12.482
1747607234.68,-0.051,-0.101,0.093,0.994,0.422,0.180,-76.723,10.305,-12.517
1747607234.69,-0.005,-0.054,0.029,1.054,0.354,0.258,-76.123,10.590,-12.547
1747607234.70,0.037,-0.001,-0.034,1.057,0.295,0.316,-75.499,10.972,-12.341
1747607234.71,0.069,0.061,-0.024,1.042,0.343,0.320,-74.875,11.392,-12.193
1747607234.72,0.076,0.109,0.017,0.999,0.392,0.283,-74.266,11.793,-11.999
1747607234.73,0.062,0.114,0.063,0.927,0.332,0.263,-73.698,12.132,-11.968
1747607234.74,0.006,0.059,0.089,0.930,0.290,0.276,-73.150,12.436,-11.834
1747607234.75,-0.037,-0.034,0.084,0.954,0.257,0.308,-72.588,12.739,-11.768
1747607234.76,-0.047,-0.106,0.066,0.979,0.217,0.329,-72.010,13.050,-11.583
1747607234.77,-0.056,-0.142,0.037,1.028,0.219,0.319,-71.410,13.325,-11.504
1747607234.78,-0.050,-0.124,-0.012,1.045,0.269,0.286,-70.792,13.556,-11.407
1747607234.79,-0.024,-0.054,-0.030,1.043,0.281,0.232,-70.177,13.722,-11.484
1747607234.80,0.003,0.028,-0.036,1.069,0.336,0.190,-69.565,13.826,-11.558
1747607234.81,-0.001,0.077,-0.059,1.088,0.396,0.170,-68.938,13.902,-11.787
1747607234.82,-0.024,0.080,-0.002,0.981,0.434,0.205,-68.334,14.032,-11.901
1747607234.83,-0.040,0.051,0.089,0.783,0.481,0.298,-67.809,14.334,-11.951
1747607234.84,-0.037,0.017,0.120,0.658,0.466,0.360,-67.369,14.800,-11.743
1747607234.85,-0.036,-0.007,0.104,0.670,0.321,0.409,-66.947,15.303,-11.532
1747607234.86,-0.011,-0.029,0.062,0.695,0.138,0.426,-66.507,15.726,-11.212
1747607234.87,0.059,-0.047,0.033,0.776,0.022,0.389,-66.042,16.025,-11.018
1747607234.88,0.138,-0.048,0.019,0.933,-0.152,0.338,-65.517,16.133,-10.862
1747607234.89,0.172,-0.022,-0.045,1.092,-0.300,0.283,-64.910,16.022,-10.919
1747607234.90,0.138,0.026,-0.095,1.145,-0.261,0.192,-64.255,15.760,-11.022
1747607234.91,0.045,0.075,-0.075,1.140,-0.039,0.118,-63.601,15.484,-11.317
1747607234.92,-0.073,0.100,0.029,1.062,0.117,0.097,-62.977,15.294,-11.562
1747607234.93,-0.206,0.099,0.067,0.985,0.177,0.104,-62.398,15.185,-11.869
1747607234.94,-0.309,0.063,-0.013,0.871,0.335,0.161,-61.866,15.199,-12.014
1747607234.95,-0.269,-0.022,-0.005,0.780,0.521,0.231,-61.385,15.418,-12.119
1747607234.96,-0.098,-0.095,0.076,0.816,0.507,0.287,-60.910,15.764,-12.072
1747607234.97,0.089,-0.122,0.048,0.909,0.267,0.318,-60.388,16.047,-12.088
1747607234.98,0.214,-0.100,-0.030,1.010,0.009,0.303,-59.813,16.160,-12.046
1747607234.99,0.285,-0.052,-0.067,1.127,-0.164,0.262,-59.181,16.086,-12.149
1747607235.00,0.281,-0.013,-0.064,1.183,-0.188,0.199,-58.507,15.890,-12.254
1747607235.01,0.199,0.007,-0.035,1.145,-0.102,0.129,-57.839,15.654,-12.501
1747607235.02,0.087,0.010,0.011,1.013,0.073,0.124,-57.223,15.489,-12.687
1747607235.03,-0.013,-0.010,0.098,0.838,0.147,0.170,-56.693,15.464,-12.881
1747607235.04,-0.089,-0.046,0.097,0.738,0.073,0.274,-56.227,15.530,-12.881
1747607235.05,-0.104,-0.083,-0.037,0.641,0.016,0.403,-55.797,15.674,-12.795
1747607235.06,-0.038,-0.107,-0.020,0.666,-0.004,0.497,-55.374,15.896,-12.533
1747607235.07,0.065,-0.100,0.085,0.828,-0.123,0.483,-54.887,16.091,-12.327
1747607235.08,0.130,-0.047,0.011,0.997,-0.326,0.360,-54.317,16.089,-12.173
1747607235.09,0.108,0.058,-0.076,1.185,-0.514,0.181,-53.677,15.809,-12.209
1747607235.10,0.019,0.136,-0.107,1.309,-0.489,0.018,-52.971,15.327,-12.443
1747607235.11,-0.061,0.180,-0.105,1.350,-0.269,-0.117,-52.245,14.810,-12.812
1747607235.12,-0.111,0.171,-0.018,1.337,0.105,-0.197,-51.522,14.398,-13.275
1747607235.13,-0.135,0.088,0.071,1.184,0.295,-0.168,-50.848,14.172,-13.727
1747607235.14,-0.144,-0.011,0.080,0.995,0.353,-0.008,-50.258,14.115,-14.050
1747607235.15,-0.134,-0.129,0.045,0.827,0.253,0.234,-49.739,14.211,-14.153
1747607235.16,-0.075,-0.216,-0.015,0.769,0.246,0.392,-49.257,14.425,-14.051
1747607235.17,0.046,-0.245,-0.005,0.813,0.260,0.437,-48.763,14.712,-13.868
1747607235.18,0.186,-0.196,0.056,0.935,0.127,0.396,-48.221,14.947,-13.710
1747607235.19,0.237,-0.090,0.026,1.041,-0.115,0.330,-47.620,15.012,-13.629
1747607235.20,0.202,0.027,-0.033,1.097,-0.263,0.223,-46.990,14.891,-13.636
1747607235.21,0.105,0.148,-0.024,1.145,-0.264,0.115,-46.346,14.661,-13.740
1747607235.22,0.010,0.213,0.019,1.138,-0.212,0.063,-45.699,14.401,-13.909
1747607235.23,-0.069,0.207,0.052,1.039,-0.143,0.054,-45.086,14.177,-14.083
1747607235.24,-0.124,0.145,0.023,0.918,-0.124,0.068,-44.536,14.000,-14.228
1747607235.25,-0.129,0.025,-0.035,0.826,-0.098,0.125,-44.043,13.867,-14.325
1747607235.26,-0.080,-0.069,-0.040,0.824,-0.049,0.217,-43.564,13.812,-14.348
1747607235.27,0.001,-0.104,0.024,0.876,-0.095,0.272,-43.060,13.794,-14.316
1747607235.28,0.044,-0.080,0.053,0.941,-0.135,0.263,-42.519,13.750,-14.281
1747607235.29,0.042,-0.011,0.020,1.007,-0.175,0.231,-41.944,13.668,-14.273
1747607235.30,0.037,0.053,0.021,1.090,-0.135,0.182,-41.334,13.552,-14.306
1747607235.31,0.034,0.090,0.059,1.107,0.001,0.139,-40.699,13.462,-14.385
1747607235.32,0.033,0.100,0.095,1.018,0.033,0.094,-40.091,13.410,-14.488
1747607235.33,-0.021,0.095,0.024,0.886,-0.031,0.092,-39.550,13.348,-14.586
1747607235.34,-0.070,0.058,-0.088,0.799,-0.016,0.125,-39.070,13.291,-14.651
1747607235.35,-0.057,0.009,-0.061,0.804,0.027,0.150,-38.610,13.271,-14.687
1747607235.36,-0.011,-0.033,0.011,0.858,-0.014,0.158,-38.127,13.262,-14.716
1747607235.37,0.010,-0.053,0.033,0.901,-0.063,0.154,-37.619,13.213,-14.753
1747607235.38,-0.020,-0.021,-0.002,0.941,-0.146,0.148,-37.089,13.129,-14.797
1747607235.39,-0.040,0.024,-0.030,1.044,-0.163,0.104,-36.520,12.997,-14.868
1747607235.40,-0.050,0.050,0.019,1.128,-0.110,0.044,-35.905,12.847,-14.989
1747607235.41,-0.054,0.071,0.113,1.165,-0.062,-0.006,-35.262,12.703,-15.156
1747607235.42,-0.036,0.058,0.115,1.117,-0.090,-0.060,-34.627,12.548,-15.353
1747607235.43,-0.057,0.028,-0.002,1.014,-0.088,-0.074,-34.041,12.380,-15.559
1747607235.44,-0.052,-0.024,-0.118,0.920,-0.100,-0.034,-33.509,12.226,-15.740
1747607235.45,-0.005,-0.091,-0.105,0.893,-0.069,0.056,-33.004,12.110,-15.864
1747607235.46,0.036,-0.135,-0.023,0.863,-0.045,0.152,-32.499,12.050,-15.917
1747607235.47,0.043,-0.118,0.054,0.857,-0.080,0.204,-31.999,12.015,-15.918
1747607235.48,-0.002,-0.039,0.060,0.882,-0.153,0.215,-31.489,11.960,-15.899
1747607235.49,-0.038,0.056,-0.011,0.920,-0.271,0.212,-30.961,11.848,-15.885
1747607235.50,-0.019,0.119,-0.064,0.994,-0.395,0.197,-30.404,11.660,-15.880
1747607235.51,0.028,0.151,-0.014,1.110,-0.386,0.150,-29.795,11.418,-15.905
1747607235.52,0.069,0.151,0.141,1.155,-0.258,0.028,-29.146,11.190,-15.992
1747607235.53,0.117,0.107,0.080,1.088,-0.220,-0.135,-28.519,10.978,-16.168
1747607235.54,0.092,0.001,-0.162,0.962,-0.413,-0.143,-27.960,10.694,-16.392
1747607235.55,-0.024,-0.124,-0.254,0.846,-0.453,0.090,-27.459,10.374,-16.523
1747607235.56,-0.041,-0.245,-0.040,0.787,-0.246,0.369,-26.978,10.196,-16.467
1747607235.57,0.072,-0.325,0.160,0.785,-0.059,0.411,-26.497,10.191,-16.299
1747607235.58,0.146,-0.282,0.143,0.825,-0.053,0.306,-26.009,10.227,-16.164
1747607235.59,0.107,-0.090,0.112,0.902,-0.246,0.256,-25.498,10.179,-16.090
1747607235.60,0.088,0.056,0.055,0.946,-0.399,0.294,-24.949,10.015,-16.023
1747607235.61,0.120,0.074,0.029,0.992,-0.377,0.304,-24.374,9.827,-15.941
1747607235.62,0.172,0.063,0.067,0.997,-0.310,0.264,-23.785,9.660,-15.868
1747607235.63,0.151,0.033,0.042,0.941,-0.319,0.203,-23.217,9.498,-15.828
1747607235.64,0.051,0.000,-0.028,0.885,-0.309,0.261,-22.680,9.331,-15.783
1747607235.65,-0.039,-0.019,-0.112,0.801,-0.245,0.380,-22.175,9.216,-15.671
1747607235.66,-0.054,-0.033,-0.090,0.744,-0.198,0.439,-21.704,9.157,-15.495
1747607235.67,-0.057,0.003,-0.007,0.751,-0.163,0.438,-21.244,9.126,-15.300
1747607235.68,-0.025,0.070,0.048,0.800,-0.152,0.382,-20.771,9.101,-15.125
1747607235.69,0.022,0.127,0.038,0.879,-0.198,0.303,-20.267,9.047,-15.000
1747607235.70,0.019,0.141,0.012,0.938,-0.285,0.258,-19.729,8.937,-14.919
1747607235.71,-0.010,0.124,0.000,0.996,-0.357,0.223,-19.163,8.768,-14.865
1747607235.72,-0.059,0.098,0.008,1.025,-0.282,0.199,-18.572,8.591,-14.833
1747607235.73,-0.095,0.060,0.038,0.966,-0.207,0.158,-17.992,8.459,-14.814
1747607235.74,-0.109,0.037,-0.013,0.909,-0.212,0.106,-17.453,8.340,-14.817
1747607235.75,-0.137,0.037,-0.160,0.895,-0.247,0.082,-16.935,8.202,-14.841
1747607235.76,-0.154,0.038,-0.172,0.890,-0.228,0.079,-16.424,8.057,-14.868
1747607235.77,-0.136,0.042,-0.065,0.914,-0.235,0.023,-15.911,7.915,-14.910
1747607235.78,-0.086,0.082,-0.008,0.955,-0.274,-0.046,-15.383,7.746,-14.994
1747607235.79,-0.047,0.143,0.034,0.986,-0.269,-0.050,-14.837,7.562,-15.102
1747607235.80,-0.002,0.149,0.108,1.036,-0.238,-0.021,-14.267,7.391,-15.201
1747607235.81,0.011,0.124,0.121,1.049,-0.162,-0.006,-13.677,7.254,-15.287
1747607235.82,-0.019,0.087,0.085,1.019,-0.015,0.001,-13.092,7.183,-15.365
1747607235.83,-0.042,0.036,0.021,1.005,0.111,-0.003,-12.519,7.198,-15.440
1747607235.84,-0.045,-0.038,-0.025,0.976,0.182,0.014,-11.957,7.268,-15.510
1747607235.85,-0.024,-0.096,-0.063,0.918,0.199,0.028,-11.418,7.369,-15.567
1747607235.86,0.042,-0.113,-0.089,0.854,0.122,0.077,-10.913,7.457,-15.610
1747607235.87,0.100,-0.089,-0.113,0.853,0.024,-0.015,-10.430,7.494,-15.655
1747607235.88,0.117,-0.046,-0.056,0.850,-0.116,0.010,-9.947,7.455,-15.725
1747607235.89,0.112,0.028,0.015,0.844,-0.243,0.029,-9.467,7.343,-15.774
1747607235.90,0.055,0.086,0.025,0.899,-0.292,-0.004,-8.974,7.177,-15.830
1747607235.91,-0.024,0.149,0.052,0.943,-0.252,-0.028,-8.451,7.008,-15.906
1747607235.92,-0.056,0.140,0.061,0.973,-0.202,-0.058,-7.911,6.864,-15.998
1747607235.93,-0.078,0.075,0.039,0.994,-0.126,-0.040,-7.353,6.757,-16.097
1747607235.94,-0.056,0.013,0.033,0.951,-0.053,-0.015,-6.801,6.695,-16.168
1747607235.95,-0.019,-0.055,-0.021,0.946,-0.012,-0.077,-6.267,6.670,-16.264
1747607235.96,0.044,-0.087,-0.082,0.888,-0.074,0.023,-5.748,6.640,-16.347
1747607235.97,0.076,-0.081,-0.097,0.870,-0.109,0.008,-5.252,6.582,-16.387
1747607235.98,0.068,-0.018,-0.064,0.897,-0.126,0.024,-4.749,6.510,-16.439
1747607235.99,0.069,0.082,-0.005,0.911,-0.134,0.055,-4.234,6.434,-16.474
1747607236.00,0.027,0.136,0.044,0.938,-0.154,0.041,-3.707,6.349,-16.505
1747607236.01,-0.037,0.159,0.065,0.965,-0.133,0.039,-3.166,6.261,-16.543
1747607236.02,-0.072,0.129,0.069,0.987,-0.059,0.025,-2.609,6.203,-16.584
1747607236.03,-0.075,0.063,0.067,0.944,0.011,-0.016,-2.057,6.186,-16.642
1747607236.04,-0.067,-0.017,-0.022,0.904,0.022,0.021,-1.534,6.197,-16.702
1747607236.05,-0.036,-0.120,-0.110,0.880,0.039,-0.051,-1.030,6.214,-16.762
1747607236.06,-0.018,-0.196,-0.096,0.868,0.059,-0.052,-0.537,6.243,-16.849
1747607236.07,0.059,-0.141,-0.032,0.854,0.005,-0.019,-0.051,6.263,-16.925
1747607236.08,0.093,-0.055,-0.022,0.865,-0.046,-0.017,0.434,6.247,-16.977
1747607236.09,0.074,0.035,0.004,0.894,-0.050,-0.020,0.933,6.221,-17.016
1747607236.10,0.075,0.095,0.036,0.902,-0.095,0.057,1.443,6.182,-17.061
1747607236.11,0.047,0.103,0.036,0.921,-0.125,0.103,1.966,6.119,-17.013
1747607236.12,-0.022,0.140,0.034,0.909,-0.083,0.088,2.493,6.056,-17.013
1747607236.13,-0.052,0.147,0.005,0.909,-0.009,0.035,3.012,6.030,-16.983
1747607236.14,-0.024,0.062,-0.033,0.888,0.015,-0.012,3.525,6.038,-17.032
1747607236.15,0.021,-0.035,-0.066,0.847,-0.054,-0.023,4.016,6.034,-17.052
1747607236.16,0.046,-0.102,-0.096,0.828,-0.126,-0.008,4.491,5.986,-17.111
1747607236.17,0.044,-0.130,-0.098,0.793,-0.135,0.005,4.952,5.913,-17.127
1747607236.18,0.031,-0.119,-0.066,0.775,-0.126,0.036,5.397,5.842,-17.160
1747607236.19,0.016,-0.062,-0.037,0.790,-0.095,0.091,5.844,5.778,-17.128
1747607236.20,-0.027,0.002,-0.022,0.789,-0.020,0.122,6.301,5.743,-17.112
1747607236.21,-0.056,0.051,-0.009,0.783,0.017,0.154,6.753,5.741,-17.047
1747607236.22,-0.036,0.095,-0.026,0.812,0.018,0.154,7.216,5.746,-17.002
1747607236.23,-0.017,0.147,-0.031,0.795,0.034,0.107,7.682,5.760,-16.928
1747607236.24,-0.001,0.151,-0.055,0.773,-0.012,0.072,8.131,5.768,-16.925
1747607236.25,0.011,0.093,-0.138,0.754,-0.090,0.063,8.570,5.738,-16.894
1747607236.26,-0.004,0.045,-0.150,0.710,-0.127,0.046,8.989,5.676,-16.906
1747607236.27,-0.028,0.013,-0.102,0.672,-0.229,0.097,9.385,5.578,-16.867
1747607236.28,-0.059,-0.017,-0.095,0.653,-0.256,-0.082,9.760,5.441,-16.883
1747607236.29,-0.071,-0.000,-0.062,0.645,-0.237,-0.206,10.122,5.323,-16.958
1747607236.30,0.010,0.045,-0.019,0.634,-0.261,-0.218,10.473,5.210,-17.117
1747607236.31,0.051,0.000,-0.067,0.621,-0.322,-0.177,10.820,5.071,-17.218
1747607236.32,0.057,0.004,-0.087,0.595,-0.338,-0.140,11.159,4.903,-17.340
1747607236.33,0.053,0.014,-0.082,0.590,-0.304,-0.104,11.490,4.738,-17.384
1747607236.34,0.022,0.045,-0.062,0.569,-0.209,-0.073,11.818,4.603,-17.462
1747607236.35,-0.015,0.061,-0.045,0.538,-0.102,-0.054,12.130,4.528,-17.478
1747607236.36,0.003,0.034,-0.041,0.516,-0.028,-0.000,12.427,4.501,-17.518
1747607236.37,0.015,-0.016,-0.059,0.501,0.007,0.033,12.718,4.500,-17.473
1747607236.38,0.017,-0.049,-0.056,0.485,-0.022,0.034,12.998,4.497,-17.476
1747607236.39,0.021,-0.035,-0.061,0.461,-0.021,0.013,13.268,4.485,-17.408
1747607236.40,0.029,-0.063,-0.041,0.443,-0.013,-0.012,13.525,4.480,-17.429
1747607236.41,0.043,-0.058,-0.003,0.428,-0.045,0.002,13.772,4.472,-17.378
1747607236.42,0.054,-0.037,-0.010,0.435,-0.100,0.017,14.018,4.431,-17.392
1747607236.43,0.041,0.011,-0.038,0.428,-0.109,0.035,14.266,4.372,-17.324
1747607236.44,0.027,0.044,-0.043,0.405,-0.087,0.051,14.504,4.313,-17.317
1747607236.45,0.014,0.040,-0.062,0.377,-0.037,0.062,14.731,4.273,-17.225
1747607236.46,0.005,0.014,-0.052,0.332,0.006,0.066,14.935,4.259,-17.203
1747607236.47,0.002,-0.032,-0.039,0.316,0.037,0.074,15.122,4.266,-17.108
1747607236.48,0.027,-0.071,-0.031,0.308,0.045,0.104,15.304,4.281,-17.070
1747607236.49,0.067,-0.073,-0.012,0.300,0.026,0.134,15.482,4.287,-16.939
1747607236.50,0.085,-0.039,-0.000,0.293,0.025,0.156,15.656,4.282,-16.867
1747607236.51,0.066,0.006,-0.012,0.292,0.059,0.155,15.830,4.284,-16.709
1747607236.52,0.049,0.019,-0.024,0.267,0.078,0.143,15.996,4.303,-16.633
1747607236.53,0.019,0.024,-0.042,0.262,0.096,0.146,16.152,4.333,-16.496
1747607236.54,-0.016,0.029,-0.069,0.238,0.111,0.147,16.302,4.371,-16.420
1747607236.55,-0.041,0.040,-0.082,0.215,0.108,0.139,16.436,4.413,-16.281
1747607236.56,-0.047,0.038,-0.096,0.191,0.082,0.107,16.557,4.450,-16.216
1747607236.57,-0.024,0.016,-0.090,0.179,0.042,0.062,16.666,4.476,-16.122
1747607236.58,0.009,0.008,-0.072,0.177,-0.019,0.016,16.768,4.478,-16.109
1747607236.59,0.024,0.003,-0.071,0.170,-0.080,-0.017,16.867,4.452,-16.058
1747607236.60,0.011,-0.001,-0.060,0.177,-0.081,-0.053,16.964,4.412,-16.087
1747607236.61,-0.005,0.011,-0.045,0.168,-0.063,-0.081,17.060,4.386,-16.069
1747607236.62,-0.023,0.032,-0.037,0.157,-0.052,-0.075,17.148,4.370,-16.123
1747607236.63,-0.031,0.032,-0.052,0.148,-0.020,-0.055,17.233,4.363,-16.108
1747607236.64,-0.017,0.014,-0.042,0.131,-0.006,-0.050,17.304,4.365,-16.146
1747607236.65,0.007,0.005,-0.034,0.128,0.003,-0.060,17.370,4.372,-16.126
1747607236.66,0.027,0.001,-0.040,0.159,0.046,-0.056,17.447,4.398,-16.168
1747607236.67,0.041,-0.002,-0.034,0.158,0.098,-0.047,17.534,4.454,-16.157
1747607236.68,0.039,-0.007,-0.015,0.125,0.118,-0.047,17.611,4.527,-16.191
1747607236.69,0.022,-0.016,-0.028,0.115,0.133,-0.038,17.675,4.606,-16.170
1747607236.70,0.007,-0.035,-0.038,0.106,0.147,-0.031,17.734,4.692,-16.194
1747607236.71,0.002,-0.035,-0.019,0.080,0.132,-0.030,17.781,4.776,-16.159
1747607236.72,0.010,-0.006,-0.022,0.063,0.106,-0.018,17.816,4.848,-16.177
1747607236.73,0.028,-0.000,-0.045,0.041,0.089,-0.001,17.844,4.906,-16.137
1747607236.74,0.049,-0.013,-0.050,0.006,0.074,0.017,17.856,4.954,-16.134
1747607236.75,0.057,-0.028,-0.064,-0.014,0.069,0.045,17.853,4.991,-16.067
1747607236.76,0.044,-0.050,-0.066,-0.041,0.137,0.058,17.841,5.042,-16.034
1747607236.77,0.026,-0.045,-0.053,-0.092,0.194,0.036,17.806,5.129,-15.956
1747607236.78,0.014,-0.040,-0.051,-0.119,0.191,0.019,17.749,5.233,-15.935
1747607236.79,-0.006,-0.059,-0.056,-0.151,0.185,0.035,17.677,5.333,-15.867
1747607236.80,-0.017,-0.063,-0.042,-0.192,0.142,0.045,17.581,5.417,-15.832
1747607236.81,-0.011,-0.021,-0.050,-0.243,0.095,0.032,17.459,5.473,-15.744
1747607236.82,-0.024,-0.002,-0.074,-0.300,0.097,0.000,17.305,5.521,-15.719
1747607236.83,-0.013,-0.042,-0.083,-0.314,0.127,-0.019,17.129,5.583,-15.658
1747607236.84,0.015,-0.080,-0.076,-0.342,0.169,-0.049,16.945,5.669,-15.658
1747607236.85,0.044,-0.068,-0.064,-0.399,0.187,-0.071,16.732,5.777,-15.633
1747607236.86,0.051,-0.060,-0.096,-0.447,0.206,-0.065,16.489,5.893,-15.648
1747607236.87,0.026,-0.067,-0.125,-0.498,0.241,-0.062,16.219,6.022,-15.611
1747607236.88,-0.027,-0.048,-0.138,-0.588,0.290,-0.058,15.910,6.173,-15.612
1747607236.89,-0.060,-0.042,-0.159,-0.694,0.292,-0.036,15.543,6.338,-15.541
1747607236.90,-0.045,-0.064,-0.173,-0.759,0.255,-0.013,15.128,6.486,-15.508
1747607236.91,0.006,-0.078,-0.185,-0.836,0.182,0.008,14.675,6.599,-15.400
1747607236.92,0.057,-0.071,-0.170,-0.880,0.105,0.026,14.188,6.662,-15.330
1747607236.93,0.074,-0.071,-0.150,-0.906,0.086,0.005,13.684,6.698,-15.204
1747607236.94,0.064,-0.079,-0.108,-0.976,0.080,-0.026,13.150,6.734,-15.147
1747607236.95,0.047,-0.086,-0.102,-1.036,0.025,-0.010,12.577,6.753,-15.033
1747607236.96,0.030,-0.102,-0.153,-1.080,-0.019,-0.001,11.978,6.739,-14.964
1747607236.97,-0.010,-0.099,-0.147,-1.129,-0.005,0.003,11.352,6.715,-14.825
1747607236.98,-0.028,-0.065,-0.110,-1.169,0.004,-0.006,10.700,6.701,-14.748
1747607236.99,-0.035,-0.026,-0.130,-1.203,-0.018,-0.016,10.026,6.683,-14.608
1747607237.00,-0.061,-0.009,-0.101,-1.235,0.012,-0.018,9.332,6.668,-14.535
1747607237.01,-0.064,-0.018,-0.046,-1.270,0.049,-0.024,8.621,6.676,-14.405
1747607237.02,-0.044,-0.044,-0.044,-1.276,0.048,-0.027,7.896,6.694,-14.333
1747607237.03,-0.030,-0.067,-0.055,-1.280,0.076,-0.022,7.172,6.719,-14.205
1747607237.04,-0.011,-0.075,-0.045,-1.317,0.093,-0.029,6.435,6.760,-14.131
1747607237.05,0.016,-0.066,-0.077,-1.329,0.061,-0.039,5.681,6.798,-14.006
1747607237.06,0.017,-0.061,-0.095,-1.369,0.024,-0.022,4.916,6.816,-13.894
1747607237.07,-0.004,-0.056,-0.042,-1.430,-0.005,0.024,4.121,6.812,-13.799
1747607237.08,0.009,-0.066,-0.042,-1.453,0.019,0.064,3.306,6.807,-13.632
1747607237.09,0.042,-0.093,-0.051,-1.432,0.090,0.079,2.493,6.829,-13.494
1747607237.10,0.052,-0.108,-0.023,-1.424,0.159,0.104,1.690,6.896,-13.316
1747607237.11,0.034,-0.116,-0.001,-1.417,0.175,0.090,0.891,6.990,-13.160
1747607237.12,0.006,-0.104,0.012,-1.370,0.186,0.027,0.106,7.089,-13.001
1747607237.13,-0.017,-0.070,0.022,-1.380,0.172,-0.025,-0.672,7.194,-12.904
1747607237.14,-0.036,-0.042,0.034,-1.416,0.109,-0.016,-1.467,7.276,-12.800
1747607237.15,-0.047,-0.027,-0.000,-1.439,0.098,0.049,-2.275,7.335,-12.688
1747607237.16,-0.020,-0.021,-0.014,-1.466,0.174,0.096,-3.091,7.418,-12.515
1747607237.17,0.036,-0.015,-0.005,-1.482,0.255,0.110,-3.919,7.552,-12.345
1747607237.18,0.069,-0.015,-0.020,-1.486,0.271,0.108,-4.751,7.717,-12.144
1747607237.19,0.061,-0.032,-0.000,-1.497,0.280,0.095,-5.588,7.890,-11.968
1747607237.20,0.038,-0.060,0.058,-1.476,0.287,0.054,-6.424,8.069,-11.784
1747607237.21,0.017,-0.092,0.045,-1.404,0.306,0.023,-7.236,8.252,-11.646
1747607237.22,-0.016,-0.124,0.028,-1.371,0.353,-0.011,-8.018,8.455,-11.500
1747607237.23,-0.056,-0.129,-0.009,-1.352,0.442,-0.047,-8.788,8.698,-11.399
1747607237.24,-0.100,-0.108,-0.046,-1.390,0.483,-0.088,-9.566,8.977,-11.311
1747607237.25,-0.130,-0.083,-0.025,-1.421,0.457,-0.098,-10.368,9.261,-11.236
1747607237.26,-0.156,-0.056,-0.041,-1.435,0.424,-0.109,-11.183,9.525,-11.153
1747607237.27,-0.163,-0.030,-0.023,-1.424,0.486,-0.156,-12.002,9.795,-11.089
1747607237.28,-0.124,-0.010,0.038,-1.410,0.550,-0.227,-12.817,10.100,-11.049
1747607237.29,-0.076,-0.004,0.048,-1.424,0.571,-0.280,-13.638,10.420,-11.050
1747607237.30,-0.038,-0.006,0.023,-1.423,0.611,-0.289,-14.469,10.754,-11.049
1747607237.31,0.014,-0.016,0.012,-1.398,0.630,-0.290,-15.290,11.106,-11.059
1747607237.32,0.052,-0.036,-0.024,-1.426,0.581,-0.281,-16.112,11.455,-11.054
1747607237.33,0.036,-0.054,-0.066,-1.465,0.493,-0.238,-16.950,11.766,-11.032
1747607237.34,-0.010,-0.065,-0.045,-1.503,0.510,-0.213,-17.807,12.063,-10.986
1747607237.35,-0.030,-0.064,0.028,-1.511,0.576,-0.211,-18.675,12.396,-10.918
1747607237.36,-0.027,-0.050,0.038,-1.528,0.552,-0.225,-19.548,12.743,-10.870
1747607237.37,-0.032,-0.018,-0.028,-1.532,0.530,-0.256,-20.431,13.075,-10.804
1747607237.38,-0.018,0.007,-0.052,-1.545,0.498,-0.284,-21.321,13.387,-10.776
1747607237.38,0.025,0.013,-0.031,-1.557,0.455,-0.305,-22.222,13.679,-10.729
1747607237.40,0.068,0.004,0.001,-1.544,0.358,-0.323,-23.126,13.929,-10.721
1747607237.40,0.084,-0.000,0.046,-1.510,0.254,-0.324,-24.018,14.115,-10.687
1747607237.42,0.075,-0.005,0.075,-1.462,0.249,-0.303,-24.884,14.272,-10.675
1747607237.42,0.064,-0.015,0.079,-1.489,0.299,-0.261,-25.740,14.451,-10.617
1747607237.44,0.049,-0.024,0.013,-1.526,0.382,-0.229,-26.607,14.685,-10.561
1747607237.45,0.032,-0.030,-0.054,-1.558,0.461,-0.232,-27.492,14.977,-10.448
1747607237.45,0.008,-0.028,-0.056,-1.590,0.508,-0.245,-28.395,15.309,-10.355
1747607237.46,0.005,-0.032,-0.028,-1.626,0.489,-0.231,-29.317,15.659,-10.225
1747607237.47,0.028,-0.049,-0.038,-1.650,0.395,-0.218,-30.252,15.989,-10.095
1747607237.48,0.048,-0.070,-0.059,-1.645,0.325,-0.200,-31.190,16.280,-9.925
1747607237.49,0.066,-0.089,0.015,-1.579,0.284,-0.176,-32.104,16.552,-9.762
1747607237.50,0.109,-0.101,0.063,-1.559,0.234,-0.198,-32.990,16.797,-9.582
1747607237.51,0.085,-0.091,0.010,-1.604,0.154,-0.209,-33.887,17.009,-9.463
1747607237.52,0.055,-0.092,-0.021,-1.639,0.088,-0.242,-34.812,17.177,-9.282
1747607237.53,0.005,-0.098,-0.030,-1.631,0.082,-0.262,-35.747,17.321,-9.179
1747607237.54,-0.014,-0.117,-0.011,-1.660,0.097,-0.247,-36.686,17.476,-9.004
1747607237.55,0.003,-0.128,-0.000,-1.699,0.032,-0.205,-37.640,17.642,-8.861
1747607237.56,0.022,-0.120,-0.006,-1.731,-0.075,-0.147,-38.603,17.786,-8.605
1747607237.57,0.037,-0.096,-0.020,-1.758,-0.093,-0.098,-39.575,17.930,-8.355
1747607237.58,0.070,-0.059,-0.000,-1.741,-0.122,-0.082,-40.543,18.092,-8.011
1747607237.59,0.084,-0.015,-0.002,-1.699,-0.205,-0.091,-41.490,18.225,-7.724
1747607237.60,0.070,0.029,-0.042,-1.695,-0.273,-0.128,-42.430,18.309,-7.393
1747607237.61,0.036,0.049,-0.019,-1.668,-0.293,-0.182,-43.369,18.345,-7.150
1747607237.62,-0.001,0.040,0.014,-1.596,-0.260,-0.247,-44.293,18.358,-6.905
1747607237.63,-0.042,0.009,0.029,-1.538,-0.257,-0.288,-45.189,18.343,-6.782
1747607237.64,-0.091,-0.031,0.004,-1.559,-0.216,-0.317,-46.080,18.320,-6.623
1747607237.65,-0.106,-0.076,-0.009,-1.620,-0.166,-0.288,-46.997,18.339,-6.510
1747607237.66,-0.071,-0.107,-0.029,-1.659,-0.129,-0.265,-47.936,18.416,-6.295
1747607237.67,-0.023,-0.118,-0.031,-1.667,-0.140,-0.250,-48.885,18.521,-6.113
1747607237.68,0.021,-0.106,0.032,-1.637,-0.141,-0.238,-49.825,18.635,-5.858
1747607237.69,0.068,-0.059,0.042,-1.600,-0.204,-0.226,-50.743,18.747,-5.609
1747607237.70,0.078,0.016,0.032,-1.587,-0.321,-0.226,-51.645,18.811,-5.334
1747607237.71,0.041,0.087,0.031,-1.562,-0.343,-0.242,-52.541,18.828,-5.068
1747607237.72,0.002,0.129,0.034,-1.515,-0.327,-0.275,-53.418,18.829,-4.828
1747607237.73,-0.025,0.126,0.022,-1.490,-0.339,-0.316,-54.285,18.797,-4.631
1747607237.74,-0.048,0.086,0.012,-1.453,-0.302,-0.337,-55.141,18.745,-4.469
1747607237.75,-0.048,0.027,-0.004,-1.432,-0.240,-0.381,-55.986,18.691,-4.348
1747607237.76,-0.041,-0.028,-0.005,-1.446,-0.202,-0.388,-56.835,18.648,-4.250
1747607237.77,-0.052,-0.063,0.036,-1.473,-0.161,-0.380,-57.696,18.634,-4.142
1747607237.78,-0.066,-0.082,0.074,-1.439,-0.104,-0.376,-58.555,18.657,-4.027
1747607237.79,-0.062,-0.083,0.063,-1.400,-0.106,-0.392,-59.393,18.680,-3.934
1747607237.80,-0.053,-0.069,0.040,-1.398,-0.130,-0.335,-60.216,18.712,-3.817
1747607237.81,-0.037,-0.045,0.022,-1.412,-0.124,-0.289,-61.033,18.800,-3.632
1747607237.82,-0.017,-0.016,0.010,-1.439,-0.076,-0.288,-61.856,18.942,-3.403
1747607237.83,-0.010,0.018,0.014,-1.450,-0.014,-0.328,-62.694,19.117,-3.177
1747607237.84,-0.020,0.038,0.044,-1.394,-0.019,-0.417,-63.533,19.242,-3.029
1747607237.85,-0.037,0.040,0.036,-1.336,-0.069,-0.419,-64.349,19.278,-2.961
1747607237.86,-0.041,0.020,-0.013,-1.285,-0.032,-0.417,-65.133,19.293,-2.908
1747607237.87,-0.030,-0.015,-0.021,-1.266,0.052,-0.445,-65.900,19.320,-2.886
1747607237.88,-0.023,-0.048,0.002,-1.292,0.067,-0.463,-66.674,19.341,-2.904
1747607237.89,-0.031,-0.075,-0.029,-1.334,0.078,-0.432,-67.467,19.397,-2.885
1747607237.90,-0.024,-0.089,-0.039,-1.359,0.124,-0.408,-68.272,19.530,-2.804
1747607237.91,0.009,-0.077,0.033,-1.346,0.131,-0.381,-69.077,19.728,-2.671
1747607237.92,0.053,-0.036,0.056,-1.326,0.079,-0.388,-69.868,19.935,-2.518
1747607237.93,0.091,0.006,0.043,-1.300,-0.043,-0.356,-70.648,20.103,-2.350
1747607237.94,0.115,0.030,0.018,-1.222,-0.137,-0.322,-71.391,20.249,-2.140
1747607237.95,0.126,0.021,-0.025,-1.194,-0.200,-0.304,-72.095,20.370,-1.910
1747607237.96,0.110,0.001,-0.034,-1.280,-0.216,-0.335,-72.819,20.478,-1.673
1747607237.97,0.056,-0.013,-0.026,-1.349,-0.229,-0.339,-73.593,20.625,-1.385
1747607237.98,-0.021,-0.031,-0.032,-1.307,-0.204,-0.329,-74.373,20.820,-1.053
1747607237.99,-0.077,-0.055,-0.077,-1.247,-0.086,-0.359,-75.123,21.018,-0.758
1747607238.00,-0.104,-0.073,-0.075,-1.205,0.077,-0.386,-75.853,21.222,-0.545
1747607238.01,-0.095,-0.071,0.005,-1.159,0.167,-0.395,-76.563,21.454,-0.382
1747607238.02,-0.078,-0.043,0.034,-1.181,0.143,-0.369,-77.262,21.721,-0.200
1747607238.03,-0.069,-0.011,0.019,-1.221,0.147,-0.350,-77.977,22.108,0.110
1747607238.04,-0.051,0.016,0.038,-1.206,0.154,-0.326,-78.694,22.607,0.533
1747607238.05,-0.022,0.037,0.049,-1.157,0.146,-0.312,-79.387,23.202,1.050
1747607238.06,0.002,0.022,0.043,-1.089,0.103,-0.277,-80.043,23.826,1.614
1747607238.07,0.024,-0.024,-0.002,-1.019,0.105,-0.259,-80.655,24.521,2.260
1747607238.08,0.031,-0.069,-0.038,-0.959,0.129,-0.268,-81.230,25.217,2.899
1747607238.09,0.024,-0.057,-0.065,-0.996,0.140,-0.307,-81.800,25.891,3.499
1747607238.10,0.013,-0.009,-0.043,-1.097,0.109,-0.299,-82.414,26.756,4.302
1747607238.11,-0.026,0.030,0.016,-1.104,0.142,-0.309,-83.055,27.906,5.390
1747607238.12,-0.051,0.023,0.040,-1.035,0.200,-0.333,-83.680,29.121,6.516
1747607238.13,-0.052,-0.022,0.024,-0.980,0.254,-0.328,-84.272,30.400,7.668
1747607238.14,-0.031,-0.073,0.029,-0.956,0.206,-0.310,-84.840,31.884,9.026
1747607238.15,-0.005,-0.091,-0.000,-0.949,0.184,-0.299,-85.393,33.684,10.723
1747607238.16,0.034,-0.072,-0.030,-0.880,0.214,-0.223,-85.908,36.142,13.076
1747607238.17,0.071,-0.021,-0.050,-0.754,0.252,-0.197,-86.351,39.107,15.912
1747607238.18,0.078,0.026,-0.075,-0.684,0.271,-0.203,-86.735,42.212,18.873
1747607238.19,0.052,0.050,-0.075,-0.681,0.293,-0.212,-87.098,45.787,22.292
1747607238.20,0.009,0.033,-0.029,-0.658,0.253,-0.228,-87.448,50.172,26.524
1747607238.21,-0.042,-0.016,-0.034,-0.578,0.269,-0.238,-87.770,55.124,31.336
1747607238.22,-0.062,-0.053,-0.073,-0.515,0.347,-0.243,-88.052,60.476,36.514
1747607238.23,-0.048,-0.038,-0.055,-0.510,0.360,-0.229,-88.303,67.060,42.897
1747607238.24,-0.050,-0.003,-0.018,-0.509,0.380,-0.216,-88.516,75.763,51.393
1747607238.25,-0.047,0.007,-0.002,-0.494,0.401,-0.201,-88.678,86.869,62.277
1747607238.26,-0.019,-0.014,0.020,-0.491,0.388,-0.155,-88.765,99.923,75.111
1747607238.27,0.018,-0.039,0.023,-0.500,0.403,-0.108,-88.754,113.692,88.659
1747607238.28,0.050,-0.035,0.043,-0.479,0.411,-0.104,-88.664,126.044,100.777
1747607238.29,0.053,-0.005,0.029,-0.443,0.328,-0.112,-88.539,136.239,110.762
1747607238.30,0.031,0.018,-0.018,-0.390,0.279,-0.090,-88.393,143.753,118.106
1747607238.31,0.036,0.032,-0.025,-0.345,0.229,-0.086,-88.245,149.252,123.462
1747607238.32,0.049,0.033,0.001,-0.316,0.133,-0.087,-88.104,153.535,127.639
1747607238.33,0.051,0.017,0.032,-0.321,-0.069,-0.097,-87.961,157.103,131.189
1747607238.34,0.041,-0.007,0.026,-0.332,-0.241,-0.138,-87.810,160.542,134.724
1747607238.35,0.023,-0.020,0.009,-0.315,-0.303,-0.200,-87.662,164.098,138.442
1747607238.36,0.015,-0.028,0.019,-0.292,-0.322,-0.192,-87.521,167.545,142.072
1747607238.37,0.015,-0.047,0.030,-0.295,-0.264,-0.206,-87.381,170.564,145.265
1747607238.38,0.013,-0.093,0.025,-0.307,-0.177,-0.248,-87.228,173.654,148.483
1747607238.39,-0.011,-0.070,0.031,-0.268,-0.092,-0.294,-87.076,176.945,151.855
1747607238.40,-0.057,-0.116,0.003,-0.293,-0.019,-0.272,-86.924,-179.871,155.074
1747607238.41,-0.090,-0.142,0.019,-0.370,0.034,-0.207,-86.733,-177.477,157.465
1747607238.42,-0.099,-0.068,0.060,-0.394,0.014,-0.176,-86.505,-175.860,159.072
1747607238.43,-0.099,0.000,0.036,-0.348,0.060,-0.175,-86.285,-174.556,160.357
1747607238.44,-0.067,0.040,0.003,-0.292,0.096,-0.164,-86.092,-173.355,161.516
1747607238.45,-0.011,0.056,-0.010,-0.237,0.119,-0.129,-85.932,-172.335,162.478
1747607238.46,0.037,0.061,-0.014,-0.198,0.166,-0.062,-85.802,-171.736,162.996
1747607238.47,0.058,0.056,0.013,-0.196,0.131,-0.019,-85.689,-171.569,163.074
1747607238.48,0.031,0.073,0.025,-0.191,0.057,-0.026,-85.579,-171.598,162.992
1747607238.49,-0.018,0.131,0.008,-0.098,-0.014,-0.060,-85.491,-171.452,163.128
1747607238.50,-0.046,0.182,-0.004,-0.015,-0.035,-0.087,-85.455,-171.000,163.596
1747607238.51,-0.040,0.040,-0.024,0.003,-0.029,-0.082,-85.446,-170.396,164.221
1747607238.52,0.015,-0.026,-0.014,-0.010,-0.032,-0.049,-85.437,-169.945,164.692
1747607238.53,0.070,-0.017,0.005,0.000,-0.046,-0.012,-85.430,-169.765,164.892
1747607238.54,0.090,0.002,0.009,0.024,-0.103,0.014,-85.436,-169.798,164.899
1747607238.55,0.070,-0.004,0.015,0.022,-0.181,0.029,-85.455,-170.045,164.733
1747607238.56,0.017,-0.034,0.021,-0.033,-0.227,0.012,-85.455,-170.362,164.533
1747607238.57,-0.042,-0.050,0.023,-0.075,-0.200,-0.030,-85.421,-170.473,164.548
1747607238.58,-0.064,-0.050,0.017,-0.062,-0.128,-0.061,-85.378,-170.275,164.840
1747607238.59,-0.040,-0.032,0.013,-0.032,-0.062,-0.062,-85.348,-169.932,165.239
1747607238.60,0.001,0.000,0.013,-0.001,0.011,-0.051,-85.333,-169.588,165.597
1747607238.61,0.035,0.031,0.027,0.046,0.013,-0.026,-85.340,-169.336,165.842
1747607238.62,0.051,0.036,0.016,0.111,-0.016,-0.002,-85.383,-169.204,165.974
1747607238.63,0.044,0.022,-0.008,0.142,-0.079,0.017,-85.458,-169.166,166.038
1747607238.64,0.022,-0.001,-0.012,0.130,-0.144,0.032,-85.536,-169.255,166.014
1747607238.65,-0.007,-0.020,-0.011,0.138,-0.172,0.026,-85.610,-169.342,166.019
1747607238.66,-0.029,-0.023,-0.009,0.175,-0.165,0.017,-85.694,-169.270,166.189
1747607238.67,-0.028,-0.018,-0.001,0.210,-0.148,0.016,-85.801,-169.125,166.421
1747607238.68,-0.022,-0.007,0.030,0.240,-0.172,0.030,-85.926,-169.065,166.572
1747607238.69,-0.024,0.013,0.043,0.293,-0.170,0.038,-86.074,-169.116,166.621
1747607238.70,-0.032,0.027,0.046,0.356,-0.120,0.041,-86.259,-169.149,166.672
1747607238.71,-0.038,0.023,0.062,0.367,-0.110,0.054,-86.470,-169.156,166.731
1747607238.72,-0.045,0.013,0.076,0.338,-0.104,0.063,-86.675,-169.231,166.719
1747607238.73,-0.056,0.005,0.083,0.313,-0.072,0.048,-86.862,-169.166,166.834
1747607238.74,-0.067,0.003,0.108,0.291,-0.092,0.044,-87.033,-168.934,167.113
1747607238.75,-0.077,-0.007,0.122,0.271,-0.133,0.044,-87.190,-168.762,167.349
1747607238.76,-0.074,-0.027,0.114,0.276,-0.117,0.043,-87.336,-168.645,167.540
1747607238.77,-0.046,-0.049,0.104,0.306,-0.045,0.051,-87.504,-168.549,167.683
1747607238.78,-0.005,-0.057,0.100,0.328,-0.012,0.053,-87.687,-168.396,167.849
1747607238.79,0.009,-0.041,0.094,0.362,-0.028,0.036,-87.885,-168.034,168.223
1747607238.80,-0.008,-0.004,0.059,0.416,-0.064,0.005,-88.103,-167.008,169.276
1747607238.81,-0.028,0.025,0.023,0.489,-0.119,-0.020,-88.352,-164.874,171.463
1747607238.82,-0.034,0.038,-0.007,0.553,-0.137,-0.026,-88.633,-161.128,175.286
1747607238.83,-0.012,0.049,-0.010,0.599,-0.111,0.005,-88.936,-155.077,-178.591
1747607238.84,0.033,0.056,0.006,0.618,-0.172,0.068,-89.249,-145.334,-168.771
1747607238.85,0.057,0.042,0.009,0.612,-0.301,0.116,-89.544,-125.628,-148.928
1747607238.86,0.041,0.006,0.011,0.628,-0.384,0.133,-89.689,-74.257,-97.358
1747607238.87,0.012,-0.032,0.019,0.661,-0.398,0.131,-89.496,-26.521,-49.395
1747607238.88,-0.016,-0.052,0.014,0.696,-0.369,0.129,-89.150,-10.393,-33.048
1747607238.89,-0.039,-0.059,0.015,0.739,-0.300,0.125,-88.751,-3.855,-26.316
1747607238.90,-0.047,-0.043,-0.012,0.774,-0.176,0.106,-88.322,-0.714,-23.037
1747607238.91,-0.049,-0.014,-0.029,0.802,-0.042,0.072,-87.872,0.763,-21.497
1747607238.92,-0.047,0.005,-0.011,0.862,0.040,0.053,-87.398,1.389,-20.871
1747607238.93,-0.023,0.012,-0.003,0.934,0.081,0.066,-86.884,1.810,-20.486
1747607238.94,0.011,0.021,-0.025,0.953,0.086,0.111,-86.341,2.362,-19.981
1747607238.95,0.031,0.031,-0.032,0.909,0.077,0.170,-85.805,3.205,-19.182
1747607238.96,0.027,0.030,0.004,0.910,0.112,0.207,-85.281,4.218,-18.218
1747607238.97,0.002,0.015,0.041,0.924,0.188,0.203,-84.750,5.159,-17.360
1747607238.98,-0.035,-0.016,0.067,0.923,0.266,0.194,-84.214,5.926,-16.720
1747607238.99,-0.054,-0.051,0.093,0.929,0.254,0.205,-83.677,6.591,-16.206
1747607239.00,-0.040,-0.072,0.070,0.911,0.084,0.238,-83.138,7.219,-15.675
1747607239.01,-0.028,-0.064,0.002,0.868,-0.112,0.262,-82.615,7.816,-15.158
1747607239.02,-0.017,-0.038,-0.048,0.832,-0.128,0.246,-82.115,8.314,-14.576
1747607239.03,-0.005,-0.018,-0.053,0.831,0.094,0.190,-81.628,8.672,-14.289
1747607239.04,0.039,-0.014,0.031,0.888,0.240,0.160,-81.130,8.927,-14.136
1747607239.05,0.081,0.001,0.102,0.964,0.118,0.176,-80.594,9.101,-14.167
1747607239.06,0.059,0.032,0.046,0.999,-0.095,0.217,-80.020,9.229,-14.042
1747607239.07,-0.004,0.065,-0.016,0.947,-0.133,0.228,-79.449,9.356,-13.936
1747607239.08,-0.048,0.074,0.021,0.883,0.031,0.219,-78.914,9.540,-13.714
1747607239.09,-0.053,0.041,0.106,0.892,0.199,0.193,-78.397,9.767,-13.647
1747607239.10,-0.064,0.001,0.106,0.917,0.276,0.176,-77.869,9.976,-13.576
1747607239.11,-0.089,-0.027,0.062,0.950,0.292,0.179,-77.326,10.164,-13.642
1747607239.12,-0.098,-0.043,0.055,0.965,0.215,0.215,-76.767,10.368,-13.583
1747607239.13,-0.095,-0.042,0.050,0.954,0.133,0.231,-76.204,10.576,-13.557
1747607239.14,-0.099,-0.018,0.031,0.956,0.175,0.229,-75.643,10.773,-13.439
1747607239.15,-0.091,0.010,0.016,0.959,0.305,0.219,-75.082,10.992,-13.449
1747607239.16,-0.073,0.022,0.010,0.945,0.455,0.230,-74.523,11.283,-13.375
1747607239.17,-0.055,0.014,-0.002,0.900,0.499,0.259,-73.977,11.670,-13.357
1747607239.18,-0.063,0.010,-0.012,0.826,0.455,0.270,-73.464,12.108,-13.187
1747607239.19,-0.090,0.009,-0.012,0.801,0.414,0.248,-72.981,12.510,-13.114
1747607239.20,-0.101,-0.002,-0.026,0.833,0.453,0.221,-72.499,12.846,-13.021
1747607239.21,-0.058,-0.023,-0.011,0.888,0.461,0.212,-71.993,13.137,-13.083
1747607239.22,0.017,-0.029,0.004,0.922,0.403,0.227,-71.460,13.393,-13.074
1747607239.23,0.084,-0.026,-0.029,0.921,0.350,0.262,-70.914,13.645,-13.117
1747607239.24,0.125,-0.024,-0.024,0.913,0.298,0.284,-70.369,13.911,-13.032
1747607239.25,0.143,-0.029,0.001,0.954,0.294,0.304,-69.811,14.168,-13.021
1747607239.26,0.139,-0.033,-0.018,0.932,0.280,0.322,-69.240,14.441,-12.908
1747607239.27,0.117,-0.035,-0.013,0.849,0.228,0.317,-68.702,14.714,-12.860
1747607239.28,0.068,-0.031,-0.000,0.799,0.202,0.303,-68.203,14.966,-12.723
1747607239.29,0.025,-0.027,0.024,0.812,0.110,0.306,-67.716,15.176,-12.685
1747607239.30,-0.012,-0.024,-0.025,0.857,0.008,0.305,-67.210,15.315,-12.569
1747607239.31,-0.033,-0.022,-0.107,0.886,-0.012,0.276,-66.685,15.377,-12.591
1747607239.32,-0.027,-0.019,-0.108,0.913,0.037,0.247,-66.151,15.400,-12.573
1747607239.33,-0.015,-0.027,-0.050,0.941,0.058,0.180,-65.607,15.380,-12.718
1747607239.34,-0.016,-0.031,-0.051,0.987,0.051,0.120,-65.056,15.272,-12.869
1747607239.35,-0.033,-0.022,-0.083,1.017,0.126,0.063,-64.487,15.103,-13.189
1747607239.36,-0.037,-0.009,-0.078,0.969,0.295,0.048,-63.931,14.975,-13.463
1747607239.37,-0.022,-0.006,-0.015,0.895,0.456,0.114,-63.404,14.996,-13.747
1747607239.38,-0.020,-0.025,0.063,0.788,0.421,0.197,-62.918,15.178,-13.834
1747607239.39,-0.052,-0.049,0.063,0.768,0.260,0.301,-62.455,15.406,-13.864
1747607239.40,-0.082,-0.071,-0.056,0.739,0.242,0.364,-61.986,15.675,-13.715
1747607239.41,-0.017,-0.080,-0.064,0.732,0.280,0.378,-61.527,15.997,-13.584
1747607239.42,0.084,-0.075,-0.006,0.837,0.253,0.374,-61.040,16.303,-13.413
1747607239.43,0.162,-0.066,-0.015,1.004,0.161,0.349,-60.476,16.515,-13.375
1747607239.44,0.196,-0.030,-0.035,1.113,0.035,0.289,-59.842,16.577,-13.368
1747607239.45,0.170,0.025,-0.022,1.156,-0.032,0.217,-59.177,16.492,-13.527
1747607239.46,0.102,0.068,-0.007,1.061,0.049,0.145,-58.536,16.358,-13.686
1747607239.47,0.029,0.077,0.052,0.931,0.073,0.109,-57.971,16.251,-13.898
1747607239.48,-0.046,0.050,0.115,0.849,-0.094,0.144,-57.467,16.130,-14.038
1747607239.49,-0.093,0.002,0.048,0.803,-0.185,0.249,-56.984,16.004,-14.086
1747607239.50,-0.031,-0.042,-0.060,0.767,-0.133,0.315,-56.509,15.967,-14.020
1747607239.51,0.072,-0.072,0.008,0.822,-0.150,0.286,-56.027,15.956,-13.943
1747607239.52,0.111,-0.072,0.068,0.893,-0.274,0.245,-55.514,15.854,-13.922
1747607239.53,0.069,-0.034,0.012,0.962,-0.353,0.217,-54.967,15.647,-13.952
1747607239.54,-0.007,0.036,-0.055,1.040,-0.304,0.176,-54.386,15.395,-14.026
1747607239.55,-0.079,0.114,-0.072,1.174,-0.142,0.098,-53.757,15.141,-14.180
1747607239.56,-0.147,0.168,-0.016,1.257,0.009,0.015,-53.075,14.898,-14.434
1747607239.57,-0.218,0.178,0.020,1.190,0.178,0.006,-52.393,14.717,-14.728
1747607239.58,-0.253,0.142,0.053,1.027,0.220,0.072,-51.775,14.656,-14.958
1747607239.59,-0.252,0.053,0.080,0.879,0.151,0.142,-51.233,14.667,-15.079
1747607239.60,-0.203,-0.059,0.023,0.826,0.151,0.204,-50.740,14.715,-15.125
1747607239.61,-0.072,-0.123,-0.002,0.831,0.179,0.275,-50.248,14.817,-15.110
1747607239.62,0.061,-0.171,0.078,0.851,0.244,0.351,-49.738,15.009,-15.026
1747607239.63,0.170,-0.123,0.088,0.921,0.094,0.324,-49.201,15.176,-14.939
1747607239.64,0.195,-0.018,0.048,1.039,-0.095,0.255,-48.617,15.195,-14.916
1747607239.65,0.129,0.052,0.013,1.142,-0.264,0.139,-47.985,15.025,-14.997
1747607239.66,0.050,0.090,-0.022,1.155,-0.178,0.072,-47.331,14.768,-15.166
1747607239.67,0.017,0.118,0.014,1.048,-0.133,0.032,-46.714,14.544,-15.360
1747607239.68,-0.006,0.138,0.067,0.929,-0.214,0.040,-46.163,14.318,-15.540
1747607239.69,-0.036,0.123,-0.021,0.816,-0.282,0.117,-45.670,14.092,-15.653
1747607239.70,0.001,0.042,-0.047,0.783,-0.236,0.217,-45.209,13.923,-15.678
1747607239.71,0.078,-0.047,0.038,0.828,-0.213,0.289,-44.725,13.829,-15.633
1747607239.72,0.138,-0.109,0.082,0.841,-0.204,0.322,-44.220,13.767,-15.553
1747607239.73,0.141,-0.092,0.069,0.837,-0.226,0.315,-43.712,13.711,-15.464
1747607239.74,0.117,-0.013,0.033,0.907,-0.282,0.299,-43.190,13.615,-15.390
1747607239.75,0.070,0.040,-0.051,1.046,-0.214,0.278,-42.611,13.497,-15.349
1747607239.76,0.033,0.071,-0.030,1.129,-0.109,0.258,-41.965,13.406,-15.346
1747607239.77,0.011,0.095,0.026,1.046,-0.000,0.251,-41.323,13.374,-15.349
1747607239.78,-0.012,0.087,-0.020,0.947,-0.033,0.255,-40.739,13.381,-15.336
1747607239.79,-0.063,0.029,-0.051,0.886,-0.115,0.303,-40.195,13.363,-15.293
1747607239.80,-0.111,-0.052,-0.046,0.863,-0.092,0.379,-39.665,13.365,-15.194
1747607239.81,-0.081,-0.099,0.038,0.886,-0.033,0.403,-39.131,13.412,-15.060
