Time,AccX,AccY,AccZ,GyroX,GyroY,GyroZ,MagX,MagY,MagZ,Pitch,Roll,Yaw
1743403873.08,0.018,0.040,0.028,-0.058,-0.398,0.089,9.773,21.566,-59.247,19.949,8.569,-24.871
1743403873.10,-0.009,0.010,0.013,0.122,-0.398,-0.021,9.495,21.565,-59.533,19.956,8.104,-24.799
1743403873.12,-0.090,0.048,0.019,0.553,-0.641,-0.357,8.811,21.292,-59.626,20.295,7.618,-25.074
1743403873.14,-0.126,0.085,-0.013,1.080,-0.543,-0.519,8.226,20.794,-59.951,21.155,7.117,-25.761
1743403873.16,-0.147,0.121,0.001,1.486,0.039,-0.483,7.355,19.379,-60.165,22.563,7.201,-26.601
1743403873.18,-0.133,0.148,-0.003,1.475,0.607,-0.009,7.321,17.964,-60.670,24.243,7.757,-27.205
1743403873.20,-0.101,0.121,-0.002,0.710,0.952,0.883,8.144,16.110,-61.292,25.588,8.505,-26.868
1743403873.22,-0.076,0.046,0.095,-0.069,1.475,1.370,9.391,15.081,-61.128,26.144,9.285,-25.456
1743403873.24,-0.125,0.056,0.082,-0.847,1.659,1.439,11.515,14.943,-60.776,25.906,10.265,-23.571
1743403873.26,-0.152,0.028,0.070,-1.569,1.848,1.394,13.664,15.587,-59.786,24.841,11.393,-21.516
1743403873.28,-0.103,-0.060,0.055,-1.761,1.901,1.093,15.885,16.953,-58.529,23.204,12.684,-19.506
1743403873.30,-0.072,0.010,0.142,-1.263,3.525,0.859,18.491,18.379,-57.362,21.760,15.059,-17.928
1743403873.32,-0.085,0.052,-0.140,-0.636,3.319,1.197,22.315,19.188,-55.518,21.050,18.799,-16.425
1743403873.34,-0.085,0.135,-0.139,0.040,2.822,1.340,25.801,19.490,-53.616,21.247,21.456,-14.826
1743403873.36,-0.017,0.200,0.083,-0.069,3.590,1.368,29.096,18.660,-51.942,21.944,24.651,-13.346
1743403873.38,-0.164,0.335,0.277,-1.329,4.139,1.334,32.828,18.161,-49.598,21.992,28.345,-11.487
1743403873.40,-0.346,0.411,0.344,-1.943,-0.938,1.197,36.561,18.211,-46.656,20.842,30.597,-9.004
1743403873.42,-0.441,0.356,1.079,-3.920,-1.046,0.500,36.947,19.216,-45.901,18.641,27.651,-6.542
1743403873.44,-0.016,0.630,0.598,-5.136,-1.035,1.041,35.657,21.790,-45.094,14.121,25.597,-3.261
1743403873.46,-0.035,0.727,0.331,-4.791,-0.186,1.361,34.980,25.078,-43.433,9.564,24.202,0.440
1743403873.48,0.095,0.768,0.390,-5.332,1.018,1.861,35.042,27.710,-40.915,5.111,24.124,4.479
1743403873.50,-0.197,0.771,0.257,-5.684,1.343,1.277,36.152,29.939,-37.326,0.100,25.310,8.875
1743403873.52,-0.177,0.679,0.040,-5.383,1.722,0.621,37.284,32.086,-33.428,-5.170,27.181,12.608
1743403873.54,0.070,0.533,-0.119,-4.894,2.251,0.409,38.116,33.894,-29.156,-10.047,29.948,15.941
1743403873.56,0.153,0.364,-0.276,-4.461,2.376,0.108,38.928,35.358,-24.488,-14.447,33.249,19.052
1743403873.58,0.143,0.196,-0.444,-3.750,3.073,-0.417,39.405,36.545,-20.212,-18.406,37.041,21.770
1743403873.60,0.127,0.064,-0.452,-3.121,3.986,-1.153,39.745,37.489,-15.546,-21.978,41.758,23.638
1743403873.62,0.421,0.046,-0.459,-3.199,4.249,-1.546,39.902,38.819,-11.054,-25.656,47.083,25.119
1743403873.64,1.066,0.027,-0.569,-3.155,4.140,-0.900,39.508,40.089,-5.687,-29.158,52.903,25.829
1743403873.66,1.410,-0.002,-0.748,-2.849,3.800,0.271,39.262,40.610,-0.550,-31.368,58.968,27.527
1743403873.68,1.306,-0.194,-0.960,-2.347,3.539,1.017,39.170,40.315,3.993,-32.088,65.011,29.743
1743403873.70,1.128,-0.330,-1.023,-1.441,3.761,1.521,39.538,39.169,8.258,-31.566,70.763,31.449
1743403873.72,1.073,-0.285,-0.881,-0.873,4.320,2.052,39.972,37.909,12.026,-29.995,76.386,32.231
1743403873.74,0.893,-0.240,-0.617,-0.750,4.497,2.544,40.089,35.971,15.837,-27.529,82.290,32.514
1743403873.76,0.438,-0.245,-0.450,-0.848,3.717,2.713,40.406,33.651,19.858,-24.590,87.600,32.594
1743403873.78,-0.045,-0.276,-0.408,-0.881,2.692,2.522,40.312,31.319,23.203,-21.563,91.707,32.457
1743403873.80,-0.449,-0.298,-0.406,-0.720,1.963,1.890,40.391,28.957,26.056,-18.994,94.644,32.063
1743403873.82,-0.507,-0.317,-0.312,-0.665,1.363,1.372,40.446,27.070,28.019,-17.016,96.703,31.517
1743403873.84,-0.619,-0.278,-0.171,-0.690,1.151,0.566,40.396,25.447,29.410,-15.815,98.297,30.989
1743403873.86,-0.667,-0.210,-0.187,-0.423,0.443,-0.160,40.020,24.241,30.849,-15.499,99.465,30.510
1743403873.88,-0.622,-0.212,-0.277,0.024,-0.323,-0.680,39.719,24.058,31.575,-15.936,99.585,29.720
1743403873.90,-0.343,0.014,-0.445,1.071,-0.613,-0.812,39.524,24.136,31.568,-16.920,98.907,28.301
1743403873.92,-0.117,-0.057,-0.301,1.324,-0.357,-1.178,39.632,25.378,30.967,-18.237,97.900,25.790
1743403873.94,-0.326,-0.009,0.164,-0.040,-0.627,-1.849,39.371,26.811,30.261,-20.021,97.146,24.181
1743403873.96,-0.427,0.109,0.382,-0.840,-1.404,-2.309,38.822,28.076,29.649,-22.358,96.523,24.414
1743403873.98,-0.124,0.080,-0.314,0.484,-1.852,-2.469,38.493,29.290,29.373,-25.050,94.682,24.426
1743403874.00,0.128,-0.029,-0.181,0.440,-1.287,-2.503,38.071,31.088,27.885,-27.913,92.628,23.951
1743403874.02,-0.052,-0.073,0.076,0.182,-0.403,-2.881,37.343,33.057,26.729,-30.987,91.588,23.681
1743403874.04,-0.042,0.177,0.090,0.348,-1.061,-2.876,35.883,35.036,26.337,-34.356,90.848,23.479
1743403874.06,0.250,0.435,0.079,1.105,-2.034,-2.399,34.629,36.833,25.754,-37.388,88.247,22.426
1743403874.08,0.635,0.436,0.086,1.442,-0.892,-1.418,33.931,38.916,23.938,-39.443,85.042,20.327
1743403874.10,0.386,0.237,-0.229,0.340,0.208,-1.110,33.197,40.300,22.294,-40.819,83.702,18.748
1743403874.12,0.065,0.112,-0.046,-0.404,0.529,-0.666,32.382,41.378,22.042,-41.808,84.261,18.730
1743403874.14,-0.125,0.101,-0.022,-0.619,-0.119,-0.390,31.634,41.828,22.411,-42.464,85.025,19.491
1743403874.16,-0.225,0.172,-0.046,-0.519,-0.319,-0.290,31.277,41.748,23.005,-42.886,85.264,20.357
1743403874.18,-0.183,0.222,0.005,-0.264,0.031,-0.276,31.392,41.585,23.352,-43.263,85.491,20.947
1743403874.20,0.060,0.192,0.025,-0.199,0.578,-0.112,31.036,41.692,23.482,-43.485,86.010,21.225
1743403874.22,0.198,-0.048,-0.029,-0.424,1.274,-0.841,30.995,41.676,23.939,-44.015,87.340,21.724
1743403874.24,0.113,-0.244,0.023,-0.100,2.505,-1.303,29.829,41.699,24.878,-45.294,89.816,22.151
1743403874.26,-0.056,-0.304,-0.038,0.416,2.475,-1.193,28.043,42.286,26.365,-46.784,92.725,21.948
1743403874.28,-0.093,-0.308,-0.128,0.820,0.739,-0.694,25.832,42.954,27.433,-47.872,93.810,20.922
1743403874.30,-0.009,-0.137,-0.056,0.577,-0.420,-1.072,24.418,43.636,27.738,-48.850,93.054,19.737
1743403874.32,-0.032,-0.123,0.046,0.234,-0.402,-1.746,23.593,44.156,27.226,-50.508,92.010,19.178
1743403874.34,-0.141,-0.261,0.139,0.170,0.730,-2.196,22.748,45.371,26.939,-52.765,91.973,18.946
1743403874.36,-0.168,-0.358,0.041,0.600,0.924,-2.319,20.789,45.823,26.844,-55.406,92.748,18.506
1743403874.38,-0.108,-0.319,-0.090,1.188,0.477,-2.477,18.301,46.940,26.759,-58.150,92.029,16.789
1743403874.40,-0.058,-0.238,-0.018,1.166,0.518,-3.103,15.841,47.771,26.065,-61.336,90.296,14.131
1743403874.42,-0.074,-0.164,-0.172,0.664,0.251,-3.773,13.193,48.781,25.320,-65.269,88.535,11.621
1743403874.44,-0.118,-0.183,-0.178,0.090,0.078,-4.341,9.856,49.995,24.954,-69.891,87.314,10.153
1743403874.46,-0.140,-0.342,-0.077,-0.197,-0.265,-4.818,6.022,50.653,24.550,-75.143,86.603,9.429
1743403874.48,-0.139,-0.510,-0.117,-0.799,-1.353,-4.946,1.802,50.517,24.488,-80.785,86.684,10.067
1743403874.50,-0.076,-0.666,-0.026,-1.453,-2.410,-4.676,-2.123,50.105,24.951,-86.285,98.209,23.088
1743403874.52,0.030,-0.302,0.141,-2.146,-3.448,-5.275,-5.112,48.851,25.791,-87.012,-147.913,139.786
1743403874.54,-0.168,3.370,0.365,-1.688,-3.708,-7.130,-7.815,46.865,27.859,-79.595,-120.371,170.971
1743403874.56,0.177,1.467,-0.123,0.817,-5.711,-2.593,-11.210,44.239,30.396,-74.274,-116.428,-179.906
1743403874.58,0.045,0.175,-0.215,2.476,-4.366,-0.570,-12.018,42.921,31.438,-73.862,-114.044,-171.687
1743403874.60,-0.248,-0.156,-0.055,2.163,-1.609,-0.913,-9.942,43.689,31.190,-74.122,-107.380,-161.851
1743403874.62,-0.292,-0.116,0.039,1.102,-0.308,-1.029,-9.028,45.269,29.815,-73.403,-101.090,-154.831
1743403874.64,-0.340,-0.238,0.123,0.495,0.511,0.235,-9.428,45.864,28.609,-73.071,-97.947,-152.230
1743403874.66,-0.518,-0.205,0.072,0.432,1.375,0.242,-9.639,45.994,28.129,-73.536,-95.413,-151.216
1743403874.68,-0.453,-0.115,-0.003,0.627,2.293,-0.176,-9.978,46.408,27.483,-73.571,-91.307,-149.667
1743403874.70,-0.274,-0.053,-0.091,0.858,2.732,-0.259,-11.009,46.462,26.709,-73.288,-85.524,-147.194
1743403874.72,-0.192,-0.047,-0.085,0.950,2.590,-0.425,-12.438,47.014,25.541,-72.772,-79.232,-144.332
1743403874.74,-0.107,-0.019,-0.096,0.948,2.085,-0.588,-14.154,47.112,24.121,-71.944,-73.633,-141.755
1743403874.76,-0.036,0.007,-0.081,0.835,1.548,-0.678,-15.643,47.453,22.578,-70.924,-69.375,-139.933
1743403874.78,-0.022,0.035,-0.015,0.656,1.136,-0.727,-17.206,47.363,21.169,-69.866,-66.476,-138.914
1743403874.80,0.029,-0.037,0.108,0.372,0.899,-0.706,-18.516,47.340,20.213,-68.874,-64.733,-138.808
1743403874.82,0.142,-0.112,0.185,0.089,0.438,-0.556,-19.745,47.215,19.357,-68.096,-64.204,-139.492
1743403874.84,0.190,-0.178,0.322,-0.162,-0.104,-0.430,-20.439,47.183,18.790,-67.610,-64.669,-140.674
1743403874.86,0.235,-0.147,0.327,-0.286,-0.274,-0.259,-21.250,46.652,18.682,-67.369,-65.994,-142.644
1743403874.88,0.132,-0.113,0.338,-0.512,0.744,0.034,-21.469,46.476,18.744,-67.431,-66.783,-144.205
1743403874.90,0.038,-0.070,0.021,-0.684,0.644,-0.064,-21.593,46.186,18.991,-67.715,-67.418,-146.340
1743403874.92,-0.060,0.012,-0.208,-0.628,-0.313,-0.146,-21.717,45.893,19.447,-67.878,-69.095,-148.769
1743403874.94,-0.128,-0.014,-0.255,-0.362,-0.859,-0.241,-21.843,45.814,19.675,-67.869,-71.333,-150.803
1743403874.96,-0.140,-0.065,-0.166,-0.058,-0.696,-0.311,-21.794,45.605,20.380,-67.637,-73.067,-152.070
1743403874.98,-0.149,-0.085,-0.074,0.154,-0.235,-0.316,-21.753,45.518,20.441,-67.266,-73.692,-152.557
1743403875.00,-0.143,-0.065,-0.026,0.167,0.249,-0.294,-22.105,45.417,20.104,-66.879,-73.472,-152.725
1743403875.02,-0.136,-0.082,-0.062,0.131,0.574,-0.295,-22.607,45.385,19.722,-66.509,-72.829,-152.937
1743403875.04,-0.142,-0.061,-0.052,0.129,0.938,-0.329,-23.164,45.231,19.224,-66.133,-71.942,-153.262
1743403875.06,-0.175,-0.046,-0.104,0.189,1.188,-0.326,-23.841,45.514,18.289,-65.709,-70.500,-153.458
1743403875.08,-0.196,-0.010,-0.196,0.123,0.811,-0.376,-24.540,45.275,17.596,-65.279,-69.310,-153.758
1743403875.10,-0.043,0.099,-0.097,0.431,0.787,-0.244,-25.341,45.364,16.847,-64.828,-68.203,-153.866
1743403875.12,0.263,0.208,-0.111,0.865,0.968,-0.007,-25.828,45.356,15.628,-64.392,-65.771,-152.643
1743403875.14,0.368,0.105,0.196,1.131,1.161,0.122,-26.367,45.857,14.165,-63.995,-62.452,-150.691
1743403875.16,0.146,-0.040,-0.069,2.177,0.737,-0.104,-26.554,45.877,12.253,-63.100,-58.003,-147.378
1743403875.18,-0.011,-0.113,-0.187,2.630,-0.144,-0.193,-26.779,46.309,10.076,-61.330,-53.464,-142.930
1743403875.20,-0.089,-0.121,-0.019,2.131,0.384,0.016,-27.148,46.637,7.720,-59.507,-49.772,-139.014
1743403875.22,-0.033,-0.120,0.236,1.160,1.441,0.243,-27.546,46.638,5.705,-58.359,-46.139,-136.434
1743403875.24,0.042,-0.086,0.310,0.726,1.515,0.336,-27.392,46.924,3.900,-57.911,-42.908,-135.055
1743403875.26,0.002,-0.102,0.063,1.439,1.169,0.412,-27.193,47.201,2.409,-57.303,-39.618,-133.347
1743403875.28,-0.054,-0.047,0.027,2.066,0.725,0.414,-26.624,47.520,0.115,-55.985,-36.062,-130.726
1743403875.30,0.024,-0.010,-0.065,1.975,0.499,0.468,-26.422,47.575,-2.389,-54.283,-32.877,-127.984
1743403875.32,0.251,0.045,0.126,1.364,0.712,0.564,-26.034,47.713,-4.253,-52.976,-30.142,-125.796
1743403875.34,0.310,0.134,0.123,1.315,0.757,0.492,-25.535,47.880,-6.018,-51.995,-27.647,-124.105
1743403875.36,0.201,0.189,0.098,1.687,0.275,0.415,-25.089,47.893,-7.809,-50.699,-25.522,-122.511
1743403875.38,0.003,0.040,0.095,2.056,0.178,0.574,-24.476,47.776,-9.699,-48.968,-23.659,-120.676
1743403875.40,-0.080,-0.104,-0.049,1.908,0.338,0.747,-23.627,47.749,-11.565,-47.102,-21.571,-118.596
1743403875.42,0.017,-0.128,0.026,1.265,0.791,0.816,-22.907,47.549,-13.246,-45.714,-19.415,-116.759
1743403875.44,0.099,0.009,0.180,0.914,1.059,0.795,-21.826,47.600,-14.791,-44.876,-17.029,-115.292
1743403875.46,0.049,0.037,0.152,1.590,0.505,0.773,-20.726,47.590,-15.874,-43.838,-14.878,-113.870
1743403875.48,0.000,0.025,-0.155,1.981,0.260,0.629,-20.011,47.235,-17.865,-41.914,-13.290,-112.370
1743403875.50,0.104,0.084,0.034,1.192,0.281,0.703,-19.462,46.910,-19.551,-40.298,-12.018,-111.199
1743403875.52,-0.050,-0.030,-0.026,1.225,0.315,0.820,-18.423,46.623,-20.836,-39.209,-10.735,-109.997
1743403875.54,-0.156,-0.071,-0.014,1.470,0.383,0.554,-17.306,46.361,-22.049,-37.811,-9.485,-108.915
1743403875.56,-0.095,-0.157,-0.033,1.511,0.435,0.385,-16.784,45.696,-23.633,-36.195,-8.446,-108.198
1743403875.58,-0.029,-0.145,-0.086,1.284,0.607,0.265,-16.235,44.942,-25.284,-34.629,-7.407,-107.740
1743403875.60,-0.039,-0.025,-0.037,1.095,0.378,0.229,-15.701,44.435,-26.477,-33.350,-6.542,-107.475
1743403875.61,-0.028,0.088,0.035,1.144,0.413,0.247,-15.055,43.790,-27.821,-32.116,-5.869,-107.238
1743403875.63,-0.001,0.081,0.085,1.219,0.508,0.263,-14.679,42.981,-28.952,-30.801,-5.078,-106.996
1743403875.65,0.126,-0.024,0.034,1.357,0.488,0.427,-13.928,42.378,-30.161,-29.364,-4.187,-106.642
1743403875.67,0.148,-0.073,-0.202,1.083,0.469,0.337,-13.359,41.620,-31.413,-27.949,-3.319,-106.257
1743403875.69,0.040,-0.060,-0.043,0.856,0.510,0.306,-12.678,40.892,-32.216,-26.912,-2.596,-106.031
1743403875.71,-0.048,-0.018,0.066,0.982,0.553,0.376,-11.897,40.458,-33.170,-25.888,-1.732,-105.762
1743403875.73,-0.026,0.005,0.078,1.218,0.347,0.314,-11.201,39.890,-33.983,-24.631,-1.036,-105.507
1743403875.75,0.034,-0.075,-0.028,1.130,0.385,0.265,-10.919,39.071,-35.315,-23.261,-0.469,-105.331
1743403875.77,0.019,-0.068,-0.145,0.925,0.490,0.212,-10.550,38.421,-35.985,-22.102,0.139,-105.236
1743403875.79,0.026,-0.020,-0.033,1.006,0.365,0.130,-9.812,37.501,-36.942,-21.034,0.739,-105.233
1743403875.81,0.055,-0.035,0.016,1.200,0.114,-0.020,-9.435,36.743,-37.798,-19.752,1.003,-105.395
1743403875.83,0.103,-0.048,0.040,1.206,0.175,-0.033,-9.257,35.719,-38.568,-18.372,1.126,-105.653
1743403875.85,0.078,-0.045,0.057,1.140,0.100,0.070,-8.937,34.821,-39.613,-17.019,1.295,-105.844
1743403875.87,0.032,-0.070,-0.078,0.990,0.291,0.187,-8.738,33.778,-40.448,-15.796,1.526,-105.902
1743403875.89,0.000,-0.050,-0.017,0.897,0.461,0.249,-8.147,33.087,-40.979,-14.723,2.008,-105.844
1743403875.91,0.092,-0.046,0.015,0.818,0.651,0.376,-7.484,32.563,-41.641,-13.715,2.749,-105.678
1743403875.93,0.028,-0.054,-0.001,0.781,0.633,0.373,-6.607,31.869,-42.317,-12.818,3.590,-105.423
1743403875.95,0.080,-0.027,-0.004,0.909,0.315,0.348,-5.982,30.956,-42.788,-11.810,4.193,-105.235
1743403875.97,0.061,-0.047,-0.131,1.035,0.158,0.307,-5.250,30.390,-43.199,-10.696,4.528,-105.066
1743403875.99,-0.086,0.014,-0.121,1.046,0.101,0.170,-4.896,29.207,-44.028,-9.462,4.684,-105.013
1743403876.01,-0.065,-0.028,-0.097,0.914,0.275,0.070,-4.755,28.182,-44.403,-8.325,4.925,-105.103
1743403876.03,0.065,-0.018,-0.117,0.851,0.213,0.037,-4.158,27.535,-44.714,-7.331,5.212,-105.255
1743403876.05,0.003,-0.062,0.039,0.859,-0.055,0.029,-3.905,26.558,-45.288,-6.363,5.319,-105.409
1743403876.07,-0.108,0.059,-0.268,1.057,-0.403,-0.065,-3.999,25.776,-45.952,-5.292,5.037,-105.629
1743403876.09,-0.050,0.039,-0.078,0.912,-0.203,-0.091,-4.205,24.805,-46.368,-4.130,4.627,-105.914
1743403876.11,0.000,-0.006,-0.022,0.722,0.180,-0.151,-4.293,23.977,-46.693,-3.229,4.605,-106.213
1743403876.13,0.076,-0.029,-0.073,0.634,0.262,-0.176,-4.269,23.000,-46.991,-2.478,4.887,-106.569
1743403876.15,0.056,0.003,-0.116,0.669,0.033,-0.163,-3.858,22.526,-47.231,-1.760,5.069,-106.917
1743403876.17,-0.021,0.072,-0.236,0.750,-0.294,-0.131,-4.012,21.926,-47.592,-0.968,4.907,-107.240
1743403876.19,-0.075,0.032,-0.291,0.758,-0.436,-0.224,-4.466,20.921,-48.058,-0.112,4.477,-107.589
1743403876.21,0.019,-0.040,-0.188,0.657,-0.485,-0.353,-4.605,20.240,-48.154,0.686,3.953,-108.075
1743403876.23,0.114,-0.042,-0.192,0.453,-0.413,-0.295,-5.212,19.465,-48.431,1.287,3.456,-108.557
1743403876.25,0.027,-0.074,-0.186,0.207,-0.362,-0.268,-5.783,19.096,-48.625,1.661,3.026,-108.984
1743403876.27,-0.043,-0.052,-0.364,0.068,-0.377,-0.250,-6.414,18.836,-48.552,1.801,2.631,-109.359
1743403876.29,-0.087,-0.066,-0.293,-0.193,-0.399,-0.233,-6.814,18.885,-48.476,1.711,2.189,-109.720
1743403876.31,0.050,-0.075,-0.299,-0.430,-0.422,-0.153,-7.284,18.584,-48.626,1.364,1.719,-110.024
1743403876.33,0.088,-0.086,-0.211,-0.776,-0.460,-0.075,-7.960,19.314,-48.525,0.675,1.228,-110.218
1743403876.35,-0.011,-0.065,-0.321,-1.015,-0.451,-0.046,-8.586,19.886,-48.102,-0.349,0.701,-110.366
1743403876.37,-0.029,-0.057,-0.250,-1.295,-0.364,0.026,-9.186,20.789,-47.638,-1.671,0.228,-110.477
1743403876.39,0.026,-0.046,-0.245,-1.460,-0.312,0.117,-9.617,22.033,-46.815,-3.244,-0.142,-110.489
1743403876.41,-0.015,-0.072,-0.151,-1.579,-0.272,0.149,-9.888,23.528,-46.075,-5.001,-0.456,-110.443
1743403876.43,-0.037,-0.044,-0.180,-1.703,-0.277,0.142,-10.025,24.897,-45.333,-6.875,-0.764,-110.392
1743403876.45,0.004,-0.083,-0.156,-1.768,-0.231,0.128,-10.296,26.758,-44.444,-8.850,-1.028,-110.368
1743403876.47,0.020,-0.094,-0.062,-1.885,-0.206,0.049,-10.741,28.370,-43.345,-10.944,-1.277,-110.420
1743403876.49,0.025,-0.133,0.004,-1.981,-0.186,0.074,-10.981,29.947,-42.449,-13.165,-1.477,-110.508
1743403876.51,-0.012,-0.135,-0.176,-1.875,-0.326,0.010,-11.396,31.561,-41.222,-15.377,-1.779,-110.638
1743403876.53,0.105,-0.097,0.008,-1.870,-0.322,-0.033,-11.601,33.186,-39.980,-17.501,-2.188,-110.855
1743403876.55,0.134,-0.169,0.093,-1.766,-0.325,-0.045,-11.797,34.867,-38.576,-19.590,-2.583,-111.097
1743403876.57,0.148,-0.192,-0.089,-1.587,-0.522,-0.059,-12.271,36.420,-37.287,-21.492,-3.122,-111.372
1743403876.59,0.177,-0.128,-0.060,-1.564,-0.568,-0.088,-12.879,37.459,-36.047,-23.267,-3.829,-111.692
1743403876.61,0.135,-0.149,-0.021,-1.612,-0.587,-0.152,-13.535,38.574,-34.494,-25.060,-4.618,-112.107
1743403876.63,0.050,-0.154,-0.021,-1.720,-0.572,-0.244,-14.097,40.076,-33.115,-26.929,-5.471,-112.662
1743403876.65,0.028,-0.104,0.053,-1.879,-0.399,-0.225,-14.807,40.956,-31.128,-28.944,-6.303,-113.327
1743403876.67,0.054,-0.060,0.084,-1.845,-0.267,-0.174,-15.200,42.184,-29.513,-31.068,-6.937,-113.982
1743403876.69,0.086,-0.027,-0.024,-1.610,-0.404,-0.253,-15.833,43.276,-27.839,-32.980,-7.590,-114.656
1743403876.71,0.095,-0.039,-0.017,-1.592,-0.646,-0.397,-16.248,44.459,-26.215,-34.722,-8.617,-115.525
1743403876.73,0.032,-0.072,0.012,-1.673,-0.794,-0.524,-17.089,44.989,-24.429,-36.478,-10.035,-116.644
1743403876.75,-0.049,-0.095,0.020,-1.739,-0.764,-0.639,-17.979,45.589,-22.692,-38.260,-11.740,-118.054
1743403876.77,-0.051,-0.099,0.047,-1.824,-0.607,-0.619,-19.007,46.206,-20.722,-40.088,-13.461,-119.653
1743403876.79,0.015,-0.072,0.051,-1.886,-0.427,-0.590,-19.861,46.773,-18.722,-41.968,-15.087,-121.335
1743403876.81,0.070,-0.019,0.080,-1.985,-0.389,-0.607,-20.427,47.287,-16.775,-43.908,-16.695,-123.154
1743403876.83,0.062,-0.011,0.097,-1.915,-0.542,-0.626,-21.416,47.841,-14.540,-45.843,-18.572,-125.171
1743403876.85,0.038,-0.047,0.011,-1.612,-0.748,-0.628,-21.922,48.292,-12.614,-47.505,-20.727,-127.221
1743403876.87,0.033,-0.005,-0.005,-1.480,-0.924,-0.673,-22.716,48.494,-10.634,-48.841,-23.184,-129.309
1743403876.89,0.029,-0.018,0.060,-1.624,-0.840,-0.772,-23.777,48.286,-8.712,-50.100,-25.954,-131.695
1743403876.91,0.066,-0.037,0.094,-1.762,-0.711,-0.700,-24.627,48.250,-6.793,-51.431,-28.882,-134.426
1743403876.93,0.105,-0.064,0.004,-1.680,-0.656,-0.468,-25.516,48.356,-4.707,-52.804,-31.669,-137.071
1743403876.95,0.081,-0.063,0.033,-1.693,-0.701,-0.419,-25.935,48.251,-2.679,-54.133,-34.405,-139.593
1743403876.97,0.062,-0.100,0.086,-1.749,-0.613,-0.323,-26.490,48.082,-0.803,-55.484,-37.320,-142.303
1743403876.99,0.008,-0.084,-0.002,-1.616,-0.581,-0.268,-26.859,47.921,1.186,-56.780,-40.162,-145.016
1743403877.01,-0.012,-0.108,-0.011,-1.574,-0.531,-0.255,-27.139,47.846,3.308,-57.949,-43.023,-147.728
1743403877.03,-0.041,-0.098,0.005,-1.490,-0.523,-0.221,-27.345,47.646,5.070,-59.010,-45.955,-150.565
1743403877.05,-0.014,-0.108,-0.086,-1.268,-0.702,-0.182,-27.382,47.061,6.759,-59.907,-48.877,-153.224
1743403877.07,0.030,-0.123,-0.005,-1.221,-0.638,-0.125,-27.450,46.969,8.357,-60.662,-51.756,-155.715
1743403877.09,0.050,-0.133,0.036,-1.350,-0.483,-0.047,-27.447,46.630,9.897,-61.454,-54.599,-158.318
1743403877.11,0.044,-0.127,0.039,-1.544,-0.391,0.032,-27.386,46.498,11.554,-62.369,-57.706,-161.323
1743403877.13,0.053,-0.095,0.012,-1.587,-0.320,0.161,-27.168,46.172,13.035,-63.383,-60.977,-164.646
1743403877.15,0.040,-0.030,0.017,-1.487,-0.281,0.200,-26.728,45.767,14.447,-64.378,-64.368,-168.066
1743403877.17,0.066,0.021,-0.027,-1.260,-0.299,0.316,-26.661,45.214,16.282,-65.287,-67.451,-171.198
1743403877.19,0.081,0.058,-0.028,-1.093,-0.507,0.370,-26.090,45.039,17.352,-66.142,-70.389,-173.961
1743403877.21,0.093,0.033,0.013,-0.923,-0.665,0.432,-25.727,44.554,18.738,-66.936,-73.223,-176.393
1743403877.23,0.069,0.018,-0.054,-0.873,-1.098,0.345,-24.858,44.658,19.984,-67.647,-76.271,-178.658
1743403877.25,-0.021,-0.058,-0.032,-0.694,-1.206,0.233,-24.320,44.399,21.259,-68.154,-79.663,179.098
1743403877.27,-0.093,-0.100,-0.016,-0.406,-1.111,0.192,-23.566,44.072,22.725,-68.491,-82.462,177.465
1743403877.29,-0.137,-0.067,-0.005,-0.106,-0.879,0.130,-22.754,44.005,23.757,-68.707,-84.268,176.701
1743403877.31,-0.144,-0.032,-0.038,-0.008,-0.777,0.167,-22.274,43.828,24.463,-68.868,-85.272,176.599
1743403877.33,-0.103,-0.003,0.022,-0.132,-0.481,0.232,-21.739,44.037,24.725,-69.117,-86.153,176.397
1743403877.35,-0.044,0.005,0.077,-0.165,-0.137,0.225,-21.112,43.902,25.165,-69.377,-86.947,175.879
1743403877.37,-0.006,-0.050,0.131,-0.088,0.081,0.311,-20.993,43.871,25.391,-69.694,-87.300,175.459
1743403877.39,-0.091,-0.058,0.079,0.005,-0.064,0.280,-20.741,43.886,25.531,-70.048,-87.357,175.314
1743403877.41,-0.220,-0.013,-0.050,0.171,-0.349,0.073,-20.314,44.057,25.787,-70.256,-87.305,175.592
1743403877.43,-0.257,-0.014,-0.013,0.263,-0.227,-0.084,-20.013,44.473,25.453,-70.224,-86.959,176.323
1743403877.45,-0.233,-0.054,0.040,0.244,0.001,-0.120,-20.171,44.521,25.363,-70.087,-86.251,177.141
1743403877.47,-0.196,-0.061,-0.014,0.178,0.023,-0.213,-20.030,44.169,25.091,-69.886,-85.645,177.755
1743403877.49,-0.040,-0.031,0.012,0.131,0.400,-0.206,-20.266,44.287,24.975,-69.617,-84.983,178.174
1743403877.51,0.060,-0.005,0.078,0.048,0.557,-0.119,-20.622,44.289,24.914,-69.420,-84.167,178.376
1743403877.53,0.083,0.010,0.074,0.032,0.338,-0.050,-20.922,44.315,24.493,-69.325,-83.572,178.421
1743403877.55,0.073,0.019,0.063,0.113,0.157,-0.015,-21.329,44.393,24.174,-69.283,-83.101,178.599
1743403877.57,0.024,0.007,0.015,0.225,-0.022,-0.016,-21.417,44.319,23.962,-69.246,-82.535,179.079
1743403877.59,-0.048,-0.010,-0.040,0.378,-0.028,-0.075,-21.435,44.317,23.977,-69.153,-81.725,179.977
1743403877.61,-0.087,-0.022,-0.009,0.470,0.263,-0.114,-21.364,44.495,23.684,-68.965,-80.371,-178.733
1743403877.63,-0.100,-0.053,0.016,0.475,0.454,-0.136,-21.484,44.874,23.048,-68.729,-78.631,-177.359
1743403877.65,-0.086,-0.051,-0.012,0.515,0.667,-0.170,-21.827,45.089,22.430,-68.439,-76.713,-175.982
1743403877.67,-0.048,-0.069,0.050,0.552,1.020,-0.189,-22.724,45.283,20.711,-68.088,-74.369,-174.564
1743403877.69,-0.069,-0.060,0.044,0.537,1.047,-0.257,-23.232,45.356,19.775,-67.668,-71.887,-173.202
1743403877.71,-0.088,-0.046,0.044,0.582,1.022,-0.308,-23.858,45.577,18.587,-67.153,-69.549,-171.971
1743403877.73,-0.055,-0.019,0.049,0.822,0.897,-0.338,-24.497,45.660,17.721,-66.520,-67.056,-170.497
1743403877.75,-0.032,-0.009,0.041,1.102,0.797,-0.399,-25.154,45.826,16.289,-65.683,-64.232,-168.461
1743403877.77,-0.032,-0.013,0.040,1.352,0.880,-0.404,-25.677,46.128,14.658,-64.623,-60.985,-166.001
1743403877.79,-0.065,-0.054,-0.066,1.407,0.437,-0.310,-26.262,46.230,12.892,-63.457,-57.885,-163.403
1743403877.81,0.007,-0.032,0.031,1.413,0.581,-0.197,-26.526,46.611,11.535,-62.314,-54.990,-160.789
1743403877.83,0.106,0.002,0.103,1.287,0.880,0.061,-26.698,46.698,9.758,-61.337,-51.980,-158.311
1743403877.85,0.035,0.041,-0.037,1.330,1.036,0.102,-26.550,46.931,7.959,-60.472,-48.640,-155.808
1743403877.87,0.000,0.018,-0.015,1.230,0.581,0.123,-26.750,47.359,6.138,-59.556,-45.698,-153.512
1743403877.89,-0.013,-0.039,-0.002,1.236,0.562,0.250,-26.686,47.941,4.653,-58.705,-43.221,-151.321
1743403877.91,-0.014,-0.006,-0.028,1.162,0.717,0.272,-26.549,47.854,3.247,-57.879,-40.577,-149.131
1743403877.93,0.050,0.022,0.027,1.100,0.758,0.213,-26.283,48.071,1.691,-57.084,-38.152,-147.262
1743403877.95,0.045,-0.032,-0.038,1.409,0.342,0.153,-26.264,48.064,0.286,-56.072,-35.894,-145.409
1743403877.97,0.011,-0.083,-0.074,1.677,-0.022,0.096,-26.304,48.166,-1.292,-54.692,-34.137,-143.456
1743403877.99,0.009,-0.111,-0.101,1.557,0.278,0.022,-26.132,48.310,-3.020,-53.148,-32.531,-141.603
1743403878.01,0.081,-0.061,0.015,0.970,0.512,0.083,-26.038,47.907,-4.579,-51.931,-31.009,-140.323
1743403878.03,0.157,-0.023,0.111,0.808,0.647,0.264,-25.746,48.044,-5.805,-51.217,-29.541,-139.291
1743403878.05,0.129,-0.035,0.088,1.358,0.650,0.326,-25.397,48.205,-7.060,-50.334,-27.646,-137.925
1743403878.07,0.021,-0.135,-0.221,1.885,0.214,0.360,-25.062,47.591,-8.927,-48.804,-25.794,-136.075
1743403878.09,0.067,-0.046,-0.051,1.319,0.560,0.237,-24.689,47.656,-10.739,-47.222,-24.119,-134.439
1743403878.11,0.130,-0.032,0.135,0.886,0.657,0.350,-24.354,47.357,-12.117,-46.260,-22.597,-133.371
1743403878.13,0.128,0.040,0.146,1.117,0.660,0.479,-23.524,47.226,-13.252,-45.415,-20.953,-132.167
1743403878.15,0.016,0.001,-0.004,1.576,0.355,0.486,-23.019,47.001,-14.888,-44.153,-19.296,-130.701
1743403878.17,-0.040,0.002,-0.103,1.585,0.129,0.428,-22.479,46.800,-16.453,-42.560,-18.045,-129.235
1743403878.19,0.015,0.064,0.043,1.167,0.334,0.451,-21.959,46.418,-17.975,-41.213,-16.934,-127.990
1743403878.21,-0.053,0.039,0.114,1.128,0.368,0.502,-21.472,46.138,-19.206,-40.146,-15.778,-126.846
1743403878.23,-0.086,-0.027,0.077,1.425,0.383,0.477,-20.844,45.519,-20.575,-38.916,-14.558,-125.700
1743403878.25,-0.063,-0.070,-0.161,1.519,0.419,0.324,-20.331,45.160,-21.986,-37.329,-13.429,-124.617
1743403878.27,0.042,-0.060,-0.059,1.027,0.377,0.345,-19.819,44.506,-23.535,-35.984,-12.475,-123.808
1743403878.29,0.058,-0.027,0.060,0.856,0.490,0.543,-18.964,44.268,-24.440,-35.082,-11.489,-122.955
1743403878.31,0.051,-0.002,0.020,0.969,0.546,0.593,-18.321,44.118,-25.691,-34.190,-10.306,-121.943
1743403878.33,0.065,-0.085,-0.118,1.089,0.566,0.449,-17.407,43.816,-26.688,-33.127,-9.085,-121.007
1743403878.35,0.109,-0.098,-0.076,1.010,0.431,0.261,-16.992,43.203,-27.695,-31.992,-8.203,-120.348
1743403878.37,0.088,-0.048,0.079,1.024,0.525,0.247,-16.411,42.797,-28.851,-30.892,-7.361,-119.864
1743403878.39,-0.046,0.067,-0.011,0.974,0.415,0.254,-15.885,42.346,-29.636,-29.776,-6.586,-119.392
1743403878.41,-0.122,0.127,-0.011,0.927,0.275,0.311,-15.179,41.787,-30.893,-28.749,-5.934,-118.894
1743403878.43,-0.124,0.037,-0.026,1.045,0.245,0.275,-14.787,41.442,-31.785,-27.657,-5.432,-118.396
1743403878.45,-0.061,-0.040,0.017,1.095,0.261,0.274,-14.229,40.707,-32.704,-26.455,-4.895,-117.925
1743403878.46,-0.017,-0.091,-0.087,1.000,0.389,0.115,-13.943,39.788,-33.776,-25.274,-4.382,-117.564
1743403878.49,-0.058,-0.083,-0.105,0.863,0.365,-0.014,-13.483,39.059,-34.546,-24.217,-3.869,-117.437
1743403878.50,-0.053,0.017,-0.021,0.823,0.265,0.030,-13.279,38.489,-35.351,-23.269,-3.486,-117.385
1743403878.53,0.010,0.032,0.020,0.935,0.193,0.006,-12.888,37.847,-36.275,-22.282,-3.178,-117.290
1743403878.55,0.116,-0.108,0.252,1.191,-0.059,-0.031,-12.818,37.032,-36.922,-21.070,-3.061,-117.241
1743403878.56,0.220,-0.386,-0.087,1.076,0.048,-0.233,-12.832,35.958,-38.003,-19.725,-3.174,-117.314
1743403878.58,0.023,-0.221,-0.181,1.067,0.361,-0.375,-12.950,35.160,-38.752,-18.510,-2.968,-117.633
1743403878.60,0.017,0.002,0.045,0.963,0.287,-0.242,-12.814,34.132,-39.577,-17.320,-2.741,-117.968
1743403878.62,0.125,0.030,0.064,0.868,0.555,0.101,-12.574,33.494,-40.312,-16.271,-2.258,-117.997
1743403878.64,-0.025,-0.034,0.114,0.698,0.559,0.241,-11.760,32.697,-40.766,-15.382,-1.541,-117.731
1743403878.66,0.080,-0.022,-0.151,0.760,0.503,0.201,-11.247,32.341,-41.398,-14.589,-0.846,-117.429
1743403878.68,0.134,-0.039,-0.151,0.920,0.269,0.126,-10.886,31.601,-42.162,-13.622,-0.367,-117.232
1743403878.70,0.101,-0.037,-0.001,0.867,0.325,0.256,-10.356,30.837,-42.567,-12.584,-0.021,-117.012
1743403878.72,-0.076,-0.036,0.077,0.685,0.674,0.524,-9.945,30.168,-43.335,-11.685,0.626,-116.553
1743403878.74,-0.261,-0.033,0.145,0.563,0.931,0.565,-8.830,29.691,-43.617,-10.994,1.723,-115.884
1743403878.76,-0.033,0.024,-0.042,0.835,0.399,0.356,-7.773,29.187,-44.199,-10.185,2.635,-115.360
1743403878.78,0.201,-0.168,-0.082,0.916,0.106,0.368,-7.111,28.585,-44.739,-9.156,2.919,-114.985
1743403878.80,-0.011,-0.025,-0.008,0.888,0.346,0.283,-6.801,27.784,-45.258,-8.090,3.216,-114.619
1743403878.82,-0.225,-0.096,0.006,0.798,0.646,0.120,-6.177,26.880,-45.593,-7.128,3.823,-114.442
1743403878.84,-0.075,-0.020,-0.128,0.826,0.624,0.074,-5.339,26.078,-45.968,-6.196,4.583,-114.375
1743403878.86,0.011,0.017,-0.027,1.097,-0.054,-0.026,-4.684,25.275,-46.475,-5.128,4.990,-114.403
1743403878.88,0.145,0.096,-0.245,1.273,-0.440,0.146,-4.926,23.944,-47.111,-3.734,4.608,-114.441
1743403878.90,-0.023,-0.038,0.066,1.041,-0.052,0.091,-4.899,22.958,-47.594,-2.400,4.300,-114.335
1743403878.92,-0.145,-0.062,-0.035,0.854,0.279,-0.115,-4.798,21.817,-48.201,-1.323,4.461,-114.398
1743403878.94,-0.048,-0.021,-0.105,0.758,0.332,-0.138,-4.580,21.092,-48.461,-0.416,4.826,-114.596
1743403878.96,0.018,0.007,-0.126,0.779,0.143,-0.158,-4.292,20.107,-48.593,0.420,5.142,-114.788
1743403878.98,0.021,0.033,-0.251,0.931,-0.243,-0.260,-4.326,19.367,-48.943,1.382,5.064,-115.078
1743403879.00,0.045,0.008,-0.102,0.806,-0.297,-0.347,-4.425,18.395,-49.576,2.363,4.739,-115.478
1743403879.02,0.045,-0.003,-0.168,0.613,-0.132,-0.297,-4.722,17.615,-49.759,3.144,4.531,-115.871
1743403879.04,0.010,-0.015,-0.196,0.395,-0.039,-0.220,-4.972,17.036,-50.056,3.676,4.458,-116.159
1743403879.06,0.031,-0.014,-0.220,0.238,-0.062,-0.156,-5.155,16.361,-50.159,4.024,4.427,-116.359
1743403879.08,0.048,-0.022,-0.316,0.189,-0.222,-0.157,-5.284,16.200,-50.332,4.243,4.296,-116.517
1743403879.10,0.093,-0.034,-0.325,0.019,-0.363,-0.143,-5.719,16.038,-50.125,4.368,3.954,-116.671
1743403879.12,0.090,-0.067,-0.315,-0.215,-0.336,-0.096,-6.010,16.241,-50.078,4.260,3.546,-116.782
1743403879.14,0.023,-0.088,-0.247,-0.567,-0.235,0.001,-6.358,16.193,-49.997,3.814,3.217,-116.787
1743403879.16,0.055,-0.060,-0.308,-0.842,-0.132,0.114,-6.742,16.602,-50.193,3.006,2.998,-116.651
1743403879.18,0.141,-0.080,-0.206,-1.131,-0.091,0.253,-6.994,17.353,-49.690,1.888,2.869,-116.389
1743403879.20,0.125,-0.003,-0.220,-1.389,-0.062,0.485,-7.008,18.783,-49.225,0.470,2.775,-115.878
1743403879.22,0.046,-0.002,-0.293,-1.533,-0.158,0.588,-6.992,20.230,-48.442,-1.171,2.652,-115.166
1743403879.24,0.045,-0.082,-0.149,-1.830,-0.061,0.672,-7.029,21.591,-47.958,-3.054,2.543,-114.354
1743403879.26,-0.057,-0.072,-0.178,-2.015,-0.009,0.616,-6.873,23.548,-47.116,-5.221,2.564,-113.514
1743403879.28,-0.104,-0.092,-0.091,-2.130,0.132,0.478,-6.630,25.389,-46.234,-7.559,2.715,-112.785
1743403879.30,-0.108,-0.094,-0.085,-2.104,0.122,0.244,-6.514,27.587,-44.737,-9.960,2.952,-112.254
1743403879.32,-0.059,-0.129,-0.052,-2.017,-0.018,0.025,-6.388,29.386,-43.657,-12.318,3.075,-112.001
1743403879.34,0.047,-0.126,-0.117,-1.835,-0.342,-0.112,-6.434,31.433,-42.464,-14.509,2.873,-111.972
1743403879.36,0.107,-0.141,-0.055,-1.641,-0.531,-0.137,-6.931,33.017,-41.330,-16.494,2.363,-112.037
1743403879.38,0.060,-0.169,-0.014,-1.514,-0.664,-0.189,-7.585,34.423,-40.103,-18.294,1.627,-112.197
1743403879.40,0.112,-0.134,-0.034,-1.604,-0.627,-0.141,-8.230,35.742,-39.175,-20.055,0.807,-112.384
1743403879.42,0.161,-0.077,-0.022,-1.749,-0.530,-0.099,-9.152,36.994,-37.736,-21.985,0.116,-112.540
1743403879.44,0.127,-0.079,-0.013,-1.725,-0.590,-0.172,-9.738,38.129,-36.357,-23.981,-0.587,-112.753
1743403879.46,0.110,-0.118,-0.033,-1.604,-0.721,-0.237,-10.417,39.734,-34.669,-25.871,-1.444,-113.087
1743403879.48,0.080,-0.126,-0.028,-1.581,-0.773,-0.303,-10.961,40.810,-33.284,-27.676,-2.512,-113.540
1743403879.50,0.016,-0.119,-0.012,-1.559,-0.660,-0.395,-11.870,41.842,-31.777,-29.441,-3.590,-114.126
1743403879.52,-0.028,-0.114,-0.001,-1.584,-0.637,-0.497,-12.599,42.842,-30.340,-31.184,-4.718,-114.909
1743403879.54,-0.006,-0.110,0.031,-1.693,-0.621,-0.543,-13.629,43.856,-28.888,-32.992,-5.907,-115.848
1743403879.56,-0.016,-0.094,-0.033,-1.767,-0.680,-0.560,-14.628,44.523,-27.174,-34.881,-7.228,-116.928
1743403879.58,0.015,-0.084,-0.041,-1.909,-0.636,-0.532,-15.512,45.314,-25.194,-36.869,-8.646,-118.088
1743403879.60,0.064,-0.097,0.020,-1.985,-0.513,-0.596,-16.497,46.025,-23.163,-38.968,-10.080,-119.395
1743403879.62,0.107,-0.103,0.067,-1.984,-0.403,-0.665,-17.146,46.929,-21.196,-41.068,-11.556,-120.925
1743403879.64,0.117,-0.090,0.014,-1.866,-0.474,-0.701,-17.935,47.602,-18.995,-43.049,-13.152,-122.616
1743403879.66,0.132,-0.068,-0.004,-1.761,-0.605,-0.717,-18.839,48.224,-17.013,-44.864,-15.006,-124.443
1743403879.68,0.099,-0.073,-0.028,-1.707,-0.793,-0.803,-19.769,48.484,-15.010,-46.517,-17.214,-126.442
1743403879.70,0.089,-0.061,-0.015,-1.798,-1.021,-0.892,-20.698,48.710,-12.867,-48.099,-19.953,-128.773
1743403879.72,0.130,-0.021,0.074,-1.948,-1.000,-0.860,-21.886,48.997,-10.405,-49.718,-23.109,-131.430
1743403879.74,0.129,-0.030,0.131,-2.040,-0.833,-0.696,-23.018,49.132,-8.356,-51.423,-26.306,-134.237
1743403879.76,0.050,-0.009,0.066,-1.905,-0.685,-0.553,-23.942,48.903,-6.025,-53.088,-29.369,-137.071
1743403879.78,0.009,-0.044,-0.011,-1.739,-0.803,-0.247,-24.453,48.983,-3.656,-54.646,-32.171,-139.551
1743403879.80,-0.024,-0.049,-0.014,-1.667,-0.970,-0.270,-24.881,48.754,-1.601,-56.106,-35.069,-141.859
1743403879.82,-0.020,-0.071,0.094,-1.799,-0.871,-0.344,-25.169,48.981,0.900,-57.460,-38.394,-144.571
1743403879.84,-0.015,-0.112,0.164,-1.864,-0.826,-0.158,-25.197,48.644,2.989,-58.883,-41.889,-147.613
1743403879.86,0.002,-0.110,-0.005,-1.665,-1.066,-0.007,-25.625,48.597,5.019,-60.303,-45.467,-150.521
1743403879.88,0.020,-0.117,-0.070,-1.439,-0.919,0.008,-25.639,48.037,7.262,-61.500,-48.953,-153.189
1743403879.90,0.031,-0.123,0.054,-1.502,-0.598,-0.067,-25.540,47.819,9.439,-62.532,-52.267,-156.008
1743403879.92,0.032,-0.136,0.042,-1.592,-0.634,-0.026,-25.358,47.541,11.243,-63.509,-55.821,-159.287
1743403879.94,0.045,-0.082,0.017,-1.648,-0.899,0.281,-25.335,47.206,13.082,-64.602,-59.792,-162.745
1743403879.96,0.070,-0.021,0.099,-1.618,-0.838,0.669,-24.763,46.935,14.918,-65.979,-63.843,-166.103
1743403879.98,0.045,0.019,0.041,-1.434,-0.848,0.672,-23.959,46.746,16.885,-67.446,-67.743,-169.358
1743403880.00,0.015,0.019,-0.099,-1.086,-0.962,0.287,-23.092,46.494,18.501,-68.468,-71.648,-172.465
1743403880.02,0.007,-0.084,-0.077,-0.698,-0.941,0.039,-22.507,46.359,20.276,-68.908,-75.122,-175.053
1743403880.04,-0.019,-0.134,-0.080,-0.488,-0.971,0.126,-21.839,46.051,21.509,-69.132,-77.827,-176.783
1743403880.06,-0.036,-0.090,-0.030,-0.673,-0.882,0.313,-21.203,45.823,22.695,-69.505,-80.408,-178.406
1743403880.08,-0.008,-0.007,0.053,-0.995,-0.654,0.390,-20.710,45.317,23.318,-70.040,-83.721,178.984
1743403880.10,0.024,0.021,0.076,-1.012,-0.467,0.428,-20.073,44.977,24.531,-70.609,-87.570,175.540
1743403880.12,-0.007,0.005,0.028,-0.561,-0.158,0.370,-19.289,44.728,25.584,-71.079,-90.602,172.717
1743403880.14,-0.039,-0.058,-0.000,-0.110,0.118,0.311,-18.806,44.505,26.356,-71.460,-91.654,171.567
1743403880.16,-0.086,-0.071,-0.042,-0.030,-0.146,0.288,-18.483,44.317,26.837,-71.797,-91.791,171.362
1743403880.18,-0.158,-0.011,-0.124,-0.148,-0.686,0.216,-18.153,44.267,27.089,-72.084,-92.637,171.000
1743403880.20,-0.153,0.023,-0.037,-0.127,-0.534,0.193,-17.632,44.208,27.170,-72.303,-93.964,170.386
1743403880.22,-0.100,-0.013,0.118,-0.013,-0.025,0.170,-17.196,44.250,27.617,-72.502,-94.587,170.062
1743403880.24,-0.107,-0.049,0.188,0.000,0.271,0.099,-16.835,44.202,27.966,-72.661,-94.409,170.042
1743403880.26,-0.153,-0.060,0.099,-0.086,0.035,0.004,-16.761,44.183,27.974,-72.715,-94.369,169.858
1743403880.28,-0.166,-0.027,0.019,-0.108,-0.249,-0.075,-16.838,44.081,27.818,-72.659,-94.882,169.467
1743403880.30,-0.065,0.009,0.022,-0.033,-0.195,-0.074,-16.865,43.952,28.039,-72.556,-95.405,169.195
1743403880.32,0.001,0.009,-0.015,0.041,-0.121,-0.029,-16.773,44.145,28.354,-72.498,-95.523,169.242
1743403880.34,0.014,0.014,-0.033,0.067,-0.086,0.009,-16.606,43.962,28.239,-72.494,-95.448,169.445
1743403880.36,-0.017,0.002,0.008,0.138,0.031,0.019,-16.613,44.065,28.205,-72.513,-95.123,169.819
1743403880.38,-0.087,-0.032,0.071,0.183,0.121,0.008,-16.451,44.050,28.171,-72.540,-94.446,170.431
1743403880.40,-0.133,-0.041,0.057,0.197,0.057,-0.013,-16.489,44.176,27.892,-72.552,-93.637,171.166
1743403880.42,-0.135,-0.038,0.047,0.192,0.052,-0.054,-16.595,44.319,27.559,-72.529,-92.879,171.914
1743403880.44,-0.083,-0.045,0.087,0.195,0.233,-0.071,-16.747,44.753,27.382,-72.461,-92.030,172.645
1743403880.46,-0.051,-0.049,0.110,0.218,0.306,-0.093,-17.015,44.614,26.950,-72.368,-90.966,173.415
1743403880.48,-0.047,-0.039,0.084,0.250,0.103,-0.145,-17.097,44.859,26.465,-72.221,-89.911,174.259
1743403880.50,-0.031,-0.028,0.029,0.322,-0.180,-0.202,-17.278,45.110,26.368,-71.997,-89.013,175.270
1743403880.52,-0.020,-0.008,0.023,0.413,-0.274,-0.234,-17.486,45.175,25.747,-71.735,-88.031,176.595
1743403880.54,-0.022,-0.021,0.036,0.533,-0.195,-0.236,-17.675,45.389,25.566,-71.439,-86.734,178.250
1743403880.56,-0.051,-0.046,0.060,0.643,-0.068,-0.226,-17.862,45.595,24.933,-71.131,-84.960,-179.716
1743403880.58,-0.107,-0.041,0.086,0.728,0.283,-0.300,-17.896,45.839,24.195,-70.754,-82.698,-177.426
1743403880.60,-0.130,-0.039,0.052,0.823,0.779,-0.362,-18.499,45.923,23.119,-70.245,-79.782,-174.965
1743403880.62,-0.136,-0.040,0.046,0.899,1.316,-0.428,-19.314,46.468,22.018,-69.602,-76.214,-172.444
1743403880.64,-0.151,-0.021,-0.010,0.974,1.715,-0.512,-20.340,46.719,20.392,-68.800,-72.115,-169.916
1743403880.66,-0.170,-0.066,0.027,0.917,2.061,-0.610,-21.271,46.678,18.677,-67.821,-67.921,-167.722
1743403880.68,-0.190,-0.137,0.012,0.850,1.929,-0.662,-22.557,46.624,16.985,-66.747,-64.114,-166.117
1743403880.70,-0.054,-0.116,-0.065,0.836,1.659,-0.754,-23.902,46.927,15.247,-65.600,-61.006,-164.906
1743403880.72,0.076,-0.071,-0.015,1.013,1.465,-0.866,-24.909,46.685,13.375,-64.264,-58.278,-163.888
1743403880.74,0.148,-0.008,0.016,1.365,0.850,-0.643,-26.211,46.644,11.372,-62.754,-55.656,-162.467
1743403880.76,0.297,0.126,-0.118,1.743,0.465,0.029,-26.634,46.806,9.715,-61.462,-52.625,-159.766
1743403880.78,0.217,0.167,-0.074,1.661,0.755,0.162,-26.817,47.208,7.727,-60.278,-48.938,-156.371
1743403880.80,0.192,0.115,0.040,0.998,0.819,0.278,-26.592,47.445,5.993,-59.434,-45.907,-153.818
1743403880.82,0.192,0.055,0.157,0.951,0.950,0.452,-26.218,47.896,4.588,-58.994,-43.065,-151.793
1743403880.84,0.074,0.015,-0.065,1.411,0.602,0.297,-25.954,48.160,3.234,-58.293,-40.195,-149.420
1743403880.86,0.043,-0.055,-0.023,1.661,0.245,0.241,-25.594,48.520,1.584,-57.070,-37.550,-146.894
1743403880.88,0.073,-0.040,0.024,1.487,0.219,0.411,-25.417,48.372,-0.463,-55.816,-35.285,-144.384
1743403880.90,0.096,0.012,0.118,1.217,0.505,0.407,-24.966,48.521,-1.976,-54.837,-33.052,-142.170
1743403880.92,0.070,-0.044,-0.018,1.504,0.488,0.402,-24.774,48.732,-3.631,-53.811,-30.772,-140.158
1743403880.94,-0.046,-0.111,-0.214,2.021,0.006,0.313,-24.152,48.659,-5.290,-52.230,-28.664,-137.858
1743403880.96,-0.069,-0.157,-0.163,1.927,-0.136,0.126,-24.102,48.441,-7.233,-50.336,-27.192,-135.797
1743403880.98,0.013,-0.158,-0.051,1.476,0.240,0.020,-23.975,48.435,-8.948,-48.596,-26.044,-134.325
1743403881.00,0.136,-0.083,0.187,1.007,0.665,0.153,-23.919,47.996,-10.506,-47.373,-24.815,-133.340
1743403881.02,0.212,0.029,0.308,1.129,0.974,0.488,-23.430,47.753,-11.688,-46.477,-22.947,-132.186
1743403881.04,0.022,-0.065,-0.132,1.833,0.420,0.634,-22.838,47.639,-13.478,-45.145,-20.846,-130.385
1743403881.06,0.036,0.040,-0.226,1.538,0.350,0.356,-22.346,47.429,-15.257,-43.428,-19.237,-128.675
1743403881.08,0.071,-0.006,0.111,1.058,0.323,0.312,-21.665,47.148,-16.711,-42.207,-18.127,-127.606
1743403881.10,-0.031,-0.008,0.173,1.277,0.458,0.336,-21.327,46.719,-17.743,-41.069,-17.039,-126.615
1743403881.12,-0.046,-0.077,0.090,1.677,0.639,0.312,-20.546,46.345,-19.550,-39.568,-15.685,-125.520
1743403881.14,-0.047,-0.060,-0.233,1.664,0.603,0.211,-20.246,45.777,-21.383,-37.714,-14.284,-124.511
1743403881.16,0.053,0.055,-0.116,0.941,0.397,0.445,-19.798,45.158,-22.956,-36.336,-13.256,-123.671
1743403881.18,-0.040,0.012,0.111,0.760,0.500,0.714,-18.973,45.011,-23.833,-35.614,-12.155,-122.606
1743403881.20,-0.065,-0.017,0.130,1.012,0.823,0.599,-18.079,44.708,-24.807,-34.789,-10.690,-121.438
1743403881.22,-0.028,-0.100,-0.025,1.370,0.645,0.405,-17.239,44.235,-26.016,-33.543,-9.266,-120.486
1743403881.24,-0.037,-0.113,-0.141,1.327,0.300,0.290,-16.526,43.843,-27.560,-32.022,-8.339,-119.742
1743403881.26,-0.040,-0.050,-0.018,1.050,0.267,0.221,-15.962,43.127,-28.705,-30.740,-7.759,-119.192
1743403881.28,-0.030,-0.008,0.112,1.128,0.363,0.229,-15.475,42.280,-29.570,-29.567,-7.159,-118.718
1743403881.30,0.038,-0.021,0.088,1.447,0.215,0.296,-14.998,41.749,-30.831,-28.154,-6.538,-118.173
1743403881.32,0.042,-0.070,-0.060,1.518,0.106,0.272,-14.428,40.843,-32.029,-26.448,-6.102,-117.571
1743403881.34,-0.116,-0.086,-0.086,1.155,0.329,0.126,-14.230,40.032,-33.102,-24.954,-5.717,-117.143
1743403881.36,-0.121,-0.041,0.059,1.124,0.538,0.068,-13.825,39.142,-34.348,-23.713,-5.055,-116.876
1743403881.38,0.011,-0.003,0.007,1.383,0.167,-0.126,-13.485,38.187,-35.342,-22.280,-4.613,-116.773
1743403881.40,0.115,-0.077,0.091,1.424,0.000,-0.282,-13.733,37.034,-36.523,-20.636,-4.574,-116.879
1743403881.42,0.093,-0.164,0.037,1.527,-0.034,-0.513,-13.681,35.898,-37.708,-18.926,-4.714,-117.218
1743403881.44,0.039,-0.108,-0.031,1.426,0.120,-0.511,-14.060,34.612,-38.979,-17.171,-4.828,-117.698
1743403881.46,0.017,0.004,-0.002,1.278,0.234,-0.381,-14.130,33.378,-39.814,-15.591,-4.724,-118.082
1743403881.48,0.128,-0.043,0.002,1.200,0.232,-0.248,-14.017,32.087,-41.000,-14.172,-4.516,-118.313
1743403881.49,0.111,-0.033,-0.052,1.240,0.322,-0.140,-13.832,30.819,-41.667,-12.751,-4.250,-118.401
1743403881.52,0.005,-0.020,0.035,1.129,0.511,-0.135,-13.775,29.789,-42.228,-11.385,-3.777,-118.459
1743403881.54,0.097,0.031,-0.116,1.052,0.729,0.015,-13.020,28.850,-43.050,-10.145,-3.076,-118.433
1743403881.55,0.033,-0.006,-0.067,0.976,0.676,0.114,-12.361,27.877,-43.970,-8.998,-2.239,-118.292
1743403881.57,0.012,0.028,0.006,1.135,0.207,0.146,-11.734,27.075,-44.611,-7.810,-1.614,-118.055
1743403881.59,0.096,-0.042,-0.178,1.351,-0.146,0.035,-11.515,25.808,-45.449,-6.379,-1.617,-117.900
1743403881.61,0.150,-0.088,-0.021,1.205,0.008,0.023,-11.410,24.653,-45.883,-4.875,-1.724,-117.791
1743403881.63,-0.001,-0.126,-0.030,0.978,0.248,-0.100,-11.344,23.423,-46.733,-3.658,-1.572,-117.763
1743403881.65,-0.012,-0.048,-0.078,0.838,0.438,-0.146,-11.079,22.511,-47.212,-2.611,-1.173,-117.867
1743403881.67,0.032,0.018,-0.121,0.727,0.505,-0.040,-10.421,21.807,-47.566,-1.723,-0.631,-117.935
1743403881.69,0.019,0.045,-0.158,0.714,0.351,0.026,-10.154,21.289,-47.698,-0.908,-0.138,-117.887
1743403881.71,-0.007,0.104,-0.193,0.723,0.032,0.158,-9.487,20.521,-48.230,-0.089,0.061,-117.744
1743403881.73,-0.006,0.048,-0.239,0.676,-0.033,0.203,-9.427,20.027,-48.097,0.722,0.036,-117.468
1743403881.75,-0.017,-0.004,-0.195,0.546,-0.007,0.158,-9.414,19.312,-48.402,1.414,0.016,-117.204
1743403881.77,-0.082,-0.003,-0.319,0.517,-0.188,0.056,-9.342,18.887,-48.651,2.035,-0.094,-117.034
1743403881.79,-0.101,-0.038,-0.228,0.306,-0.193,-0.047,-9.517,18.060,-49.118,2.500,-0.321,-116.987
1743403881.81,-0.088,-0.035,-0.296,0.110,-0.156,-0.130,-9.642,18.069,-48.848,2.744,-0.502,-117.025
1743403881.83,-0.068,-0.056,-0.315,-0.090,-0.179,-0.183,-10.148,17.731,-49.057,2.762,-0.686,-117.185
1743403881.85,0.001,-0.021,-0.300,-0.358,-0.186,-0.085,-10.369,17.763,-48.835,2.511,-0.898,-117.315
1743403881.87,-0.023,-0.025,-0.299,-0.598,-0.181,-0.003,-10.748,17.903,-48.794,1.966,-1.091,-117.354
1743403881.89,0.011,-0.009,-0.311,-0.840,-0.135,0.147,-10.876,18.706,-48.532,1.147,-1.284,-117.269
1743403881.91,0.029,-0.020,-0.258,-1.131,-0.088,0.293,-11.009,19.374,-48.258,0.016,-1.424,-117.020
1743403881.93,0.008,-0.043,-0.228,-1.317,-0.052,0.314,-11.112,20.569,-47.901,-1.413,-1.483,-116.675
1743403881.95,0.038,-0.068,-0.198,-1.455,-0.113,0.262,-11.170,21.617,-47.269,-2.984,-1.575,-116.399
1743403881.97,0.083,-0.051,-0.177,-1.673,-0.103,0.363,-11.196,23.189,-46.509,-4.784,-1.677,-116.093
1743403881.99,-0.003,-0.086,-0.160,-1.904,-0.025,0.421,-11.291,24.950,-45.700,-6.854,-1.719,-115.701
1743403882.01,0.024,-0.059,-0.146,-1.992,-0.030,0.383,-11.148,26.580,-44.455,-9.095,-1.683,-115.307
1743403882.03,0.060,-0.107,-0.058,-2.053,-0.044,0.348,-11.000,28.362,-43.662,-11.433,-1.657,-114.957
1743403882.05,0.027,-0.137,-0.104,-1.966,-0.230,0.259,-10.956,30.450,-42.270,-13.733,-1.740,-114.674
1743403882.07,-0.010,-0.127,-0.108,-1.887,-0.367,0.121,-10.965,32.156,-41.003,-15.945,-2.043,-114.525
1743403882.09,0.043,-0.168,-0.028,-1.790,-0.425,-0.000,-11.343,33.903,-39.821,-18.049,-2.525,-114.560
1743403882.11,0.099,-0.181,-0.041,-1.660,-0.535,-0.100,-11.700,35.438,-38.439,-20.009,-3.114,-114.744
1743403882.13,0.100,-0.167,-0.022,-1.543,-0.665,-0.138,-12.339,36.650,-37.135,-21.827,-3.892,-115.027
1743403882.15,0.103,-0.165,-0.065,-1.589,-0.753,-0.197,-13.078,37.880,-35.767,-23.577,-4.858,-115.403
1743403882.17,0.108,-0.125,-0.001,-1.689,-0.587,-0.233,-13.675,39.047,-34.264,-25.430,-5.828,-115.883
1743403882.19,0.076,-0.137,-0.001,-1.656,-0.556,-0.234,-14.289,40.344,-32.985,-27.304,-6.696,-116.444
1743403882.21,0.085,-0.157,-0.023,-1.702,-0.553,-0.152,-14.908,41.451,-31.187,-29.158,-7.598,-116.974
1743403882.23,0.101,-0.118,0.051,-1.823,-0.464,-0.116,-15.559,42.616,-29.380,-31.144,-8.401,-117.478
1743403882.25,0.064,-0.127,-0.090,-1.776,-0.621,-0.228,-16.014,43.687,-27.743,-33.150,-9.330,-118.087
1743403882.27,0.075,-0.111,-0.080,-1.883,-0.710,-0.355,-16.578,44.572,-25.894,-35.138,-10.577,-118.949
1743403882.29,0.089,-0.134,0.003,-1.950,-0.747,-0.389,-17.433,45.370,-23.885,-37.211,-12.032,-120.035
1743403882.31,0.108,-0.148,-0.005,-1.912,-0.749,-0.454,-18.336,46.250,-21.749,-39.257,-13.641,-121.278
1743403882.33,0.078,-0.160,-0.068,-1.761,-0.842,-0.504,-18.970,46.958,-19.692,-41.148,-15.418,-122.689
1743403882.35,0.053,-0.142,-0.036,-1.844,-0.887,-0.585,-19.770,47.617,-17.464,-42.924,-17.491,-124.285
1743403882.37,0.062,-0.141,0.038,-2.035,-0.863,-0.616,-20.708,47.950,-15.457,-44.799,-19.805,-126.206
1743403882.39,0.085,-0.145,0.090,-2.146,-0.572,-0.588,-21.501,48.419,-12.812,-46.796,-22.195,-128.389
1743403882.41,0.075,-0.105,0.017,-2.135,-0.552,-0.611,-22.454,48.723,-10.400,-48.770,-24.544,-130.776
1743403882.43,0.101,-0.050,0.037,-2.216,-0.638,-0.689,-23.023,48.961,-8.128,-50.674,-27.313,-133.506
1743403882.45,0.101,-0.079,0.116,-2.307,-0.469,-0.658,-23.815,48.971,-5.574,-52.568,-30.401,-136.644
1743403882.47,0.045,-0.069,0.067,-2.131,-0.419,-0.586,-24.500,48.792,-3.023,-54.365,-33.522,-139.964
1743403882.49,0.009,-0.059,-0.057,-1.929,-0.769,-0.329,-25.119,48.960,-0.678,-55.945,-36.706,-143.035
1743403882.51,-0.024,-0.034,0.075,-1.977,-0.835,-0.233,-25.431,48.471,1.777,-57.494,-40.119,-146.006
1743403882.53,-0.019,-0.026,0.084,-2.083,-0.723,-0.110,-25.742,48.238,4.103,-59.075,-43.767,-149.256
1743403882.55,-0.010,-0.011,0.027,-2.076,-0.631,0.025,-25.800,48.073,6.623,-60.718,-47.538,-152.744
1743403882.57,0.012,-0.040,-0.012,-2.024,-0.703,0.124,-25.696,47.675,9.018,-62.310,-51.462,-156.363
1743403882.59,0.020,-0.060,0.051,-1.931,-0.879,0.295,-25.499,47.345,11.221,-63.831,-55.664,-160.100
1743403882.61,-0.001,-0.074,0.123,-1.946,-1.124,0.540,-25.092,46.746,13.346,-65.417,-60.214,-163.877
1743403882.63,-0.017,-0.069,0.078,-1.863,-1.332,0.620,-24.458,46.452,15.784,-67.026,-65.303,-167.957
1743403882.65,0.002,-0.095,-0.060,-1.631,-1.594,0.499,-23.435,46.300,18.088,-68.376,-70.942,-172.233
1743403882.67,0.038,-0.130,0.009,-1.442,-1.481,0.371,-22.525,46.059,20.444,-69.335,-76.697,-176.521
1743403882.69,0.053,-0.113,0.084,-1.290,-1.198,0.279,-21.643,45.488,22.547,-69.975,-82.202,179.224
1743403882.71,0.045,-0.050,0.095,-1.150,-0.963,0.290,-20.515,45.281,24.444,-70.427,-87.178,175.197
1743403882.73,-0.022,-0.046,-0.008,-0.760,-0.809,0.226,-19.741,44.545,26.117,-70.741,-91.412,171.788
1743403882.75,-0.098,-0.067,-0.101,-0.244,-0.567,0.205,-19.098,44.184,27.122,-70.947,-93.789,170.081
1743403882.77,-0.078,-0.048,0.077,-0.169,-0.239,0.368,-18.419,43.670,27.440,-71.247,-94.921,169.381
1743403882.79,-0.085,-0.052,0.214,-0.296,0.145,0.489,-18.049,43.903,27.852,-71.723,-95.898,168.387
1743403882.81,-0.157,-0.053,0.181,-0.329,0.333,0.463,-17.607,43.782,28.267,-72.234,-96.915,166.984
1743403882.83,-0.251,-0.021,0.107,-0.222,0.240,0.272,-17.387,43.758,28.342,-72.619,-97.763,165.719
1743403882.85,-0.350,-0.009,0.044,0.020,0.040,-0.015,-17.240,43.894,28.557,-72.752,-98.056,165.249
1743403882.87,-0.333,-0.023,0.083,0.208,0.162,-0.198,-17.033,43.891,28.673,-72.630,-97.452,165.786
1743403882.89,-0.152,-0.022,0.101,0.258,0.305,-0.252,-17.251,43.645,28.468,-72.400,-96.191,166.789
1743403882.91,-0.000,-0.018,0.023,0.316,0.115,-0.213,-17.781,43.799,28.124,-72.158,-94.849,167.918
1743403882.93,0.081,-0.020,-0.007,0.397,-0.044,-0.145,-17.979,43.899,27.670,-71.989,-93.536,169.276
1743403882.95,0.090,-0.006,0.053,0.460,0.112,-0.075,-18.127,43.923,27.537,-71.882,-91.998,170.866
1743403882.97,0.059,-0.014,0.103,0.502,0.377,-0.033,-18.235,43.992,26.936,-71.839,-90.031,172.639
1743403882.99,-0.005,-0.013,0.131,0.520,0.642,-0.094,-18.477,44.360,26.275,-71.761,-87.666,174.494
1743403883.01,-0.078,-0.031,0.127,0.567,0.775,-0.205,-18.688,44.813,25.779,-71.548,-85.017,176.408
1743403883.03,-0.154,-0.074,0.089,0.729,0.676,-0.252,-19.080,45.121,25.100,-71.203,-82.121,178.574
1743403883.05,-0.207,-0.098,0.047,1.011,0.630,-0.365,-19.624,45.230,23.875,-70.701,-78.744,-178.610
1743403883.07,-0.193,-0.089,0.058,1.304,1.000,-0.596,-20.136,45.602,22.855,-69.861,-74.591,-175.122
1743403883.09,-0.196,-0.108,0.180,1.357,1.773,-0.764,-20.818,45.847,21.307,-68.642,-69.785,-171.659
1743403883.11,-0.160,-0.100,0.123,1.375,2.024,-0.798,-21.985,46.210,19.430,-67.220,-64.831,-168.741
1743403883.13,-0.025,-0.060,-0.007,1.483,1.247,-0.821,-23.380,46.346,17.091,-65.621,-60.563,-166.145
1743403883.15,0.082,-0.045,0.073,1.364,0.784,-0.625,-24.738,46.632,15.155,-64.075,-57.425,-163.866
1743403883.17,0.156,0.028,0.053,1.507,0.974,-0.360,-25.650,46.595,12.945,-62.700,-54.473,-161.597
1743403883.19,0.117,0.094,-0.104,1.770,0.816,-0.014,-26.261,46.730,11.308,-61.384,-50.785,-158.689
1743403883.21,0.073,0.118,-0.130,1.963,0.160,0.121,-26.353,46.889,9.051,-60.022,-47.233,-155.222
1743403883.23,0.055,0.080,-0.026,1.652,0.149,0.257,-26.514,47.514,5.076,-58.702,-44.376,-151.982
1743403883.25,0.064,0.025,0.163,1.274,1.194,0.389,-26.201,47.826,3.277,-57.755,-41.370,-149.330
1743403883.27,0.089,-0.082,-0.101,1.334,1.021,0.491,-25.887,48.214,1.250,-56.967,-37.950,-146.870
1743403883.29,0.151,-0.062,-0.116,1.420,0.514,0.473,-25.424,48.495,-0.345,-56.032,-34.963,-144.371
1743403883.31,0.124,-0.066,-0.118,1.782,0.165,0.383,-24.998,48.656,-2.056,-54.791,-32.545,-141.864
1743403883.33,0.124,-0.061,-0.007,1.875,0.084,0.246,-24.742,48.643,-3.934,-53.187,-30.485,-139.476
1743403883.35,0.115,-0.087,0.020,1.947,-0.040,0.253,-24.527,48.439,-5.964,-51.402,-28.760,-137.357
1743403883.37,0.060,-0.158,0.039,1.950,0.033,0.456,-24.186,48.509,-7.623,-49.634,-27.111,-135.152
1743403883.39,-0.015,-0.210,-0.075,2.034,0.293,0.446,-24.067,47.965,-9.926,-47.822,-25.202,-132.914
1743403883.41,-0.023,-0.215,-0.074,1.710,0.461,0.236,-23.611,47.948,-11.779,-45.984,-23.394,-131.089
1743403883.43,0.058,-0.143,0.150,1.309,0.714,0.166,-23.213,47.479,-13.594,-44.506,-21.918,-129.925
1743403883.45,0.072,-0.053,0.093,1.368,1.053,0.345,-22.606,47.329,-15.051,-43.201,-20.106,-128.818
1743403883.47,0.065,0.127,-0.074,1.362,0.875,0.365,-21.934,47.067,-16.899,-41.846,-18.099,-127.590
1743403883.49,0.086,0.197,0.040,1.318,0.553,0.324,-21.408,46.638,-18.229,-40.516,-16.596,-126.512
1743403883.51,0.045,0.135,0.117,1.573,0.325,0.348,-20.795,46.165,-19.849,-39.051,-15.443,-125.469
1743403883.53,0.036,0.028,0.002,1.836,0.303,0.399,-20.142,45.588,-21.637,-37.252,-14.367,-124.309
1743403883.55,0.002,-0.014,-0.071,1.508,0.302,0.361,-19.694,44.796,-23.531,-35.457,-13.358,-123.207
1743403883.57,-0.056,-0.016,0.070,1.162,0.494,0.454,-18.989,44.459,-24.795,-34.117,-12.378,-122.266
1743403883.59,-0.160,-0.034,0.097,1.255,0.574,0.491,-18.289,43.819,-26.061,-32.903,-11.215,-121.297
1743403883.61,-0.089,-0.084,0.036,1.599,0.520,0.440,-17.567,43.235,-27.464,-31.398,-10.068,-120.319
1743403883.63,0.107,-0.093,-0.025,1.597,0.441,0.214,-17.002,42.639,-29.023,-29.623,-9.100,-119.526
1743403883.65,0.197,-0.085,0.004,1.584,0.482,0.128,-16.556,41.625,-30.193,-27.869,-8.357,-119.007
1743403883.67,0.111,-0.047,-0.014,1.473,0.158,0.270,-15.907,40.667,-31.852,-26.151,-7.701,-118.495
1743403883.69,-0.036,-0.017,-0.070,1.447,-0.081,0.347,-15.613,39.675,-33.030,-24.561,-7.434,-117.845
1743403883.71,-0.057,-0.019,0.154,1.279,0.236,0.395,-15.353,38.565,-34.353,-23.067,-7.086,-117.182
1743403883.73,0.020,-0.202,-0.083,1.191,0.365,0.339,-14.796,37.985,-35.272,-21.719,-6.503,-116.518
1743403883.75,0.032,-0.198,-0.189,1.081,0.489,0.182,-14.223,37.074,-36.434,-20.471,-5.823,-116.052
1743403883.77,0.087,-0.041,-0.004,1.225,0.216,0.030,-13.865,36.286,-37.143,-19.199,-5.345,-115.795
1743403883.79,0.257,-0.040,0.167,1.392,0.160,0.090,-13.612,35.004,-38.369,-17.688,-5.095,-115.599
1743403883.81,0.155,-0.147,0.143,1.225,0.112,0.228,-13.113,33.999,-39.317,-16.198,-4.871,-115.257
1743403883.83,-0.106,-0.144,-0.396,1.161,0.210,0.124,-12.937,32.931,-40.273,-14.906,-4.562,-114.891
1743403883.85,-0.315,0.053,-0.285,1.169,0.315,-0.100,-12.783,32.038,-40.656,-13.539,-4.269,-114.782
1743403883.87,0.137,-0.052,0.069,1.086,0.356,0.036,-12.467,31.086,-41.551,-12.263,-3.881,-114.740
1743403883.89,0.132,0.002,0.211,1.060,0.470,0.183,-12.016,30.117,-42.254,-11.033,-3.325,-114.522
1743403883.91,-0.030,-0.017,0.135,1.077,0.268,0.284,-11.303,29.347,-42.895,-9.859,-2.819,-114.148
1743403883.93,-0.100,0.047,-0.295,1.206,-0.082,0.136,-11.098,28.347,-43.731,-8.552,-2.705,-113.816
1743403883.95,-0.142,-0.030,-0.283,1.203,0.085,-0.052,-10.798,27.338,-44.258,-7.155,-2.744,-113.673
1743403883.97,-0.096,-0.018,0.080,0.947,0.496,-0.053,-10.494,26.221,-45.104,-5.941,-2.410,-113.670
1743403883.99,0.057,-0.045,0.107,0.940,0.577,-0.095,-10.112,25.516,-45.701,-4.866,-1.731,-113.660
1743403884.01,0.034,-0.026,0.056,1.154,-0.039,-0.284,-9.480,24.661,-46.069,-3.672,-1.376,-113.803
1743403884.03,0.167,0.096,-0.470,1.329,-0.395,-0.107,-9.867,23.111,-46.734,-2.227,-1.747,-113.975
1743403884.05,-0.100,-0.027,-0.126,0.918,-0.084,-0.109,-10.387,21.836,-47.350,-0.917,-2.054,-114.005
1743403884.07,-0.121,-0.061,-0.105,0.676,0.295,-0.160,-10.077,21.114,-47.658,-0.016,-1.909,-114.100
1743403884.09,0.045,-0.006,-0.001,0.436,0.465,-0.060,-9.638,20.377,-48.061,0.634,-1.456,-114.168
1743403884.11,0.014,0.031,-0.236,0.462,0.231,-0.067,-9.325,19.782,-48.074,1.107,-1.005,-114.170
1743403884.13,-0.002,0.019,-0.383,0.475,-0.132,-0.143,-9.253,19.398,-48.503,1.677,-0.995,-114.255
1743403884.15,0.061,0.002,-0.310,0.250,-0.149,-0.056,-9.424,19.168,-48.698,2.113,-1.159,-114.318
1743403884.17,-0.032,-0.018,-0.317,-0.025,-0.081,0.015,-9.685,18.592,-48.809,2.228,-1.292,-114.296
1743403884.19,-0.058,-0.037,-0.299,-0.223,-0.061,-0.001,-9.554,18.725,-48.811,2.082,-1.362,-114.259
1743403884.21,-0.020,-0.009,-0.321,-0.394,-0.087,0.017,-9.757,18.886,-48.661,1.739,-1.449,-114.222
1743403884.23,-0.027,-0.015,-0.303,-0.569,-0.201,0.009,-9.921,19.289,-48.491,1.182,-1.617,-114.195
1743403884.25,-0.007,-0.041,-0.270,-0.790,-0.222,0.032,-10.247,19.670,-48.492,0.410,-1.864,-114.175
1743403884.27,-0.019,-0.052,-0.282,-0.991,-0.266,0.006,-10.453,20.758,-47.970,-0.609,-2.142,-114.164
1743403884.29,0.102,-0.056,-0.200,-1.240,-0.260,0.076,-10.768,21.834,-47.277,-1.874,-2.454,-114.163
1743403884.31,0.098,-0.049,-0.155,-1.431,-0.155,0.197,-10.897,22.991,-46.506,-3.423,-2.683,-114.044
1743403884.33,-0.017,-0.056,-0.120,-1.619,-0.069,0.183,-11.280,24.641,-46.105,-5.171,-2.806,-113.894
1743403884.35,-0.005,-0.035,-0.210,-1.723,-0.028,0.194,-11.426,25.955,-45.237,-7.093,-2.839,-113.781
1743403884.37,0.080,-0.044,-0.106,-1.908,-0.013,0.259,-11.456,27.504,-44.198,-9.167,-2.840,-113.632
1743403884.39,0.091,-0.083,-0.109,-1.956,0.009,0.233,-11.354,29.424,-43.096,-11.402,-2.794,-113.454
1743403884.41,0.028,-0.153,-0.025,-1.952,-0.105,0.146,-11.414,31.060,-41.957,-13.636,-2.824,-113.378
1743403884.43,0.053,-0.134,-0.116,-1.841,-0.188,0.099,-11.511,32.678,-40.629,-15.815,-2.966,-113.360
1743403884.45,0.045,-0.130,-0.075,-1.760,-0.330,-0.019,-11.727,34.563,-39.426,-17.869,-3.300,-113.441
1743403884.46,0.045,-0.128,-0.021,-1.718,-0.398,-0.119,-11.920,35.887,-38.024,-19.833,-3.779,-113.669
1743403884.48,0.094,-0.140,-0.005,-1.641,-0.438,-0.125,-12.384,37.213,-36.664,-21.750,-4.372,-113.991
1743403884.50,0.158,-0.122,-0.095,-1.625,-0.536,-0.113,-12.957,38.652,-35.265,-23.578,-5.045,-114.308
1743403884.52,0.144,-0.088,0.022,-1.611,-0.540,-0.189,-13.668,39.639,-33.677,-25.422,-5.812,-114.704
1743403884.54,0.055,-0.113,0.020,-1.406,-0.705,-0.340,-14.268,41.050,-32.119,-27.115,-6.747,-115.269
1743403884.56,0.017,-0.163,-0.104,-1.232,-0.826,-0.353,-14.876,41.569,-30.796,-28.524,-7.981,-115.970
1743403884.58,0.055,-0.133,-0.040,-1.542,-0.673,-0.227,-15.869,42.221,-29.669,-30.012,-9.148,-116.640
1743403884.60,0.041,-0.161,-0.011,-1.834,-0.555,-0.178,-16.548,43.192,-27.945,-31.899,-10.186,-117.293
1743403884.62,-0.020,-0.156,0.020,-1.932,-0.415,-0.383,-16.955,44.267,-26.037,-33.971,-11.183,-118.164
1743403884.64,-0.028,-0.169,-0.076,-1.828,-0.483,-0.570,-17.686,45.228,-24.201,-35.962,-12.372,-119.386
1743403884.66,0.030,-0.117,-0.024,-1.967,-0.491,-0.658,-18.608,45.832,-22.219,-37.885,-13.823,-120.885
1743403884.68,0.089,-0.088,0.071,-2.191,-0.431,-0.589,-19.367,46.499,-20.243,-40.010,-15.409,-122.590
1743403884.70,0.134,-0.086,0.082,-2.220,-0.314,-0.527,-20.279,47.388,-17.816,-42.272,-16.970,-124.355
1743403884.72,0.092,-0.066,0.044,-2.090,-0.436,-0.611,-20.714,47.725,-15.632,-44.425,-18.658,-126.260
1743403884.74,0.069,-0.052,-0.018,-1.949,-0.662,-0.674,-21.565,48.407,-13.269,-46.343,-20.795,-128.381
1743403884.76,0.065,-0.042,0.017,-1.945,-0.737,-0.760,-22.612,48.353,-11.264,-48.083,-23.318,-130.740
1743403884.78,0.075,-0.036,0.087,-2.012,-0.798,-0.798,-23.129,48.518,-8.981,-49.763,-26.214,-133.449
1743403884.80,0.077,-0.035,0.088,-2.073,-0.685,-0.768,-24.186,48.662,-6.560,-51.400,-29.386,-136.442
1743403884.82,0.020,-0.053,0.083,-2.105,-0.452,-0.644,-25.067,48.313,-4.081,-53.040,-32.486,-139.599
1743403884.84,-0.030,-0.067,0.092,-2.139,-0.460,-0.308,-25.722,48.338,-1.928,-54.733,-35.492,-142.728
1743403884.86,-0.027,-0.101,0.093,-2.066,-0.538,-0.015,-26.067,48.118,0.358,-56.568,-38.383,-145.569
1743403884.88,-0.008,-0.102,0.025,-1.897,-0.730,0.072,-26.027,48.139,2.811,-58.335,-41.303,-148.222
1743403884.90,0.030,-0.094,-0.080,-1.755,-0.829,0.141,-25.864,48.086,4.931,-59.938,-44.415,-150.799
1743403884.92,0.008,-0.080,0.035,-1.879,-0.643,0.150,-25.832,47.791,7.256,-61.481,-47.743,-153.643
1743403884.94,0.002,-0.146,0.099,-1.948,-0.460,0.233,-25.466,47.830,9.455,-63.086,-51.211,-156.925
1743403884.96,-0.030,-0.109,0.029,-1.873,-0.749,0.182,-25.153,47.247,11.588,-64.600,-55.194,-160.627
1743403884.98,-0.018,-0.069,-0.082,-1.486,-0.820,0.227,-24.871,46.920,13.592,-65.826,-59.375,-164.241
1743403885.00,0.004,-0.027,-0.063,-1.358,-0.870,0.369,-24.244,46.857,15.551,-66.891,-63.119,-167.306
1743403885.02,0.040,-0.026,-0.023,-1.435,-1.189,0.426,-23.565,46.758,17.133,-67.986,-67.313,-170.598
1743403885.04,0.090,-0.036,-0.039,-1.370,-1.248,0.413,-22.965,46.152,18.821,-68.995,-72.158,-174.283
1743403885.06,0.096,-0.044,-0.021,-1.200,-1.001,0.427,-22.177,45.942,20.900,-69.853,-76.912,-177.997
1743403885.08,0.042,-0.047,0.034,-0.998,-0.808,0.430,-21.191,45.676,22.137,-70.571,-81.100,178.633
1743403885.10,-0.002,-0.062,0.086,-0.771,-0.725,0.448,-20.402,45.356,23.641,-71.200,-84.700,175.718
1743403885.12,-0.112,-0.081,-0.022,-0.379,-0.833,0.267,-19.773,45.253,24.837,-71.667,-87.477,173.701
1743403885.14,-0.191,-0.061,-0.031,-0.061,-0.919,0.094,-18.951,44.872,25.207,-71.860,-89.185,172.979
1743403885.16,-0.210,-0.030,0.031,-0.061,-0.628,0.125,-18.472,44.764,26.005,-71.977,-90.214,172.838
1743403885.18,-0.182,-0.029,0.055,-0.236,-0.162,0.131,-17.962,44.982,26.361,-72.125,-91.199,172.285
1743403885.20,-0.121,-0.020,0.065,-0.277,0.378,0.118,-17.778,44.564,26.697,-72.250,-92.064,171.221
1743403885.22,-0.074,-0.002,0.037,-0.143,0.420,0.122,-17.605,44.591,26.878,-72.378,-92.326,170.397
1743403885.24,-0.063,0.005,0.046,-0.001,0.106,0.076,-17.923,44.411,26.789,-72.498,-92.312,170.097
1743403885.26,-0.064,0.000,0.044,0.160,-0.143,0.005,-17.844,44.566,26.853,-72.541,-92.053,170.396
1743403885.28,-0.055,-0.019,0.040,0.234,-0.130,-0.017,-17.746,44.466,26.605,-72.538,-91.492,171.172
1743403885.30,-0.045,-0.027,0.070,0.247,0.032,-0.011,-17.634,44.654,26.736,-72.525,-90.664,172.089
1743403885.32,-0.068,-0.051,0.087,0.275,0.102,-0.042,-17.747,44.661,26.387,-72.503,-89.637,173.070
1743403885.34,-0.081,-0.064,0.082,0.348,0.137,-0.124,-17.917,44.964,26.290,-72.404,-88.402,174.225
1743403885.36,-0.048,-0.053,0.094,0.413,0.224,-0.169,-17.954,44.904,25.622,-72.209,-86.837,175.642
1743403885.38,-0.017,-0.025,0.094,0.434,0.308,-0.150,-18.064,45.240,25.346,-71.992,-85.085,177.165
1743403885.40,0.001,-0.018,0.104,0.502,0.484,-0.124,-18.413,45.239,24.833,-71.784,-83.085,178.804
1743403885.42,-0.015,-0.050,0.118,0.637,0.733,-0.135,-18.754,45.740,24.144,-71.550,-80.516,-179.222
1743403885.44,-0.062,-0.058,0.098,0.873,1.028,-0.189,-19.197,45.605,23.152,-71.201,-77.172,-176.755
1743403885.46,-0.090,-0.057,-0.025,1.252,1.256,-0.222,-19.650,46.173,22.223,-70.659,-72.607,-173.331
1743403885.48,-0.099,-0.025,-0.057,1.348,1.162,-0.407,-20.450,46.361,20.542,-69.817,-67.574,-169.455
1743403885.50,-0.111,-0.053,0.083,1.154,1.473,-0.517,-21.092,46.738,18.779,-68.722,-63.219,-166.381
1743403885.52,-0.110,-0.112,0.144,1.146,1.641,-0.538,-21.942,46.943,17.088,-67.584,-59.359,-164.190
1743403885.54,-0.125,-0.093,-0.065,1.475,0.968,-0.587,-22.979,47.337,15.666,-66.247,-55.632,-161.842
1743403885.56,-0.090,-0.045,-0.108,1.838,0.430,-0.543,-23.725,47.314,13.453,-64.594,-52.403,-159.069
1743403885.58,-0.010,0.046,0.012,1.915,0.444,-0.419,-24.602,47.576,11.582,-62.788,-49.214,-156.054
1743403885.60,0.033,0.086,0.056,1.804,0.462,-0.128,-25.104,47.516,9.211,-61.106,-46.143,-153.149
1743403885.62,0.049,0.058,0.116,1.688,0.357,0.225,-25.300,47.896,7.322,-59.743,-43.136,-150.289
1743403885.64,0.082,-0.008,-0.092,1.860,0.473,0.507,-25.343,47.904,5.348,-58.515,-39.967,-146.997
1743403885.66,0.078,-0.062,-0.032,1.406,0.892,0.393,-25.076,48.449,3.733,-57.333,-36.539,-143.953
1743403885.68,0.232,-0.011,0.175,0.959,1.278,0.272,-24.761,49.090,1.529,-56.481,-33.732,-142.076
1743403885.70,0.276,0.006,0.203,1.312,1.011,0.482,-24.258,49.063,-0.215,-55.666,-30.821,-140.265
1743403885.72,0.033,-0.078,-0.065,2.332,-0.298,0.537,-23.869,49.217,-1.987,-54.160,-28.217,-137.597
1743403885.74,-0.106,-0.117,-0.317,2.626,-0.429,0.367,-23.466,49.312,-3.852,-51.778,-26.294,-134.534
1743403885.76,0.043,-0.071,-0.020,1.619,-0.030,0.136,-23.105,49.268,-6.270,-49.652,-24.972,-132.481
1743403885.78,0.204,-0.046,0.327,1.142,0.705,0.302,-22.881,49.035,-8.259,-48.416,-23.701,-131.249
1743403885.80,0.131,0.024,0.343,1.608,1.176,0.467,-22.588,48.627,-9.851,-47.179,-21.416,-129.769
1743403885.82,-0.246,-0.165,-0.232,2.379,0.099,0.397,-22.076,48.566,-11.621,-45.218,-19.263,-127.919
1743403885.84,-0.107,-0.037,-0.311,1.823,-0.070,0.068,-21.497,48.185,-13.854,-42.863,-18.338,-126.464
1743403885.86,0.194,-0.047,0.292,1.023,0.654,0.240,-21.256,47.406,-15.939,-41.473,-17.470,-125.666
1743403885.88,0.071,-0.014,0.173,1.527,0.700,0.316,-20.925,47.164,-17.556,-40.259,-15.992,-124.708
1743403885.90,-0.076,0.038,-0.180,1.932,0.485,0.046,-20.392,46.819,-19.130,-38.324,-14.697,-123.730
1743403885.92,0.017,0.142,-0.078,1.427,0.436,-0.068,-19.869,46.025,-20.969,-36.412,-13.850,-123.208
1743403885.94,0.013,0.130,0.138,1.137,0.562,0.203,-19.849,45.247,-22.686,-35.053,-13.022,-122.725
1743403885.96,-0.064,0.102,0.112,1.298,0.591,0.377,-19.300,44.836,-24.158,-33.795,-11.907,-121.962
1743403885.98,-0.033,0.017,-0.072,1.539,0.472,0.327,-18.474,43.989,-25.504,-32.267,-10.803,-121.081
1743403886.00,0.079,-0.010,-0.060,1.343,0.533,0.169,-18.035,43.437,-27.038,-30.663,-9.893,-120.425
1743403886.02,0.007,-0.121,0.072,1.267,0.593,0.229,-16.757,41.817,-29.818,-29.274,-8.984,-119.890
1743403886.04,-0.095,-0.105,-0.003,1.377,0.354,0.085,-16.430,41.241,-30.833,-27.793,-8.160,-119.405
1743403886.06,0.051,-0.018,0.051,1.397,0.318,0.055,-15.824,40.309,-32.489,-26.229,-7.703,-119.090
1743403886.08,0.225,-0.022,0.162,1.519,0.393,0.214,-15.584,39.450,-33.775,-24.618,-7.094,-118.669
1743403886.10,0.186,-0.149,-0.127,1.501,0.221,0.184,-15.177,38.184,-35.154,-22.885,-6.526,-118.160
1743403886.12,-0.052,-0.153,-0.089,1.239,0.258,0.123,-14.710,37.328,-36.240,-21.363,-6.152,-117.789
1743403886.14,-0.127,-0.040,0.023,1.171,0.433,0.202,-14.139,36.659,-37.561,-20.014,-5.653,-117.428
1743403886.16,0.117,-0.040,0.152,1.146,0.428,0.326,-13.409,35.764,-38.299,-18.746,-4.952,-116.935
1743403886.18,0.167,-0.234,-0.045,1.091,0.416,0.343,-12.844,35.059,-38.997,-17.502,-4.379,-116.377
1743403886.20,-0.051,-0.188,-0.137,1.183,0.507,0.083,-12.099,33.961,-40.073,-16.230,-3.703,-115.968
1743403886.22,0.013,-0.057,0.010,1.256,0.492,-0.100,-11.957,32.894,-40.964,-14.821,-3.154,-115.899
1743403886.24,0.157,-0.094,0.081,1.256,0.339,-0.066,-11.552,31.728,-41.976,-13.387,-2.633,-115.891
1743403886.26,0.078,-0.052,-0.117,1.324,0.105,0.034,-11.300,30.562,-42.816,-11.927,-2.398,-115.823
1743403886.28,-0.204,0.023,-0.153,1.203,0.198,0.028,-10.998,29.377,-43.481,-10.446,-2.262,-115.677
1743403886.30,-0.271,-0.014,-0.151,1.048,0.582,-0.096,-10.786,28.548,-43.863,-9.178,-1.794,-115.631
1743403886.32,0.014,-0.108,-0.030,1.084,0.587,-0.266,-10.148,27.438,-44.996,-7.968,-1.120,-115.765
1743403886.34,0.210,-0.002,0.032,1.137,0.157,-0.235,-9.719,26.210,-45.555,-6.700,-0.735,-116.031
1743403886.36,0.159,-0.055,-0.063,1.262,-0.156,-0.067,-9.812,24.936,-46.477,-5.296,-0.736,-116.133
1743403886.38,-0.035,0.043,-0.135,1.096,-0.041,0.055,-9.682,23.876,-46.970,-3.947,-0.908,-116.066
1743403886.40,-0.119,-0.079,-0.248,0.940,0.224,0.036,-9.667,22.887,-47.525,-2.803,-0.772,-115.938
1743403886.42,-0.085,-0.056,-0.172,0.925,0.115,-0.126,-9.357,21.984,-47.912,-1.738,-0.529,-115.921
1743403886.44,0.247,-0.005,-0.119,0.889,-0.140,0.030,-9.371,20.775,-48.209,-0.692,-0.568,-115.968
1743403886.46,0.140,-0.010,-0.129,0.775,-0.366,0.278,-9.347,20.313,-48.656,0.238,-0.839,-115.687
1743403886.48,-0.203,0.021,-0.523,0.741,-0.444,0.210,-9.608,19.334,-48.783,1.145,-1.376,-115.315
1743403886.50,-0.167,-0.075,-0.234,0.345,-0.084,0.119,-10.058,18.998,-48.948,1.757,-1.688,-115.069
1743403886.52,0.058,-0.083,-0.196,0.001,0.037,0.093,-9.964,18.570,-48.977,1.959,-1.707,-114.910
1743403886.54,0.153,-0.047,-0.242,-0.235,-0.016,0.192,-9.956,18.737,-48.830,1.810,-1.694,-114.716
1743403886.56,-0.071,-0.038,-0.353,-0.433,-0.031,0.193,-10.034,18.938,-49.009,1.417,-1.725,-114.459
1743403886.58,-0.174,-0.035,-0.348,-0.708,0.034,0.184,-10.099,19.642,-48.463,0.775,-1.746,-114.251
1743403886.60,-0.014,-0.036,-0.216,-1.041,0.092,0.247,-10.054,20.052,-48.502,-0.245,-1.667,-114.018
1743403886.62,0.078,-0.050,-0.215,-1.280,0.134,0.307,-9.790,21.480,-47.714,-1.575,-1.532,-113.719
1743403886.64,-0.013,-0.035,-0.274,-1.445,0.120,0.306,-9.708,22.843,-47.504,-3.156,-1.369,-113.393
1743403886.66,0.022,-0.023,-0.213,-1.665,0.152,0.350,-9.611,24.200,-46.592,-4.920,-1.198,-113.065
1743403886.68,0.066,-0.041,-0.143,-1.814,0.150,0.365,-9.426,25.763,-45.766,-6.939,-0.961,-112.683
1743403886.70,0.074,-0.074,-0.140,-1.922,0.110,0.327,-9.216,27.758,-44.733,-9.068,-0.785,-112.318
1743403886.72,0.036,-0.110,-0.192,-1.979,0.062,0.208,-9.188,29.483,-43.829,-11.302,-0.636,-112.041
1743403886.74,0.059,-0.138,-0.078,-2.038,0.021,0.127,-9.013,31.337,-42.540,-13.610,-0.547,-111.886
1743403886.76,0.069,-0.169,-0.097,-1.793,-0.226,-0.040,-9.041,33.150,-41.296,-15.812,-0.640,-111.847
1743403886.78,0.034,-0.225,-0.066,-1.638,-0.427,-0.222,-9.402,34.647,-39.845,-17.752,-1.094,-112.054
1743403886.80,0.100,-0.158,-0.047,-1.699,-0.395,-0.220,-9.833,36.183,-38.765,-19.631,-1.692,-112.384
1743403886.82,0.137,-0.088,0.017,-1.757,-0.337,-0.206,-10.397,37.399,-37.218,-21.608,-2.191,-112.718
1743403886.84,0.111,-0.097,-0.082,-1.634,-0.647,-0.260,-11.236,38.667,-35.894,-23.545,-2.879,-113.119
1743403886.86,0.145,-0.087,-0.068,-1.623,-0.796,-0.254,-11.759,39.864,-34.362,-25.353,-3.920,-113.582
1743403886.88,0.106,-0.138,0.041,-1.676,-0.739,-0.241,-12.586,40.855,-32.662,-27.229,-5.010,-114.065
1743403886.90,0.007,-0.169,-0.012,-1.595,-0.609,-0.376,-13.409,42.148,-30.968,-29.042,-6.044,-114.674
1743403886.92,-0.016,-0.145,-0.000,-1.735,-0.565,-0.476,-14.166,43.153,-29.477,-30.865,-7.144,-115.510
1743403886.94,-0.014,-0.106,0.004,-1.915,-0.485,-0.512,-14.837,43.729,-27.717,-32.851,-8.258,-116.515
1743403886.96,0.022,-0.046,0.027,-2.016,-0.341,-0.499,-15.792,45.006,-25.952,-34.992,-9.351,-117.653
1743403886.98,0.071,-0.012,0.054,-1.927,-0.252,-0.485,-16.520,46.047,-23.677,-37.139,-10.359,-118.837
1743403887.00,0.066,-0.017,-0.011,-1.689,-0.521,-0.565,-17.294,46.499,-21.906,-39.053,-11.534,-120.098
1743403887.02,0.078,-0.059,-0.096,-1.560,-0.839,-0.641,-18.160,47.215,-19.850,-40.696,-13.225,-121.530
1743403887.04,0.110,-0.107,-0.072,-1.715,-0.774,-0.638,-19.070,47.605,-18.175,-42.305,-15.214,-123.108
1743403887.06,0.115,-0.120,0.033,-2.002,-0.679,-0.603,-19.786,48.253,-16.066,-44.141,-17.228,-124.882
1743403887.08,0.138,-0.114,0.118,-2.206,-0.589,-0.616,-20.684,48.433,-13.851,-46.224,-19.371,-126.895
1743403887.10,0.124,-0.085,0.131,-2.246,-0.467,-0.723,-21.611,48.960,-11.141,-48.353,-21.721,-129.300
1743403887.12,0.104,-0.054,0.047,-2.062,-0.481,-0.751,-22.407,48.996,-8.803,-50.298,-24.291,-132.012
1743403887.14,0.049,-0.054,-0.013,-1.928,-0.625,-0.663,-23.115,48.922,-6.622,-51.978,-27.044,-134.771
1743403887.16,-0.020,-0.075,0.019,-1.891,-0.779,-0.464,-23.799,49.050,-4.374,-53.591,-29.956,-137.436
1743403887.18,-0.038,-0.100,0.069,-1.903,-0.781,-0.178,-24.268,49.062,-1.682,-55.252,-32.890,-139.933
1743403887.20,-0.066,-0.093,0.058,-1.881,-0.758,-0.075,-24.618,48.979,0.259,-56.967,-35.723,-142.321
1743403887.22,-0.079,-0.065,0.041,-1.843,-0.692,-0.081,-24.717,48.759,2.662,-58.610,-38.714,-144.903
1743403887.24,-0.040,-0.097,-0.001,-1.847,-0.675,-0.035,-24.772,48.423,4.897,-60.170,-41.858,-147.679
1743403887.26,-0.025,-0.108,0.049,-1.861,-0.667,0.015,-24.525,48.413,6.988,-61.696,-45.300,-150.751
1743403887.28,0.024,-0.137,0.064,-1.820,-0.598,0.072,-24.612,48.298,9.016,-63.160,-48.888,-154.007
1743403887.30,0.035,-0.174,0.150,-1.944,-0.476,0.205,-24.406,47.699,11.114,-64.621,-52.711,-157.604
1743403887.32,0.027,-0.129,0.123,-1.940,-0.556,0.475,-24.099,47.499,13.296,-66.244,-56.764,-161.487
1743403887.34,0.023,0.045,-0.110,-1.593,-1.139,0.553,-23.395,47.488,15.566,-67.817,-61.107,-165.183
1743403887.36,0.044,0.062,-0.025,-1.245,-1.306,0.531,-22.656,47.003,17.334,-69.090,-65.486,-168.342
1743403887.38,0.036,0.016,0.115,-1.102,-1.075,0.449,-21.659,46.603,19.074,-70.126,-69.594,-171.286
1743403887.40,-0.027,-0.018,0.013,-0.917,-0.956,0.309,-20.697,46.238,20.579,-70.898,-73.446,-174.179
1743403887.42,-0.064,-0.081,-0.047,-0.702,-0.961,0.256,-20.149,46.411,22.226,-71.444,-76.912,-176.700
1743403887.43,-0.096,-0.083,-0.089,-0.458,-0.857,0.182,-19.471,45.943,23.014,-71.821,-79.789,-178.616
1743403887.45,-0.087,-0.053,-0.036,-0.367,-0.602,0.207,-18.836,45.983,23.803,-72.097,-81.880,-179.957
1743403887.47,-0.083,-0.026,0.024,-0.402,-0.324,0.288,-18.525,45.718,24.150,-72.436,-83.677,178.696
1743403887.49,-0.070,-0.008,-0.003,-0.370,-0.177,0.309,-18.048,45.615,24.939,-72.828,-85.241,177.321
1743403887.51,-0.049,0.015,0.012,-0.325,-0.119,0.268,-17.636,45.331,25.365,-73.185,-86.630,176.018
1743403887.53,-0.037,0.020,0.094,-0.248,-0.018,0.269,-17.216,45.137,25.796,-73.507,-87.776,174.901
1743403887.55,-0.046,-0.045,0.149,-0.100,0.173,0.249,-17.041,45.240,25.948,-73.814,-88.346,174.204
1743403887.57,-0.097,-0.087,0.150,0.019,0.256,0.187,-16.941,45.195,26.151,-74.066,-88.189,174.080
1743403887.59,-0.173,-0.065,0.107,0.080,0.135,0.097,-17.063,45.152,26.094,-74.225,-87.709,174.304
1743403887.61,-0.223,-0.008,0.025,0.116,-0.199,-0.034,-16.771,45.342,26.096,-74.263,-87.351,174.706
1743403887.63,-0.142,-0.012,-0.004,0.228,-0.047,-0.161,-16.823,45.567,25.818,-74.132,-86.903,175.384
1743403887.65,-0.034,-0.029,0.075,0.349,0.372,-0.161,-16.698,45.567,25.885,-73.919,-85.587,176.529
1743403887.67,0.004,-0.003,0.058,0.465,0.374,-0.135,-17.048,45.744,25.277,-73.710,-83.588,178.132
1743403887.69,0.012,-0.008,0.057,0.524,0.298,-0.142,-17.328,45.907,24.815,-73.477,-81.364,-179.934
1743403887.71,0.002,-0.046,0.092,0.555,0.359,-0.133,-17.684,45.946,24.281,-73.215,-79.061,-177.918
1743403887.73,-0.043,-0.059,0.071,0.627,0.507,-0.144,-17.873,46.357,23.611,-72.923,-76.519,-175.762
1743403887.75,-0.126,-0.070,0.120,0.665,0.784,-0.248,-18.291,46.501,22.771,-72.521,-73.663,-173.537
1743403887.77,-0.163,-0.084,0.151,0.733,1.131,-0.341,-18.550,46.673,21.772,-71.952,-70.549,-171.400
1743403887.79,-0.152,-0.072,0.163,0.820,1.452,-0.459,-19.341,47.054,20.799,-71.213,-67.080,-169.303
1743403887.81,-0.152,-0.018,0.106,1.031,1.720,-0.572,-20.245,46.946,19.426,-70.238,-63.270,-167.166
1743403887.83,-0.148,0.018,0.022,1.209,1.395,-0.723,-21.303,47.474,17.703,-68.959,-59.284,-164.892
1743403887.85,-0.098,-0.042,0.019,1.162,0.655,-0.791,-22.536,47.412,16.031,-67.497,-56.455,-163.020
1743403887.87,-0.061,-0.073,0.133,1.246,0.683,-0.656,-23.336,47.184,14.159,-66.026,-54.234,-161.391
1743403887.89,-0.005,-0.001,-0.200,1.582,0.162,-0.413,-24.211,47.138,12.603,-64.592,-51.712,-159.213
1743403887.91,0.030,0.116,-0.217,1.839,0.353,-0.350,-24.706,47.486,10.819,-62.982,-48.927,-156.319
1743403887.93,0.102,0.027,0.067,1.614,0.403,-0.195,-25.093,47.507,8.963,-61.412,-46.112,-153.671
1743403887.95,0.071,-0.033,-0.030,1.708,0.534,-0.012,-25.406,47.906,7.071,-60.001,-43.387,-151.107
1743403887.97,0.030,-0.050,-0.059,1.606,0.613,0.062,-25.556,48.063,4.966,-58.598,-40.516,-148.528
1743403887.99,0.113,-0.085,0.097,1.274,1.040,0.074,-25.638,48.295,3.226,-57.372,-37.848,-146.486
1743403888.01,0.187,-0.099,-0.039,1.350,0.818,0.297,-25.480,48.407,1.516,-56.317,-35.120,-144.572
1743403888.03,0.073,-0.013,-0.056,1.632,0.116,0.350,-25.275,48.474,-0.444,-55.124,-32.703,-142.318
1743403888.05,0.024,0.008,-0.112,1.819,-0.241,0.274,-24.951,48.593,-2.109,-53.622,-30.943,-139.995
1743403888.07,0.113,0.089,0.165,1.644,-0.094,0.182,-24.775,48.597,-3.774,-52.030,-29.556,-137.974
1743403888.09,0.222,0.022,0.120,1.900,0.194,0.314,-24.575,48.481,-5.394,-50.419,-28.015,-136.083
1743403888.11,0.065,-0.135,0.097,2.200,0.071,0.561,-24.294,48.570,-7.228,-48.566,-26.047,-133.765
1743403888.13,-0.138,-0.267,-0.374,2.169,-0.087,0.488,-23.951,48.451,-9.443,-46.466,-24.241,-131.252
1743403888.15,-0.006,-0.131,0.161,1.074,0.550,0.357,-23.427,48.154,-11.534,-44.959,-22.898,-129.642
1743403888.17,0.108,0.015,0.216,0.960,1.214,0.603,-22.857,47.765,-12.982,-44.180,-20.900,-128.375
1743403888.19,0.045,0.041,0.121,1.464,0.717,0.537,-21.937,47.650,-14.313,-43.140,-18.670,-126.862
1743403888.21,-0.012,-0.153,-0.172,2.293,0.001,0.436,-21.076,47.476,-16.227,-41.242,-17.212,-125.276
1743403888.23,0.075,-0.144,-0.251,1.892,0.124,0.226,-20.848,46.963,-18.288,-38.938,-16.297,-123.865
1743403888.25,0.155,-0.089,0.160,1.193,0.449,0.248,-20.392,46.067,-20.056,-37.379,-15.397,-123.006
1743403888.27,0.048,-0.023,0.224,1.374,0.592,0.474,-19.941,45.779,-21.665,-36.113,-14.247,-122.049
1743403888.29,-0.046,0.046,0.118,1.660,0.631,0.545,-19.523,45.124,-22.869,-34.561,-12.796,-120.853
1743403888.31,-0.068,0.069,-0.160,1.552,0.477,0.395,-18.349,44.655,-24.720,-32.831,-11.518,-119.729
1743403888.33,-0.002,0.047,0.022,1.259,0.631,0.405,-17.874,43.983,-26.280,-31.362,-10.527,-118.894
1743403888.35,0.038,0.043,0.108,1.249,0.862,0.567,-17.192,43.252,-27.675,-30.058,-9.119,-117.967
1743403888.37,-0.028,0.060,0.085,1.336,0.621,0.535,-16.233,42.553,-28.882,-28.702,-7.791,-117.012
1743403888.39,-0.030,-0.022,-0.003,1.539,0.387,0.479,-15.071,42.009,-30.294,-27.150,-6.830,-116.127
1743403888.41,-0.019,-0.130,-0.188,1.480,0.230,0.298,-14.520,41.322,-31.724,-25.425,-6.180,-115.409
1743403888.43,-0.017,-0.091,0.001,1.020,0.592,0.328,-13.717,40.499,-32.896,-24.059,-5.516,-114.886
1743403888.45,-0.051,-0.006,0.038,1.056,0.631,0.392,-13.119,39.739,-34.271,-22.949,-4.531,-114.297
1743403888.47,0.039,-0.007,0.015,1.201,0.436,0.362,-12.280,39.199,-35.140,-21.685,-3.723,-113.710
1743403888.49,0.106,-0.107,0.131,1.264,0.377,0.247,-11.874,38.331,-36.145,-20.299,-3.080,-113.218
1743403888.51,0.076,-0.277,-0.020,1.351,0.552,-0.042,-11.341,37.052,-37.327,-18.798,-2.505,-113.009
1743403888.53,-0.093,-0.126,-0.212,1.222,0.737,-0.136,-10.644,36.194,-38.418,-17.320,-1.789,-113.076
1743403888.55,-0.049,0.142,-0.166,1.158,0.544,-0.146,-10.044,35.005,-39.196,-15.990,-1.048,-113.201
1743403888.57,0.243,0.058,0.030,1.252,0.211,0.029,-9.559,33.912,-40.321,-14.607,-0.623,-113.230
1743403888.59,0.122,-0.133,0.090,1.225,0.095,0.113,-9.468,32.996,-41.081,-13.182,-0.489,-113.104
1743403888.61,0.029,-0.120,-0.105,1.094,0.349,0.049,-9.106,31.716,-41.963,-11.873,-0.236,-112.978
1743403888.63,-0.111,0.051,-0.241,0.934,0.617,0.103,-8.871,30.863,-42.818,-10.688,0.350,-112.899
1743403888.65,-0.021,0.044,-0.028,0.733,0.799,0.343,-8.144,29.869,-43.618,-9.760,1.209,-112.627
1743403888.67,0.057,0.087,-0.019,0.922,0.220,0.356,-7.374,29.167,-43.856,-8.845,1.962,-112.203
1743403888.69,0.108,-0.062,-0.109,1.012,-0.111,0.300,-6.678,28.278,-44.304,-7.677,2.013,-111.848
1743403888.71,0.042,-0.053,-0.116,0.868,-0.067,0.203,-6.357,26.769,-45.557,-6.628,1.921,-111.521
1743403888.73,-0.108,-0.082,-0.202,0.851,0.078,0.013,-6.087,25.975,-45.853,-5.613,1.924,-111.408
1743403888.75,-0.083,-0.106,-0.013,0.717,0.266,-0.006,-5.715,25.421,-46.251,-4.737,2.100,-111.404
1743403888.77,-0.125,-0.006,-0.018,0.686,0.160,-0.090,-5.602,24.638,-46.724,-3.953,2.365,-111.429
1743403888.79,0.007,0.014,-0.286,0.723,-0.176,-0.238,-5.679,23.770,-47.204,-3.149,2.339,-111.630
1743403888.81,0.150,-0.023,-0.226,0.529,-0.298,-0.121,-5.896,23.410,-46.965,-2.421,2.036,-111.829
1743403888.83,-0.025,-0.035,-0.286,0.317,-0.137,-0.046,-5.985,22.890,-47.345,-1.952,1.766,-111.872
1743403888.85,-0.112,-0.036,-0.285,0.129,-0.015,-0.081,-5.994,22.693,-47.413,-1.694,1.703,-111.894
1743403888.87,-0.013,0.005,-0.298,-0.085,-0.038,-0.050,-6.404,22.308,-47.645,-1.665,1.678,-111.951
1743403888.89,0.087,0.005,-0.287,-0.332,-0.148,0.031,-6.311,22.539,-47.493,-1.901,1.573,-111.915
1743403888.91,0.070,0.015,-0.380,-0.494,-0.200,0.112,-6.459,22.773,-47.365,-2.376,1.375,-111.780
1743403888.93,-0.012,-0.012,-0.322,-0.745,-0.231,0.146,-7.065,23.499,-46.880,-3.071,1.125,-111.598
1743403888.95,0.018,-0.036,-0.256,-1.034,-0.151,0.228,-7.084,24.196,-46.720,-4.078,0.915,-111.353
1743403888.97,0.045,-0.058,-0.251,-1.270,-0.115,0.287,-7.277,25.450,-46.107,-5.399,0.799,-111.028
1743403888.99,0.085,-0.059,-0.260,-1.444,-0.107,0.365,-7.233,26.571,-45.489,-6.935,0.710,-110.632
1743403889.01,0.017,-0.074,-0.179,-1.644,-0.108,0.366,-7.263,28.309,-44.306,-8.704,0.651,-110.173
1743403889.03,-0.038,-0.097,-0.219,-1.748,-0.164,0.291,-7.304,29.621,-43.668,-10.639,0.572,-109.776
1743403889.05,0.004,-0.113,-0.175,-1.841,-0.210,0.247,-7.341,31.297,-42.279,-12.686,0.425,-109.448
1743403889.07,0.060,-0.135,-0.041,-1.811,-0.290,0.196,-7.305,33.082,-41.145,-14.791,0.200,-109.170
1743403889.09,0.060,-0.161,-0.020,-1.653,-0.423,0.062,-7.822,34.540,-39.996,-16.766,-0.167,-109.023
1743403889.11,0.040,-0.163,-0.056,-1.573,-0.519,-0.065,-8.128,36.021,-38.567,-18.602,-0.710,-109.053
1743403889.13,0.029,-0.154,-0.011,-1.574,-0.616,-0.151,-8.962,37.259,-37.431,-20.395,-1.424,-109.242
1743403889.15,0.051,-0.150,0.015,-1.503,-0.621,-0.214,-9.501,38.346,-36.119,-22.147,-2.236,-109.543
1743403889.17,0.102,-0.146,-0.062,-1.512,-0.705,-0.241,-10.271,39.688,-34.758,-23.838,-3.138,-109.932
1743403889.19,0.126,-0.119,-0.066,-1.666,-0.665,-0.254,-11.046,40.684,-33.433,-25.620,-4.117,-110.384
1743403889.21,0.108,-0.118,0.048,-1.790,-0.515,-0.276,-11.832,41.802,-31.433,-27.581,-5.019,-110.926
1743403889.23,0.077,-0.105,0.039,-1.783,-0.416,-0.299,-12.214,43.019,-30.246,-29.586,-5.835,-111.538
1743403889.25,0.046,-0.071,-0.045,-1.767,-0.420,-0.286,-13.045,44.127,-28.296,-31.559,-6.631,-112.215
1743403889.27,0.040,-0.034,-0.031,-1.869,-0.367,-0.286,-13.624,44.905,-26.639,-33.568,-7.458,-112.934
1743403889.29,0.011,-0.063,0.009,-1.911,-0.351,-0.342,-14.070,46.038,-24.480,-35.681,-8.300,-113.751
1743403889.31,0.005,-0.107,-0.058,-1.784,-0.471,-0.498,-14.809,46.788,-22.673,-37.697,-9.351,-114.775
1743403889.33,0.056,-0.149,-0.039,-1.758,-0.528,-0.594,-15.472,47.798,-20.473,-39.564,-10.728,-116.045
1743403889.35,0.140,-0.155,-0.025,-1.857,-0.393,-0.640,-16.320,48.106,-18.758,-41.431,-12.185,-117.524
1743403889.37,0.167,-0.137,-0.006,-2.053,-0.389,-0.642,-17.175,48.645,-16.553,-43.443,-13.739,-119.199
1743403889.39,0.124,-0.119,0.041,-2.178,-0.504,-0.667,-17.982,49.253,-14.433,-45.603,-15.546,-121.097
1743403889.41,0.063,-0.076,0.036,-2.198,-0.567,-0.797,-18.978,49.544,-11.870,-47.771,-17.781,-123.336
1743403889.43,0.048,-0.033,0.012,-2.086,-0.573,-0.877,-19.864,49.765,-9.426,-49.775,-20.380,-125.976
1743403889.45,0.059,-0.017,0.031,-2.073,-0.536,-0.906,-20.938,49.783,-7.081,-51.585,-23.247,-128.887
1743403889.47,0.014,-0.032,0.087,-2.137,-0.556,-0.807,-21.598,49.775,-4.780,-53.353,-26.337,-132.039
1743403889.49,-0.007,-0.048,0.120,-2.107,-0.571,-0.529,-22.383,49.833,-2.283,-55.134,-29.540,-135.214
1743403889.51,0.004,-0.060,0.045,-1.947,-0.705,-0.185,-23.035,49.196,0.036,-56.922,-32.513,-137.971
1743403889.53,0.033,-0.072,-0.007,-1.812,-0.801,-0.071,-23.215,49.283,2.194,-58.625,-35.458,-140.429
1743403889.55,0.008,-0.052,0.075,-1.862,-0.681,-0.121,-23.274,49.394,4.561,-60.226,-38.573,-143.098
1743403889.57,-0.003,-0.096,0.117,-1.925,-0.693,-0.068,-23.285,49.266,6.723,-61.799,-42.043,-146.194
1743403889.59,-0.033,-0.104,0.136,-1.882,-0.621,-0.068,-23.105,48.700,8.853,-63.328,-45.848,-149.637
1743403889.61,-0.034,-0.063,0.064,-1.762,-0.615,0.119,-22.982,48.621,10.997,-64.716,-49.693,-153.162
1743403889.63,-0.004,0.012,0.100,-1.791,-0.853,0.502,-22.592,48.107,13.071,-66.254,-53.497,-156.452
1743403889.65,0.054,0.021,0.125,-1.785,-1.222,0.839,-21.809,48.096,15.308,-68.069,-57.676,-159.717
1743403889.67,0.051,0.039,-0.011,-1.382,-1.546,0.806,-20.712,47.873,17.355,-69.847,-62.117,-162.778
1743403889.69,-0.004,-0.007,-0.111,-0.947,-1.403,0.358,-19.614,47.778,19.177,-71.021,-66.316,-165.413
1743403889.71,-0.019,-0.098,-0.032,-0.838,-1.031,0.186,-18.894,47.469,20.589,-71.634,-70.144,-168.039
1743403889.73,-0.022,-0.130,-0.013,-0.908,-0.804,0.353,-17.988,47.022,21.754,-72.222,-73.805,-170.782
1743403889.75,-0.037,-0.126,0.064,-0.977,-0.410,0.389,-17.340,46.736,23.099,-72.923,-77.516,-173.953
1743403889.77,-0.070,-0.125,0.036,-0.706,0.007,0.249,-16.901,46.340,24.024,-73.480,-80.791,-177.140
1743403889.79,-0.123,-0.119,-0.064,-0.179,0.389,0.103,-16.650,46.257,24.663,-73.742,-82.121,-178.785
1743403889.81,-0.119,-0.072,-0.016,0.037,0.640,0.080,-16.805,45.810,24.811,-73.840,-81.624,-178.906
1743403889.83,-0.110,-0.042,0.082,0.018,0.526,0.141,-16.896,45.906,24.672,-73.960,-80.705,-178.707
1743403889.85,-0.168,0.008,0.022,-0.014,-0.105,0.073,-17.197,45.857,24.543,-74.098,-80.371,-178.641
1743403889.87,-0.155,0.053,0.018,-0.038,-0.361,-0.031,-16.795,45.815,24.652,-74.117,-80.817,-178.764
1743403889.89,-0.048,0.041,0.130,0.012,0.046,0.021,-16.538,45.828,24.752,-74.102,-81.129,-178.868
1743403889.91,-0.007,-0.012,0.238,0.190,0.457,0.069,-16.615,46.162,25.030,-74.150,-80.390,-178.439
1743403889.93,-0.061,-0.024,0.155,0.336,0.238,-0.007,-16.884,46.002,24.505,-74.133,-78.851,-177.309
1743403889.95,-0.133,-0.024,-0.025,0.339,-0.183,-0.088,-17.113,46.517,24.296,-73.994,-77.500,-175.903
1743403889.97,-0.100,-0.019,0.071,0.199,0.095,-0.101,-17.251,46.368,23.919,-73.809,-76.671,-174.952
1743403889.99,-0.072,-0.061,0.147,0.189,0.423,-0.067,-17.265,46.551,23.677,-73.672,-75.726,-174.317
1743403890.01,-0.072,-0.059,0.107,0.262,0.392,-0.094,-17.430,46.590,23.459,-73.523,-74.479,-173.525
1743403890.03,-0.050,-0.038,0.088,0.313,0.253,-0.127,-17.602,46.962,22.984,-73.309,-73.158,-172.533
1743403890.05,-0.050,-0.021,0.085,0.357,0.096,-0.160,-17.784,46.682,22.318,-73.040,-71.934,-171.462
1743403890.07,-0.061,-0.011,0.041,0.503,0.073,-0.176,-18.065,47.054,21.990,-72.702,-70.565,-170.110
1743403890.09,-0.084,-0.027,0.063,0.617,0.362,-0.218,-17.917,47.064,21.332,-72.269,-68.676,-168.352
1743403890.11,-0.117,-0.055,0.110,0.772,0.847,-0.261,-18.267,47.338,20.548,-71.714,-66.100,-166.358
1743403890.13,-0.175,-0.042,0.037,0.982,1.107,-0.309,-18.993,47.530,19.388,-70.982,-62.646,-163.929
1743403890.15,-0.186,-0.033,-0.029,0.893,1.040,-0.459,-19.660,47.904,18.129,-70.075,-59.264,-161.639
1743403890.17,-0.156,-0.034,0.029,0.637,1.217,-0.609,-20.253,47.780,16.541,-69.091,-56.936,-160.493
1743403890.19,-0.086,-0.068,0.022,0.722,1.117,-0.643,-21.134,48.128,15.376,-68.070,-55.023,-159.884
1743403890.21,-0.055,-0.054,-0.023,0.940,0.808,-0.562,-22.109,48.094,14.177,-66.964,-53.039,-158.949
1743403890.23,0.016,0.011,-0.145,1.333,0.301,-0.493,-22.660,48.142,12.924,-65.699,-50.938,-157.308
1743403890.25,0.087,0.025,-0.141,1.651,0.292,-0.370,-23.531,48.000,11.244,-64.186,-48.544,-154.972
1743403890.27,0.165,-0.007,0.026,1.521,0.256,-0.129,-23.865,48.357,9.706,-62.726,-45.871,-152.332
1743403890.29,0.095,-0.012,0.052,1.341,0.362,0.039,-24.032,48.375,7.766,-61.557,-43.478,-149.987
1743403890.31,0.053,-0.038,-0.024,1.504,0.470,0.231,-23.842,48.979,6.237,-60.445,-40.824,-147.512
1743403890.32,0.062,-0.024,-0.048,1.232,0.686,0.325,-23.842,48.920,4.426,-59.422,-37.969,-144.918
1743403890.34,0.075,-0.036,0.059,1.007,0.852,0.186,-23.877,49.313,2.933,-58.612,-35.409,-143.042
1743403890.36,0.073,-0.020,-0.026,1.380,0.496,0.119,-23.780,49.419,1.235,-57.620,-33.236,-141.386
1743403890.38,0.093,-0.005,-0.120,1.881,0.354,0.118,-23.504,49.604,-0.175,-56.079,-31.035,-139.321
1743403890.41,0.029,0.001,-0.024,1.880,-0.237,0.108,-23.461,49.321,-2.216,-54.264,-29.171,-137.229
1743403890.42,-0.033,-0.037,-0.085,1.774,-0.380,-0.027,-23.112,49.277,-4.236,-52.436,-28.197,-135.446
1743403890.44,0.083,-0.010,0.135,1.255,0.157,0.027,-23.541,49.027,-5.722,-50.882,-27.383,-134.204
1743403890.46,0.240,-0.038,0.160,1.283,0.840,0.451,-23.195,49.012,-6.931,-49.765,-25.776,-132.885
1743403890.48,0.098,-0.056,0.137,1.703,0.607,0.663,-22.746,48.838,-8.637,-48.493,-23.264,-130.857
1743403890.50,-0.096,-0.156,-0.293,2.024,-0.167,0.434,-22.244,49.002,-10.674,-46.735,-21.558,-128.730
1743403890.52,0.092,-0.083,-0.116,1.472,0.315,0.177,-21.666,48.538,-12.274,-44.925,-20.482,-127.266
1743403890.54,0.246,-0.082,0.199,1.128,0.692,0.344,-21.470,48.275,-14.227,-43.702,-19.100,-126.235
1743403890.56,0.204,-0.051,0.184,1.544,0.445,0.503,-20.860,47.726,-15.602,-42.438,-17.551,-124.977
1743403890.58,0.074,-0.044,-0.071,1.957,0.146,0.495,-20.143,47.603,-17.007,-40.657,-16.220,-123.432
1743403890.60,-0.053,0.032,-0.225,1.516,-0.011,0.275,-19.789,47.051,-18.966,-38.787,-15.308,-122.183
1743403890.62,-0.166,0.011,0.052,1.016,0.076,0.391,-19.349,46.684,-20.362,-37.536,-14.800,-121.306
1743403890.64,-0.126,0.047,0.216,1.086,0.649,0.525,-18.937,45.927,-21.507,-36.545,-13.762,-120.283
1743403890.66,-0.107,-0.064,-0.002,1.547,0.705,0.411,-18.196,45.935,-22.664,-35.215,-12.288,-119.209
1743403890.68,-0.026,-0.077,-0.161,1.509,0.310,0.183,-17.366,45.317,-24.253,-33.501,-11.263,-118.368
1743403890.70,0.120,-0.016,0.049,1.204,0.563,0.216,-16.854,44.580,-25.601,-32.046,-10.480,-117.796
1743403890.72,0.017,0.041,0.023,1.108,0.443,0.417,-16.339,43.954,-26.965,-30.807,-9.514,-117.106
1743403890.74,-0.133,0.066,0.050,1.118,0.508,0.480,-15.759,43.350,-28.005,-29.645,-8.572,-116.268
1743403890.76,-0.081,0.016,0.016,1.173,0.444,0.349,-14.967,42.948,-29.452,-28.420,-7.635,-115.503
1743403890.78,0.102,-0.084,-0.064,1.239,0.518,0.318,-14.302,42.326,-30.502,-27.088,-6.820,-114.864
1743403890.80,0.100,-0.078,-0.103,1.133,0.299,0.216,-13.912,41.252,-31.696,-25.771,-6.082,-114.355
1743403890.82,-0.024,-0.001,-0.044,1.043,0.184,0.229,-13.139,40.720,-32.665,-24.556,-5.673,-113.951
1743403890.84,-0.035,0.091,0.054,0.985,0.279,0.307,-12.909,39.903,-33.690,-23.443,-5.256,-113.489
1743403890.86,-0.048,-0.015,0.081,1.130,0.296,0.281,-12.483,39.387,-34.417,-22.271,-4.677,-112.988
1743403890.88,-0.007,-0.141,-0.110,1.130,0.093,0.069,-11.946,38.745,-35.382,-20.987,-4.374,-112.638
1743403890.90,-0.030,-0.141,-0.048,1.046,0.136,-0.029,-11.605,37.843,-36.459,-19.752,-4.184,-112.506
1743403890.92,-0.076,-0.058,-0.012,1.053,0.074,-0.103,-11.449,36.923,-37.383,-18.564,-4.060,-112.474
1743403890.94,0.030,-0.101,-0.011,1.148,0.080,-0.180,-11.432,36.197,-37.910,-17.289,-4.023,-112.538
1743403890.96,0.124,-0.157,0.043,1.189,0.103,-0.237,-11.452,34.947,-38.921,-15.927,-3.978,-112.664
1743403890.98,0.061,-0.141,0.066,1.163,0.326,-0.254,-11.563,34.019,-39.789,-14.568,-3.790,-112.857
1743403891.00,-0.024,0.011,-0.079,1.082,0.421,-0.143,-11.442,32.839,-40.699,-13.270,-3.389,-112.988
1743403891.02,-0.045,-0.005,-0.038,1.139,0.228,-0.254,-11.207,31.923,-41.516,-12.018,-2.996,-113.108
1743403891.04,0.221,0.013,-0.090,1.288,-0.218,-0.228,-10.997,30.895,-42.166,-10.600,-3.118,-113.336
1743403891.06,0.232,-0.077,0.019,1.131,-0.131,-0.093,-11.159,29.732,-42.722,-9.192,-3.352,-113.402
1743403891.08,-0.054,-0.074,-0.103,1.088,0.189,-0.193,-11.283,28.732,-43.543,-7.941,-3.311,-113.446
1743403891.10,-0.094,-0.048,-0.017,0.953,0.395,-0.177,-11.160,27.716,-44.293,-6.728,-3.011,-113.604
1743403891.12,0.079,0.039,0.070,0.732,0.667,0.137,-10.969,26.711,-44.806,-5.793,-2.369,-113.535
1743403891.14,-0.072,0.067,-0.126,0.787,0.490,0.153,-10.284,26.065,-45.037,-4.944,-1.669,-113.295
1743403891.16,-0.019,0.018,-0.100,0.734,0.385,0.137,-9.786,25.175,-45.851,-4.058,-1.174,-113.077
1743403891.18,0.006,0.003,-0.182,0.686,0.358,0.119,-9.145,24.499,-46.120,-3.266,-0.731,-112.886
1743403891.20,-0.068,0.042,-0.191,0.670,0.176,0.101,-8.710,23.828,-46.568,-2.498,-0.401,-112.703
1743403891.22,-0.093,0.026,-0.236,0.755,-0.163,-0.028,-8.391,23.161,-46.655,-1.680,-0.394,-112.631
1743403891.24,-0.007,0.021,-0.098,0.714,-0.175,-0.021,-8.379,22.399,-47.385,-0.822,-0.601,-112.608
1743403891.26,-0.112,0.032,-0.118,0.710,-0.248,-0.141,-8.339,21.747,-47.479,-0.024,-0.825,-112.632
1743403891.28,-0.131,0.004,-0.050,0.553,-0.238,-0.257,-8.536,20.871,-47.773,0.738,-1.097,-112.802
1743403891.30,-0.069,-0.041,-0.222,0.421,-0.229,-0.342,-8.806,20.147,-48.248,1.269,-1.348,-113.082
1743403891.32,-0.046,-0.052,-0.279,0.391,-0.301,-0.449,-9.416,18.735,-48.816,1.770,-1.646,-113.427
1743403891.34,0.054,-0.039,-0.122,0.207,-0.311,-0.383,-9.989,18.749,-48.509,2.117,-1.990,-113.873
1743403891.36,0.046,-0.001,-0.135,0.012,-0.237,-0.218,-10.330,18.461,-48.708,2.261,-2.287,-114.167
1743403891.38,-0.053,-0.031,-0.292,-0.106,-0.237,-0.209,-10.651,18.367,-48.789,2.214,-2.534,-114.364
1743403891.40,0.070,-0.077,-0.285,-0.262,-0.251,-0.146,-11.029,18.489,-48.594,2.021,-2.810,-114.566
1743403891.42,0.098,-0.062,-0.266,-0.467,-0.224,0.047,-11.457,18.787,-48.547,1.618,-3.087,-114.616
1743403891.44,-0.002,-0.062,-0.222,-0.732,-0.201,0.186,-11.611,19.562,-48.296,0.910,-3.327,-114.485
1743403891.46,-0.048,-0.062,-0.259,-0.902,-0.184,0.214,-11.816,20.398,-47.764,-0.030,-3.551,-114.291
1743403891.48,0.064,-0.056,-0.195,-1.095,-0.207,0.253,-11.906,21.105,-47.405,-1.182,-3.767,-114.085
1743403891.50,0.090,-0.061,-0.175,-1.310,-0.197,0.355,-12.154,22.746,-46.815,-2.570,-3.993,-113.818
1743403891.52,0.046,-0.051,-0.203,-1.498,-0.155,0.419,-12.199,24.029,-46.201,-4.206,-4.176,-113.476
1743403891.54,0.017,-0.055,-0.121,-1.709,-0.015,0.428,-12.172,25.643,-45.220,-6.070,-4.254,-113.122
1743403891.56,0.027,-0.073,-0.044,-1.857,0.115,0.415,-12.095,27.176,-44.355,-8.149,-4.146,-112.799
1743403891.58,0.017,-0.056,-0.128,-1.889,0.154,0.402,-11.857,29.165,-43.424,-10.324,-3.937,-112.487
1743403891.60,0.000,-0.057,-0.076,-1.921,0.087,0.344,-11.541,30.681,-42.247,-12.520,-3.731,-112.216
1743403891.62,0.023,-0.073,-0.107,-1.896,-0.083,0.269,-11.562,32.426,-40.897,-14.725,-3.669,-112.022
1743403891.64,0.095,-0.074,-0.070,-1.753,-0.289,0.154,-11.497,34.113,-39.646,-16.821,-3.857,-111.932
1743403891.66,0.076,-0.102,0.006,-1.610,-0.392,0.012,-11.939,35.453,-38.110,-18.749,-4.266,-111.989
1743403891.68,0.028,-0.156,-0.038,-1.490,-0.564,-0.136,-12.564,36.649,-36.955,-20.489,-4.877,-112.255
1743403891.70,0.083,-0.165,-0.049,-1.465,-0.497,-0.143,-12.867,37.959,-35.585,-22.143,-5.641,-112.627
1743403891.72,0.129,-0.112,0.004,-1.649,-0.405,-0.133,-13.454,38.928,-34.486,-23.892,-6.295,-113.017
1743403891.74,0.066,-0.143,-0.039,-1.562,-0.425,-0.207,-14.079,40.240,-32.913,-25.710,-6.909,-113.485
1743403891.76,0.060,-0.144,0.019,-1.553,-0.575,-0.301,-14.571,41.104,-31.440,-27.439,-7.776,-114.106
1743403891.78,0.096,-0.184,-0.021,-1.410,-0.565,-0.245,-15.441,42.051,-29.777,-29.057,-8.720,-114.767
1743403891.80,0.127,-0.127,0.008,-1.595,-0.461,-0.235,-16.042,43.068,-28.576,-30.688,-9.613,-115.425
1743403891.82,0.060,-0.139,-0.053,-1.685,-0.480,-0.254,-16.505,43.737,-26.858,-32.504,-10.515,-116.165
1743403891.84,-0.004,-0.118,-0.073,-1.786,-0.515,-0.351,-17.103,44.758,-24.987,-34.377,-11.580,-117.069
1743403891.86,0.040,-0.118,0.004,-1.840,-0.384,-0.357,-17.638,45.432,-23.039,-36.319,-12.682,-118.133
1743403891.88,0.098,-0.123,-0.004,-1.851,-0.413,-0.354,-18.353,46.419,-21.464,-38.280,-13.791,-119.268
1743403891.90,0.123,-0.088,0.001,-1.870,-0.405,-0.410,-18.912,47.293,-19.314,-40.224,-15.039,-120.530
1743403891.92,0.110,-0.065,0.028,-1.970,-0.474,-0.505,-19.573,47.690,-17.464,-42.193,-16.491,-122.038
1743403891.94,0.083,-0.059,0.031,-1.989,-0.593,-0.496,-20.028,48.309,-15.010,-44.187,-18.264,-123.751
1743403891.96,0.025,-0.043,0.038,-1.974,-0.593,-0.516,-20.667,48.732,-12.703,-46.133,-20.234,-125.596
1743403891.98,-0.003,-0.027,0.028,-1.926,-0.536,-0.610,-21.486,49.191,-10.313,-47.982,-22.394,-127.687
1743403892.00,-0.012,-0.040,-0.018,-1.857,-0.661,-0.677,-22.270,49.103,-8.239,-49.662,-24.822,-130.064
1743403892.02,0.014,-0.073,0.029,-1.860,-0.774,-0.672,-23.011,49.285,-6.048,-51.221,-27.640,-132.653
1743403892.04,0.037,-0.082,0.087,-1.897,-0.600,-0.552,-23.764,49.086,-3.802,-52.748,-30.568,-135.367
1743403892.06,0.005,-0.083,0.096,-1.961,-0.496,-0.344,-24.178,48.939,-1.495,-54.328,-33.352,-138.115
1743403892.08,-0.029,-0.093,0.069,-2.039,-0.553,-0.075,-24.513,48.733,0.614,-56.092,-36.104,-140.745
1743403892.10,-0.033,-0.042,0.014,-1.961,-0.535,-0.028,-24.429,48.709,2.997,-57.881,-38.937,-143.402
1743403892.12,-0.019,-0.034,0.020,-1.908,-0.366,0.046,-24.535,48.623,4.895,-59.557,-41.784,-146.143
1743403892.14,-0.017,-0.053,0.101,-1.980,-0.365,0.026,-24.345,48.643,7.076,-61.208,-44.801,-149.169
1743403892.16,-0.003,-0.071,0.054,-1.928,-0.521,0.038,-24.432,48.264,9.303,-62.775,-48.306,-152.620
1743403892.18,0.050,-0.072,-0.050,-1.716,-0.924,0.323,-24.170,48.016,11.681,-64.248,-52.114,-155.964
1743403892.20,0.107,-0.045,-0.073,-1.586,-1.048,0.617,-23.641,47.550,13.386,-65.799,-55.819,-158.796
1743403892.22,0.155,-0.051,0.026,-1.636,-0.836,0.830,-22.695,47.684,15.652,-67.471,-59.465,-161.605
1743403892.24,0.140,-0.048,0.088,-1.747,-0.905,0.998,-21.754,47.167,17.451,-69.328,-63.449,-164.879
1743403892.26,0.056,0.018,0.074,-1.560,-1.003,0.861,-20.319,47.226,19.878,-71.115,-68.212,-168.792
1743403892.28,-0.035,0.008,0.043,-1.083,-1.002,0.536,-19.208,46.461,21.335,-72.379,-72.868,-172.512
1743403892.30,-0.106,-0.045,0.095,-0.685,-0.923,0.295,-18.366,46.443,22.870,-73.082,-76.687,-175.364
1743403892.32,-0.178,-0.117,0.124,-0.330,-0.681,0.173,-17.563,46.204,23.873,-73.461,-79.318,-177.192
1743403892.34,-0.330,-0.194,-0.054,0.011,-0.946,0.099,-17.104,45.964,24.254,-73.637,-80.596,-177.647
1743403892.36,-0.458,-0.137,-0.193,-0.241,-1.226,-0.015,-16.590,45.905,24.602,-73.701,-82.157,-177.909
1743403892.38,-0.315,-0.008,0.007,-0.697,-0.301,-0.107,-15.937,46.038,25.080,-73.681,-85.010,-179.900
1743403892.40,-0.073,0.040,0.119,-0.726,0.700,-0.027,-15.767,45.528,25.984,-73.646,-87.686,177.017
1743403892.42,0.109,0.031,0.112,-0.357,0.832,0.127,-16.093,45.053,26.203,-73.721,-88.862,174.784
1743403892.44,0.170,0.017,0.103,-0.046,0.233,0.208,-16.429,44.959,26.489,-73.926,-88.941,174.036
1743403892.46,0.160,0.003,0.115,0.054,-0.384,0.139,-16.363,45.201,26.411,-74.139,-88.944,174.143
1743403892.48,0.108,-0.011,0.125,-0.026,-0.611,0.104,-16.324,44.997,26.312,-74.253,-89.458,174.224
1743403892.50,0.004,-0.024,0.076,-0.062,-0.419,0.138,-15.745,45.222,26.575,-74.409,-90.322,173.964
1743403892.52,-0.153,-0.022,-0.029,0.035,-0.038,0.035,-15.284,45.180,26.643,-74.511,-90.638,173.892
1743403892.54,-0.232,-0.035,-0.034,0.077,0.141,-0.034,-15.259,45.372,26.888,-74.502,-90.298,174.158
1743403892.56,-0.216,-0.055,0.013,0.069,0.226,-0.074,-15.367,45.191,26.631,-74.439,-89.795,174.461
1743403892.58,-0.101,-0.023,0.101,0.117,0.319,-0.109,-15.517,45.239,26.620,-74.325,-89.121,174.817
1743403892.60,-0.021,-0.020,0.083,0.205,0.155,-0.127,-15.681,45.376,26.159,-74.189,-88.203,175.472
1743403892.62,-0.001,-0.013,0.034,0.317,-0.096,-0.170,-15.909,45.333,26.121,-74.005,-87.156,176.534
1743403892.64,-0.012,-0.003,-0.011,0.441,-0.208,-0.176,-15.977,45.334,25.683,-73.778,-85.893,178.046
1743403892.66,-0.054,-0.006,-0.017,0.577,-0.097,-0.196,-15.974,45.803,25.438,-73.519,-84.182,-179.959
1743403892.68,-0.092,-0.037,-0.002,0.684,0.138,-0.226,-16.156,46.077,24.691,-73.190,-81.839,-177.529
1743403892.70,-0.110,-0.056,0.055,0.674,0.513,-0.287,-16.338,46.270,23.899,-72.772,-79.126,-175.058
1743403892.72,-0.101,-0.051,0.070,0.710,0.974,-0.283,-16.994,46.375,22.897,-72.276,-76.083,-172.764
1743403892.74,-0.075,-0.048,0.066,0.813,1.397,-0.243,-17.566,46.841,22.433,-71.758,-72.412,-170.318
1743403892.76,-0.110,-0.038,0.063,0.991,1.653,-0.294,-18.566,47.022,20.987,-71.128,-68.046,-167.585
1743403892.78,-0.185,-0.064,0.033,1.009,1.411,-0.430,-19.426,47.505,19.347,-70.280,-63.693,-164.860
1743403892.80,-0.204,-0.053,0.026,0.918,0.936,-0.615,-20.189,47.768,18.034,-69.242,-60.478,-162.867
1743403892.82,-0.110,-0.038,0.072,0.905,0.726,-0.705,-21.102,47.773,16.502,-68.048,-58.334,-161.499
1743403892.84,-0.001,-0.020,0.147,1.079,1.190,-0.569,-22.024,47.733,15.119,-66.814,-55.979,-160.088
1743403892.86,0.069,0.006,-0.007,1.508,1.322,-0.333,-22.846,47.701,13.504,-65.546,-52.446,-157.891
1743403892.88,0.060,0.017,-0.344,1.827,0.317,-0.210,-23.582,47.900,11.425,-64.069,-48.696,-154.836
1743403892.90,0.123,0.027,-0.115,1.568,-0.008,-0.126,-23.790,48.239,9.536,-62.573,-45.961,-151.817
1743403892.92,0.112,0.023,0.265,1.033,0.613,0.076,-23.888,48.416,7.778,-61.513,-43.744,-149.722
1743403892.94,0.100,0.010,0.098,1.169,0.732,0.379,-23.935,48.768,6.362,-60.826,-41.155,-147.635
1743403892.96,0.020,-0.007,-0.085,1.767,0.698,0.268,-23.837,48.891,4.911,-59.778,-37.836,-144.860
1743403892.98,0.005,-0.042,-0.150,1.951,-0.186,0.076,-23.464,49.296,3.158,-58.141,-35.145,-142.058
1743403893.00,0.039,-0.077,-0.105,1.830,-0.176,0.014,-23.735,49.221,0.941,-56.365,-33.526,-139.750
1743403893.02,0.111,-0.052,0.002,1.648,0.282,0.215,-23.470,49.302,-0.906,-54.751,-31.706,-137.705
1743403893.04,0.121,-0.030,-0.004,1.349,-0.118,0.340,-23.450,49.058,-2.753,-53.452,-29.942,-135.725
1743403893.06,0.110,-0.055,-0.022,1.564,-0.122,0.288,-23.029,49.216,-4.175,-52.218,-28.684,-133.917
1743403893.08,0.134,-0.048,-0.045,1.536,0.057,0.282,-22.990,49.168,-5.256,-50.758,-27.331,-132.101
1743403893.10,0.222,-0.036,0.169,1.346,0.651,0.428,-22.671,49.245,-7.001,-49.477,-25.652,-130.452
1743403893.12,0.153,-0.041,0.163,1.407,0.476,0.729,-22.170,48.939,-8.495,-48.344,-23.467,-128.580
1743403893.14,0.091,0.020,-0.223,1.582,0.216,0.597,-21.529,48.886,-10.295,-47.029,-21.583,-126.510
1743403893.16,0.193,0.067,0.013,1.172,0.219,0.438,-20.769,48.966,-11.779,-45.767,-20.205,-124.961
1743403893.18,0.080,0.002,0.054,1.297,0.269,0.497,-20.216,48.800,-13.170,-44.651,-18.967,-123.608
1743403893.20,-0.083,-0.025,0.052,1.390,0.243,0.468,-19.549,48.770,-14.583,-43.342,-17.670,-122.199
1743403893.22,-0.155,-0.055,0.006,1.409,0.283,0.420,-19.184,48.456,-15.914,-41.973,-16.503,-120.928
1743403893.24,-0.106,0.001,-0.017,1.211,0.379,0.370,-18.710,47.926,-17.443,-40.627,-15.364,-119.813
1743403893.26,-0.101,-0.019,0.048,1.147,0.378,0.303,-18.191,47.770,-18.737,-39.466,-14.337,-118.907
1743403893.28,-0.065,-0.044,0.032,1.334,0.281,0.243,-17.416,47.611,-19.833,-38.163,-13.418,-118.107
1743403893.30,0.035,-0.082,-0.038,1.428,0.448,0.273,-17.151,46.959,-21.227,-36.673,-12.548,-117.299
1743403893.31,0.009,-0.053,-0.009,1.177,0.520,0.273,-16.659,46.177,-22.666,-35.268,-11.532,-116.543
1743403893.33,-0.052,-0.009,0.068,1.084,0.529,0.271,-16.110,45.716,-23.940,-34.087,-10.556,-115.871
1743403893.35,-0.057,0.011,0.082,1.331,0.518,0.185,-15.511,44.979,-25.062,-32.799,-9.586,-115.279
1743403893.37,0.028,-0.022,-0.045,1.559,0.085,0.051,-14.964,44.256,-26.584,-31.161,-8.992,-114.810
1743403893.39,0.135,-0.056,-0.060,1.393,0.117,0.151,-14.964,43.678,-28.032,-29.485,-8.742,-114.411
1743403893.41,0.074,-0.023,-0.053,1.009,0.299,0.348,-14.751,42.765,-29.363,-28.161,-8.183,-113.868
1743403893.43,-0.087,0.056,0.037,0.952,0.340,0.528,-14.181,42.458,-30.357,-27.171,-7.514,-113.121
1743403893.45,-0.071,0.057,0.079,1.072,0.466,0.467,-13.502,41.813,-31.444,-26.090,-6.662,-112.309
1743403893.47,0.040,-0.095,-0.027,1.120,0.359,0.370,-12.883,41.143,-32.492,-24.876,-5.879,-111.611
1743403893.49,0.012,-0.212,-0.106,0.958,0.274,0.115,-12.209,40.568,-33.210,-23.734,-5.359,-111.185
1743403893.51,-0.131,-0.149,0.003,1.051,0.291,-0.107,-11.639,39.918,-34.111,-22.593,-5.001,-111.067
1743403893.53,-0.040,-0.030,0.068,1.018,0.378,-0.202,-11.575,39.013,-35.092,-21.399,-4.630,-111.138
1743403893.55,0.087,-0.041,-0.039,1.228,0.187,-0.408,-11.163,38.223,-36.049,-20.125,-4.377,-111.386
1743403893.57,0.138,-0.057,-0.023,1.449,-0.237,-0.503,-11.225,37.190,-36.994,-18.529,-4.561,-111.819
1743403893.59,-0.012,-0.052,-0.059,1.362,-0.196,-0.395,-11.691,36.186,-37.943,-16.864,-4.958,-112.201
1743403893.61,-0.089,-0.020,-0.114,1.208,-0.041,-0.351,-12.120,34.858,-38.877,-15.385,-5.181,-112.483
1743403893.63,0.063,-0.047,0.021,1.130,0.166,-0.245,-12.463,33.604,-39.903,-14.013,-5.178,-112.704
1743403893.65,0.118,-0.006,0.158,0.990,0.280,-0.032,-12.410,32.679,-40.613,-12.798,-4.919,-112.747
1743403893.67,0.002,-0.014,-0.074,0.969,0.289,0.033,-12.225,31.552,-41.171,-11.691,-4.538,-112.597
1743403893.69,0.004,-0.055,-0.187,1.025,0.071,-0.079,-11.835,30.602,-41.948,-10.550,-4.336,-112.526
1743403893.71,0.072,0.004,-0.163,1.029,0.054,-0.051,-11.790,29.839,-42.521,-9.387,-4.260,-112.496
1743403893.73,0.029,-0.020,0.056,1.023,-0.054,0.009,-11.707,28.682,-43.187,-8.188,-4.238,-112.417
1743403893.75,-0.039,0.020,0.001,0.970,-0.142,0.085,-11.755,27.960,-43.792,-7.080,-4.351,-112.258
1743403893.77,-0.063,-0.050,-0.168,0.936,-0.031,0.052,-11.665,26.925,-44.536,-5.981,-4.455,-112.057
1743403893.79,-0.124,-0.072,-0.049,0.798,0.273,-0.072,-11.748,25.980,-44.746,-4.998,-4.286,-111.953
1743403893.81,-0.038,-0.074,-0.031,0.667,0.153,-0.216,-11.520,25.282,-45.268,-4.153,-4.018,-112.053
1743403893.83,0.168,0.006,-0.148,0.739,-0.059,-0.189,-11.368,24.564,-45.544,-3.356,-3.969,-112.210
1743403893.85,0.058,0.046,-0.132,0.732,-0.221,-0.109,-11.180,23.670,-46.242,-2.474,-4.173,-112.304
1743403893.87,-0.031,0.043,-0.050,0.565,0.111,0.041,-11.391,23.073,-46.546,-1.732,-4.237,-112.236
1743403893.89,-0.158,-0.002,-0.138,0.439,0.143,-0.021,-11.122,22.507,-46.668,-1.172,-4.046,-112.123
1743403893.91,-0.045,0.011,-0.239,0.356,0.006,-0.112,-10.847,22.106,-46.863,-0.733,-3.956,-112.129
1743403893.93,0.028,0.012,-0.293,0.372,-0.188,-0.182,-11.064,21.202,-46.970,-0.275,-4.062,-112.167
1743403893.95,0.039,0.005,-0.188,0.217,-0.257,-0.199,-10.974,20.741,-47.386,0.060,-4.305,-112.303
1743403893.97,-0.008,-0.002,-0.246,0.023,-0.314,-0.142,-11.492,20.717,-47.359,0.229,-4.659,-112.455
1743403893.99,-0.077,0.002,-0.281,-0.188,-0.213,-0.050,-12.026,20.815,-47.267,0.146,-4.956,-112.519
1743403894.01,-0.067,-0.029,-0.222,-0.390,-0.123,-0.030,-12.466,21.066,-46.976,-0.184,-5.144,-112.565
1743403894.03,0.022,-0.027,-0.235,-0.529,-0.090,0.018,-12.343,21.371,-47.064,-0.709,-5.252,-112.585
1743403894.05,0.062,-0.019,-0.223,-0.692,-0.170,0.101,-12.681,22.050,-46.440,-1.412,-5.395,-112.565
1743403894.07,0.016,-0.024,-0.240,-0.915,-0.160,0.229,-12.704,22.684,-46.309,-2.330,-5.598,-112.437
1743403894.09,-0.070,-0.050,-0.231,-1.112,-0.108,0.238,-12.859,23.723,-45.944,-3.520,-5.742,-112.257
1743403894.11,0.015,-0.065,-0.143,-1.274,-0.030,0.265,-13.025,24.976,-45.183,-4.905,-5.809,-112.104
1743403894.13,-0.009,-0.060,-0.109,-1.431,0.071,0.286,-12.859,26.476,-44.519,-6.468,-5.788,-111.930
1743403894.15,-0.092,-0.063,-0.035,-1.624,0.224,0.216,-12.852,27.908,-43.756,-8.244,-5.583,-111.805
1743403894.17,-0.089,-0.046,-0.142,-1.657,0.206,0.114,-12.731,29.595,-42.578,-10.130,-5.334,-111.806
1743403894.19,-0.048,-0.040,-0.116,-1.717,0.190,0.085,-12.474,30.815,-41.666,-12.062,-5.124,-111.879
1743403894.21,-0.004,-0.030,-0.088,-1.729,0.104,0.039,-12.289,32.507,-40.645,-14.024,-4.976,-111.986
1743403894.23,0.032,-0.039,-0.035,-1.672,-0.026,-0.036,-12.603,33.620,-39.608,-15.969,-4.963,-112.180
1743403894.25,0.050,-0.106,-0.071,-1.578,-0.245,-0.117,-12.932,34.886,-38.287,-17.807,-5.191,-112.463
1743403894.27,0.055,-0.169,-0.129,-1.491,-0.418,-0.167,-13.382,36.100,-37.327,-19.530,-5.681,-112.847
1743403894.29,0.081,-0.146,-0.066,-1.587,-0.481,-0.125,-13.914,37.317,-36.023,-21.254,-6.343,-113.254
1743403894.31,0.115,-0.143,-0.032,-1.653,-0.400,-0.159,-14.395,38.545,-34.755,-23.075,-6.999,-113.686
1743403894.33,0.121,-0.122,0.019,-1.667,-0.417,-0.186,-14.682,39.701,-32.897,-24.942,-7.657,-114.206
1743403894.35,0.138,-0.100,-0.032,-1.622,-0.461,-0.157,-15.399,40.639,-31.746,-26.768,-8.373,-114.744
1743403894.37,0.116,-0.084,0.013,-1.560,-0.499,-0.187,-15.733,41.847,-30.240,-28.551,-9.169,-115.301
1743403894.39,0.074,-0.117,-0.009,-1.364,-0.598,-0.246,-16.348,42.882,-28.747,-30.148,-10.085,-115.933
1743403894.41,0.083,-0.144,0.035,-1.294,-0.631,-0.245,-16.989,43.424,-27.238,-31.586,-11.124,-116.621
1743403894.43,0.081,-0.167,-0.064,-1.291,-0.696,-0.215,-17.550,43.896,-25.891,-32.957,-12.236,-117.300
1743403894.45,0.087,-0.124,0.001,-1.617,-0.489,-0.214,-18.125,44.688,-24.352,-34.504,-13.341,-118.069
1743403894.47,0.054,-0.116,0.042,-1.899,-0.322,-0.164,-18.660,45.496,-22.703,-36.425,-14.297,-118.961
1743403894.49,0.016,-0.135,-0.029,-1.842,-0.228,-0.173,-18.935,46.567,-20.745,-38.475,-15.150,-119.914
1743403894.51,0.028,-0.131,-0.101,-1.698,-0.286,-0.288,-19.340,47.088,-18.613,-40.333,-16.091,-120.964
1743403894.53,0.074,-0.105,0.007,-1.815,-0.357,-0.404,-19.963,47.492,-16.992,-42.125,-17.300,-122.283
1743403894.55,0.108,-0.094,0.026,-1.880,-0.393,-0.431,-20.529,48.217,-14.745,-43.993,-18.782,-123.855
1743403894.57,0.076,-0.055,0.014,-1.867,-0.415,-0.459,-21.032,48.710,-12.665,-45.838,-20.424,-125.564
1743403894.59,0.021,-0.011,0.027,-1.874,-0.398,-0.520,-21.567,48.850,-10.688,-47.623,-22.277,-127.494
1743403894.61,-0.001,0.008,0.027,-1.930,-0.416,-0.592,-22.287,49.048,-8.696,-49.361,-24.357,-129.700
1743403894.63,0.017,0.008,0.041,-1.978,-0.462,-0.656,-22.948,49.165,-6.514,-51.070,-26.796,-132.259
1743403894.65,0.054,-0.009,0.057,-1.946,-0.453,-0.558,-23.487,49.320,-4.099,-52.708,-29.476,-135.019
1743403894.67,0.039,-0.036,0.010,-1.918,-0.420,-0.313,-24.220,48.838,-2.285,-54.350,-32.070,-137.656
1743403894.69,0.013,-0.051,0.011,-1.919,-0.367,-0.217,-24.446,49.094,0.183,-56.006,-34.620,-140.241
1743403894.71,0.004,-0.095,0.045,-1.895,-0.445,-0.076,-24.626,49.049,2.237,-57.680,-37.202,-142.826
1743403894.73,-0.005,-0.089,0.051,-1.866,-0.530,-0.033,-24.673,49.060,4.463,-59.323,-40.056,-145.527
1743403894.75,-0.021,-0.101,0.052,-1.806,-0.571,0.071,-24.725,48.526,6.426,-60.902,-43.062,-148.294
1743403894.77,-0.039,-0.083,0.087,-1.872,-0.709,0.072,-24.513,48.408,8.263,-62.447,-46.415,-151.308
1743403894.79,-0.025,-0.060,0.038,-1.803,-0.745,0.136,-24.318,47.912,10.487,-63.943,-50.243,-154.674
1743403894.81,0.005,-0.021,0.033,-1.680,-0.763,0.405,-23.933,47.839,12.793,-65.383,-54.031,-157.941
1743403894.83,0.027,0.040,0.044,-1.753,-0.743,0.721,-23.078,47.519,14.610,-67.024,-57.709,-161.024
1743403894.85,0.042,0.018,0.094,-1.890,-0.577,0.922,-22.310,47.227,16.837,-68.896,-61.733,-164.572
1743403894.87,0.019,-0.016,0.055,-1.788,-0.503,0.784,-21.345,46.937,18.820,-70.740,-66.358,-168.889
1743403894.89,-0.058,-0.080,-0.083,-1.299,-0.652,0.435,-20.271,46.670,20.630,-72.038,-71.223,-173.363
1743403894.91,-0.102,-0.102,-0.099,-0.702,-0.798,0.260,-19.606,46.298,21.780,-72.720,-75.101,-176.574
1743403894.93,-0.099,-0.067,0.020,-0.453,-0.868,0.357,-19.012,46.105,22.826,-73.196,-77.786,-178.385
1743403894.95,-0.109,-0.060,0.084,-0.438,-0.770,0.445,-18.259,46.108,23.627,-73.764,-80.107,-179.825
1743403894.97,-0.169,-0.112,0.013,-0.353,-0.669,0.257,-17.617,46.143,24.264,-74.252,-82.298,178.720
1743403894.99,-0.191,-0.092,-0.047,-0.146,-0.459,0.024,-17.115,45.829,24.825,-74.428,-83.904,177.735
1743403895.01,-0.126,-0.025,0.023,-0.159,-0.106,-0.015,-16.871,45.676,25.211,-74.439,-84.745,177.165
1743403895.03,-0.051,0.006,0.076,-0.264,0.075,-0.023,-16.742,45.756,25.418,-74.437,-85.643,176.219
1743403895.05,0.022,0.017,0.065,-0.243,-0.001,-0.025,-16.987,45.549,25.540,-74.424,-86.652,175.081
1743403895.07,0.094,0.029,0.041,-0.165,-0.316,0.055,-16.855,45.402,25.836,-74.451,-87.647,174.214
1743403895.09,0.112,0.011,0.053,-0.142,-0.619,0.070,-16.640,45.322,26.022,-74.533,-88.805,173.564
1743403895.11,0.069,-0.021,0.069,-0.050,-0.610,0.061,-16.161,45.360,26.373,-74.606,-89.969,173.107
1743403895.13,-0.039,-0.032,0.025,0.099,-0.431,0.053,-15.738,45.355,26.589,-74.681,-90.458,173.209
1743403895.15,-0.132,-0.022,-0.072,0.204,-0.332,-0.005,-15.601,45.362,26.645,-74.705,-90.229,173.875
1743403895.17,-0.155,0.006,-0.083,0.225,-0.254,-0.045,-15.475,45.545,26.576,-74.679,-89.657,174.816
1743403895.19,-0.123,-0.024,-0.015,0.225,-0.062,-0.082,-15.095,45.789,26.509,-74.599,-88.915,175.774
1743403895.21,-0.075,-0.054,0.023,0.246,0.173,-0.094,-15.307,45.690,26.420,-74.489,-87.893,176.765
1743403895.23,-0.033,-0.054,0.098,0.276,0.383,-0.068,-15.507,45.983,25.832,-74.379,-86.530,177.843
1743403895.25,-0.032,-0.038,0.147,0.355,0.546,-0.048,-15.977,45.918,25.432,-74.289,-84.735,179.139
1743403895.27,-0.066,-0.024,0.143,0.463,0.600,-0.090,-16.304,46.131,24.939,-74.163,-82.473,-179.214
1743403895.29,-0.108,-0.017,0.065,0.668,0.572,-0.173,-16.643,46.246,24.375,-73.916,-79.677,-177.017
1743403895.31,-0.104,-0.017,0.014,0.841,0.628,-0.263,-16.879,46.608,23.622,-73.486,-76.271,-174.171
1743403895.33,-0.059,-0.067,0.082,0.921,0.948,-0.305,-17.399,46.783,22.625,-72.898,-72.451,-171.103
1743403895.35,-0.076,-0.104,0.152,0.929,1.307,-0.368,-17.919,47.230,21.466,-72.185,-68.367,-168.188
1743403895.37,-0.125,-0.080,0.147,0.961,1.496,-0.506,-19.032,47.290,19.897,-71.300,-64.392,-165.705
1743403895.39,-0.143,-0.104,0.150,1.171,1.627,-0.631,-19.795,47.491,18.507,-70.169,-60.413,-163.393
1743403895.41,-0.141,-0.059,-0.013,1.675,1.040,-0.777,-20.773,47.589,16.375,-68.643,-56.273,-160.707
1743403895.43,-0.126,0.020,-0.182,1.996,-0.209,-0.822,-21.805,47.935,14.416,-66.642,-52.942,-157.560
1743403895.45,-0.047,0.067,-0.047,2.043,-0.048,-0.680,-22.713,48.165,12.367,-64.518,-50.400,-154.443
1743403895.47,0.026,0.059,-0.030,1.712,0.556,-0.375,-23.318,48.328,10.466,-62.598,-47.550,-151.632
1743403895.49,0.100,0.023,0.087,1.239,0.725,0.017,-23.849,48.198,8.545,-61.331,-44.805,-149.373
1743403895.51,0.069,-0.003,0.047,1.413,0.704,0.191,-24.060,48.359,7.115,-60.373,-41.984,-147.135
1743403895.53,-0.019,-0.034,-0.131,1.730,0.473,0.161,-23.984,48.794,4.949,-59.108,-39.032,-144.417
1743403895.55,0.035,-0.093,0.036,1.443,0.941,0.017,-23.924,49.014,3.194,-57.729,-36.286,-142.142
1743403895.57,0.140,-0.085,0.031,1.379,0.868,0.017,-23.853,49.220,1.157,-56.425,-33.741,-140.458
1743403895.59,0.122,-0.048,0.005,1.552,0.389,0.065,-23.883,49.108,-0.481,-55.064,-31.706,-138.828
1743403895.61,0.153,-0.004,-0.052,1.643,0.107,0.303,-23.894,49.167,-2.410,-53.551,-29.847,-136.884
1743403895.63,0.236,0.062,0.091,1.434,0.375,0.413,-23.726,49.061,-4.091,-52.228,-28.017,-134.895
1743403895.65,0.298,0.055,0.171,1.606,0.530,0.480,-23.259,49.229,-5.660,-50.958,-25.921,-132.971
1743403895.67,0.131,-0.060,0.042,2.130,0.198,0.610,-22.531,49.139,-7.332,-49.297,-23.775,-130.694
1743403895.69,-0.090,-0.118,-0.222,2.054,-0.071,0.530,-22.173,49.032,-9.719,-47.243,-21.935,-128.316
1743403895.71,0.140,-0.053,0.093,1.219,0.706,0.555,-21.759,48.638,-11.614,-45.722,-20.379,-126.582
1743403895.73,0.164,-0.046,0.236,1.062,0.897,0.723,-20.980,48.430,-13.014,-44.812,-18.199,-125.008
1743403895.75,0.009,-0.019,0.098,1.562,0.496,0.489,-19.620,48.284,-14.619,-43.626,-16.343,-123.462
1743403895.77,-0.087,-0.077,-0.150,1.939,0.219,0.351,-19.098,48.180,-16.288,-41.772,-15.025,-122.128
1743403895.79,-0.012,0.051,-0.189,1.376,0.366,0.320,-18.514,47.732,-17.788,-39.947,-13.987,-121.014
1743403895.81,0.016,0.069,0.141,0.885,0.600,0.667,-18.085,47.124,-19.695,-38.905,-12.759,-119.971
1743403895.83,-0.054,0.073,0.112,1.295,0.585,0.731,-17.281,47.131,-20.710,-37.908,-11.201,-118.614
1743403895.85,-0.077,0.011,-0.008,1.703,0.264,0.508,-16.315,46.541,-22.065,-36.319,-9.918,-117.347
1743403895.87,0.037,-0.081,-0.095,1.630,0.273,0.346,-15.406,46.120,-23.698,-34.493,-9.093,-116.370
1743403895.89,-0.002,-0.136,-0.095,1.339,0.348,0.274,-14.858,45.270,-25.345,-32.861,-8.347,-115.657
1743403895.91,-0.076,-0.106,0.039,1.149,0.414,0.369,-14.151,44.789,-26.560,-31.521,-7.557,-114.975
1743403895.93,-0.031,0.020,0.104,1.232,0.388,0.373,-13.671,43.939,-27.951,-30.252,-6.736,-114.281
1743403895.95,0.070,0.052,-0.014,1.424,0.317,0.401,-13.190,43.402,-28.973,-28.783,-5.998,-113.565
1743403895.97,0.068,-0.046,-0.046,1.387,0.300,0.371,-12.443,42.463,-30.345,-27.211,-5.335,-112.863
1743403895.99,0.025,-0.113,0.031,1.304,0.301,0.302,-12.004,41.448,-31.705,-25.725,-4.738,-112.273
1743403896.01,-0.056,-0.123,-0.055,1.239,0.278,0.185,-11.473,40.727,-33.018,-24.283,-4.217,-111.826
1743403896.03,-0.100,-0.069,-0.065,1.078,0.304,0.090,-11.221,39.988,-34.132,-22.989,-3.758,-111.550
1743403896.05,-0.081,-0.045,-0.002,1.117,0.245,0.029,-10.738,39.041,-34.833,-21.757,-3.394,-111.366
1743403896.07,-0.044,-0.057,-0.091,1.175,0.155,-0.114,-10.331,38.395,-35.825,-20.435,-3.152,-111.328
1743403896.09,-0.135,-0.015,-0.114,1.110,0.177,-0.177,-10.339,37.305,-37.048,-19.117,-2.992,-111.413
1743403896.11,-0.161,-0.009,-0.031,1.113,0.074,-0.197,-10.282,36.329,-37.905,-17.856,-2.927,-111.565
1743403896.13,-0.038,-0.047,-0.018,1.122,0.132,-0.179,-10.316,35.397,-38.692,-16.562,-2.853,-111.693
1743403896.15,0.012,-0.175,0.014,1.152,0.116,-0.354,-10.452,34.463,-39.654,-15.247,-2.762,-111.915
1743403896.17,0.132,-0.224,-0.091,1.119,0.222,-0.489,-10.285,33.276,-40.462,-13.938,-2.718,-112.350
1743403896.19,0.114,-0.006,-0.165,1.092,-0.009,-0.366,-10.387,32.371,-40.987,-12.646,-2.640,-112.784
1743403896.21,0.052,0.087,-0.083,1.073,0.006,-0.168,-10.770,30.902,-42.035,-11.386,-2.772,-113.033
1743403896.23,-0.062,0.082,0.172,0.812,0.357,0.049,-10.831,30.203,-42.429,-10.306,-2.565,-113.019
1743403896.25,-0.009,0.009,-0.059,0.880,0.356,0.008,-10.530,29.113,-43.271,-9.371,-2.080,-112.922
1743403896.27,0.177,-0.072,-0.091,0.932,0.058,0.046,-10.086,28.721,-43.716,-8.319,-1.848,-112.853
1743403896.29,0.132,0.009,-0.064,0.983,-0.131,0.086,-9.902,27.820,-44.262,-7.219,-1.860,-112.719
1743403896.31,0.041,0.017,-0.052,1.011,-0.253,0.129,-9.933,26.893,-44.880,-6.095,-2.073,-112.537
1743403896.32,0.007,-0.045,0.006,1.085,-0.339,0.020,-9.913,26.185,-45.342,-4.890,-2.383,-112.369
1743403896.34,0.024,-0.083,0.040,1.054,-0.216,-0.024,-9.902,25.235,-45.607,-3.663,-2.733,-112.289
1743403896.36,-0.011,-0.108,0.076,0.865,0.077,-0.040,-9.948,24.135,-46.158,-2.559,-2.821,-112.221
1743403896.38,-0.032,-0.053,-0.079,0.739,0.276,-0.041,-10.098,23.270,-46.559,-1.664,-2.593,-112.184
1743403896.40,-0.107,0.034,-0.229,0.814,0.081,-0.102,-9.803,22.129,-46.979,-0.780,-2.336,-112.178
1743403896.42,-0.022,0.021,-0.050,0.753,-0.158,-0.200,-9.587,21.603,-47.315,0.152,-2.400,-112.280
1743403896.44,0.096,0.040,-0.258,0.714,-0.208,-0.097,-9.592,20.707,-47.661,0.989,-2.624,-112.368
1743403896.46,-0.061,-0.004,-0.163,0.479,-0.107,-0.053,-9.732,20.041,-47.884,1.676,-2.823,-112.356
1743403896.48,-0.106,-0.026,-0.263,0.349,-0.075,-0.134,-9.860,19.310,-48.234,2.159,-2.907,-112.378
1743403896.50,-0.064,-0.038,-0.328,0.203,-0.124,-0.170,-10.070,18.811,-48.383,2.475,-3.027,-112.502
1743403896.52,0.034,-0.029,-0.262,-0.089,-0.055,-0.035,-10.095,18.354,-48.691,2.570,-3.137,-112.580
1743403896.54,-0.026,-0.047,-0.264,-0.390,0.028,0.050,-10.303,18.532,-48.342,2.279,-3.146,-112.523
1743403896.56,-0.055,-0.045,-0.335,-0.555,0.013,0.046,-10.663,18.723,-48.350,1.740,-3.128,-112.472
1743403896.58,0.010,-0.053,-0.253,-0.796,0.003,0.087,-10.630,19.328,-48.174,0.956,-3.112,-112.410
1743403896.60,-0.034,-0.053,-0.304,-1.035,-0.012,0.141,-10.533,19.992,-47.964,-0.088,-3.136,-112.315
1743403896.62,-0.041,-0.043,-0.258,-1.307,0.042,0.230,-10.547,22.200,-46.913,-1.436,-3.112,-112.133
1743403896.64,0.012,-0.042,-0.200,-1.503,0.084,0.259,-10.348,23.547,-46.372,-3.067,-3.027,-111.899
1743403896.66,0.020,-0.061,-0.140,-1.638,0.047,0.210,-10.267,24.993,-45.728,-4.872,-2.936,-111.707
1743403896.68,0.021,-0.051,-0.131,-1.785,0.135,0.251,-10.312,26.722,-44.826,-6.837,-2.831,-111.532
1743403896.70,-0.004,-0.026,-0.149,-1.903,0.114,0.225,-10.198,28.669,-43.770,-8.949,-2.665,-111.351
1743403896.72,0.031,-0.049,-0.126,-1.859,-0.032,0.129,-10.219,30.134,-42.599,-11.122,-2.567,-111.230
1743403896.74,0.016,-0.088,-0.058,-1.728,-0.247,0.037,-10.349,31.553,-41.741,-13.181,-2.737,-111.240
1743403896.76,0.035,-0.122,-0.104,-1.629,-0.416,-0.029,-10.692,32.888,-40.217,-15.085,-3.157,-111.351
1743403896.78,0.096,-0.105,-0.048,-1.570,-0.422,-0.086,-11.294,34.380,-39.354,-16.901,-3.677,-111.544
1743403896.80,0.110,-0.134,-0.034,-1.467,-0.555,-0.168,-11.792,35.569,-38.016,-18.628,-4.312,-111.838
1743403896.82,0.170,-0.149,-0.012,-1.494,-0.663,-0.166,-12.494,36.741,-36.783,-20.277,-5.146,-112.214
1743403896.84,0.137,-0.156,-0.025,-1.520,-0.626,-0.142,-13.257,37.911,-35.652,-21.977,-5.997,-112.590
1743403896.86,0.045,-0.145,-0.108,-1.624,-0.716,-0.190,-13.945,39.087,-33.653,-23.724,-6.953,-113.042
1743403896.88,0.056,-0.134,-0.014,-1.792,-0.508,-0.138,-14.426,40.219,-32.646,-25.638,-7.864,-113.550
1743403896.90,0.071,-0.107,0.049,-1.821,-0.370,-0.114,-14.920,41.585,-30.655,-27.676,-8.564,-114.060
1743403896.92,0.066,-0.085,-0.007,-1.638,-0.464,-0.177,-15.348,42.492,-29.156,-29.614,-9.283,-114.619
1743403896.94,0.068,-0.061,-0.053,-1.569,-0.488,-0.240,-15.948,43.477,-27.568,-31.345,-10.149,-115.279
1743403896.96,0.068,-0.069,-0.026,-1.805,-0.555,-0.236,-16.523,44.231,-25.931,-33.178,-11.137,-116.049
1743403896.98,0.080,-0.102,-0.021,-1.950,-0.542,-0.224,-17.289,45.133,-23.876,-35.245,-12.241,-116.924
1743403897.00,0.083,-0.136,0.011,-1.944,-0.450,-0.263,-17.832,46.065,-21.925,-37.362,-13.366,-117.917
1743403897.02,0.068,-0.162,0.012,-1.848,-0.566,-0.347,-18.381,46.846,-19.999,-39.381,-14.609,-119.058
1743403897.04,0.067,-0.161,-0.002,-1.812,-0.659,-0.432,-18.870,47.443,-17.754,-41.267,-16.148,-120.379
1743403897.06,0.057,-0.151,-0.025,-1.897,-0.557,-0.534,-19.378,48.174,-15.540,-43.119,-17.891,-121.948
1743403897.08,0.074,-0.112,0.023,-2.088,-0.502,-0.604,-20.365,48.361,-13.513,-45.059,-19.803,-123.857
