Time,AccX,AccY,AccZ,GyroX,GyroY,GyroZ,Pitch,Roll,Yaw
1747656060.02,0.010,0.007,0.006,0.013,0.083,-0.095,-83.719,40.889,28.778
1747656060.03,0.032,0.000,0.010,-0.016,0.066,-0.063,-83.749,40.644,28.486
1747656060.03,0.045,0.000,-0.001,-0.037,0.032,-0.040,-83.782,40.568,28.381
1747656060.04,0.057,-0.007,-0.005,-0.058,0.010,-0.009,-83.813,40.644,28.444
1747656060.05,0.069,-0.017,0.000,-0.070,-0.017,0.021,-83.842,40.883,28.687
1747656060.06,0.080,-0.020,-0.008,-0.062,-0.049,0.041,-83.863,41.207,29.031
1747656060.07,0.082,-0.013,-0.031,-0.028,-0.074,0.043,-83.869,41.485,29.347
1747656060.08,0.071,-0.007,-0.043,0.002,-0.088,0.037,-83.859,41.636,29.544
1747656060.09,0.040,-0.003,-0.047,0.022,-0.128,-0.026,-83.851,41.539,29.510
1747656060.11,0.004,-0.009,-0.049,0.025,-0.176,-0.029,-83.852,41.265,29.321
1747656060.11,-0.003,0.000,-0.061,0.031,-0.217,-0.004,-83.845,41.007,29.175
1747656060.12,0.004,-0.008,-0.061,0.028,-0.228,0.011,-83.829,40.807,29.102
1747656060.13,0.032,-0.025,-0.038,0.032,-0.206,0.016,-83.808,40.667,29.085
1747656060.14,0.052,-0.026,-0.035,0.031,-0.190,0.011,-83.784,40.555,29.087
1747656060.16,0.042,-0.015,-0.041,0.024,-0.180,-0.003,-83.758,40.434,29.071
1747656060.16,0.012,-0.010,-0.039,0.017,-0.179,-0.019,-83.740,40.256,28.994
1747656060.17,-0.017,-0.013,-0.037,0.011,-0.171,-0.020,-83.732,40.025,28.861
1747656060.18,-0.029,-0.006,-0.029,-0.004,-0.157,-0.013,-83.732,39.836,28.766
1747656060.19,-0.036,0.009,-0.017,-0.000,-0.118,-0.013,-83.734,39.690,28.700
1747656060.21,-0.037,0.017,0.001,0.009,-0.062,-0.015,-83.734,39.529,28.590
1747656060.21,-0.028,0.018,0.022,0.012,0.011,-0.019,-83.731,39.411,28.486
1747656060.22,-0.027,0.017,0.034,0.003,0.054,-0.027,-83.731,39.327,28.380
1747656060.23,-0.033,0.012,0.043,-0.012,0.045,-0.029,-83.737,39.262,28.286
1747656060.24,-0.037,0.008,0.055,-0.033,0.029,-0.024,-83.752,39.239,28.241
1747656060.26,-0.033,0.011,0.067,-0.047,0.012,-0.018,-83.776,39.274,28.264
1747656060.26,-0.022,0.014,0.067,-0.050,-0.018,-0.013,-83.803,39.353,28.344
1747656060.27,-0.011,0.003,0.054,-0.049,-0.058,-0.012,-83.830,39.417,28.431
1747656060.28,0.002,-0.010,0.043,-0.057,-0.080,-0.013,-83.860,39.486,28.541
1747656060.29,0.013,-0.008,0.031,-0.048,-0.092,-0.013,-83.890,39.559,28.664
1747656060.31,0.017,0.004,0.003,-0.017,-0.132,-0.022,-83.915,39.542,28.709
1747656060.31,0.010,0.017,-0.021,0.001,-0.143,-0.029,-83.932,39.379,28.627
1747656060.32,0.002,0.024,-0.015,0.005,-0.089,-0.042,-83.951,39.157,28.472
1747656060.33,-0.002,0.022,-0.011,0.026,-0.037,-0.043,-83.970,38.921,28.269
1747656060.34,-0.015,0.012,-0.013,0.052,-0.002,-0.034,-83.975,38.649,28.006
1747656060.36,-0.036,0.002,0.004,0.047,0.038,-0.026,-83.971,38.403,27.749
1747656060.36,-0.060,-0.003,0.019,0.044,0.077,-0.017,-83.963,38.234,27.545
1747656060.37,-0.076,-0.004,0.011,0.045,0.110,-0.013,-83.951,38.119,27.375
1747656060.38,-0.074,-0.009,-0.000,0.044,0.165,-0.000,-83.934,38.044,27.223
1747656060.39,-0.051,-0.022,0.021,0.047,0.227,0.034,-83.906,38.070,27.136
1747656060.41,-0.019,-0.028,0.040,0.074,0.252,0.079,-83.858,38.244,27.172
1747656060.41,-0.003,-0.024,0.028,0.110,0.245,0.098,-83.783,38.448,27.234
1747656060.42,0.011,-0.005,0.018,0.143,0.253,0.085,-83.694,38.533,27.176
1747656060.43,0.033,0.023,0.020,0.168,0.259,0.064,-83.602,38.451,26.946
1747656060.44,0.051,0.033,0.032,0.187,0.204,0.069,-83.504,38.266,26.624
1747656060.46,0.050,0.023,0.025,0.208,0.129,0.070,-83.396,37.997,26.258
1747656060.46,0.036,0.007,0.003,0.222,0.075,0.062,-83.278,37.634,25.835
1747656060.47,0.022,-0.011,-0.003,0.234,0.049,0.057,-83.158,37.220,25.382
1747656060.48,0.010,-0.026,0.004,0.260,0.042,0.039,-83.033,36.740,24.872
1747656060.49,0.006,-0.030,0.003,0.301,0.036,0.033,-82.894,36.132,24.238
1747656060.50,0.018,-0.018,0.002,0.336,0.058,0.037,-82.737,35.443,23.515
1747656060.51,0.033,0.001,0.007,0.365,0.067,0.044,-82.560,34.752,22.781
1747656060.52,0.032,0.013,0.009,0.394,0.058,0.053,-82.367,34.034,22.021
1747656060.53,0.018,0.014,0.009,0.418,0.043,0.068,-82.154,33.324,21.275
1747656060.54,0.008,0.014,-0.000,0.423,0.025,0.089,-81.929,32.679,20.603
1747656060.55,0.001,0.014,-0.015,0.428,-0.001,0.100,-81.694,32.100,20.012
1747656060.56,-0.004,0.015,-0.020,0.432,0.010,0.096,-81.456,31.552,19.457
1747656060.57,0.001,0.002,0.004,0.478,0.067,0.091,-81.208,30.989,18.867
1747656060.58,0.014,-0.012,0.028,0.552,0.085,0.103,-80.927,30.379,18.202
1747656060.59,0.021,-0.019,0.030,0.612,0.033,0.137,-80.605,29.752,17.531
1747656060.60,0.011,-0.019,0.009,0.663,0.011,0.168,-80.245,29.151,16.912
1747656060.61,-0.006,-0.018,0.001,0.697,0.064,0.180,-79.857,28.598,16.329
1747656060.62,-0.026,-0.021,0.018,0.726,0.073,0.192,-79.450,28.104,15.785
1747656060.63,-0.058,-0.016,-0.009,0.775,0.049,0.210,-79.017,27.618,15.255
1747656060.64,-0.077,0.001,-0.041,0.797,0.103,0.218,-78.561,27.162,14.750
1747656060.65,-0.084,0.021,-0.017,0.773,0.185,0.217,-78.104,26.801,14.294
1747656060.66,-0.093,0.018,0.012,0.764,0.178,0.197,-77.659,26.483,13.862
1747656060.67,-0.098,0.001,0.004,0.764,0.212,0.173,-77.221,26.148,13.409
1747656060.68,-0.076,-0.015,0.050,0.791,0.276,0.167,-76.782,25.827,12.935
1747656060.69,-0.041,-0.015,0.044,0.866,0.255,0.168,-76.314,25.480,12.417
1747656060.70,-0.013,-0.000,0.001,0.877,0.232,0.201,-75.817,25.131,11.917
1747656060.71,0.027,0.010,0.032,0.849,0.257,0.239,-75.319,24.911,11.546
1747656060.72,0.046,0.014,0.066,0.865,0.290,0.251,-74.816,24.775,11.244
1747656060.73,0.019,0.017,0.038,0.834,0.313,0.258,-74.311,24.688,10.975
1747656060.74,-0.015,0.010,0.036,0.771,0.305,0.273,-73.830,24.679,10.809
1747656060.75,-0.030,-0.001,0.071,0.732,0.267,0.303,-73.372,24.739,10.702
1747656060.76,-0.018,-0.000,0.094,0.720,0.278,0.331,-72.919,24.865,10.695
1747656060.77,-0.002,0.011,0.108,0.728,0.269,0.323,-72.466,25.013,10.682
1747656060.78,0.005,0.018,0.093,0.739,0.120,0.302,-72.010,25.079,10.650
1747656060.79,0.022,0.021,0.026,0.700,-0.068,0.280,-71.566,25.017,10.572
1747656060.80,0.051,0.011,-0.019,0.702,-0.132,0.274,-71.140,24.885,10.515
1747656060.81,0.078,-0.003,-0.003,0.799,-0.133,0.245,-70.690,24.683,10.381
1747656060.82,0.068,0.000,-0.013,0.889,-0.166,0.198,-70.195,24.355,10.150
1747656060.83,0.028,0.018,-0.049,0.861,-0.184,0.158,-69.696,23.938,9.816
1747656060.84,-0.023,0.032,-0.048,0.840,-0.106,0.103,-69.224,23.514,9.486
1747656060.85,-0.061,0.027,-0.001,0.841,-0.070,0.070,-68.763,23.085,9.076
1747656060.86,-0.083,-0.001,0.025,0.814,-0.032,0.094,-68.309,22.691,8.699
1747656060.87,-0.064,-0.039,0.055,0.802,0.070,0.143,-67.858,22.419,8.394
1747656060.88,-0.025,-0.064,0.028,0.820,0.128,0.192,-67.393,22.271,8.199
1747656060.89,0.009,-0.068,-0.004,0.829,0.123,0.241,-66.911,22.187,8.030
1747656060.90,0.041,-0.060,-0.008,0.846,0.144,0.270,-66.412,22.163,7.950
1747656060.91,0.070,-0.042,-0.019,0.817,0.171,0.254,-65.914,22.162,7.850
1747656060.92,0.055,-0.016,-0.015,0.778,0.175,0.215,-65.444,22.162,7.775
1747656060.93,0.002,-0.002,-0.023,0.835,0.099,0.181,-64.978,22.093,7.611
1747656060.94,-0.016,-0.002,-0.061,0.912,0.055,0.185,-64.475,21.939,7.447
1747656060.95,0.018,-0.006,-0.045,0.935,0.103,0.198,-63.945,21.786,7.228
1747656060.96,0.050,-0.013,0.001,0.973,0.160,0.191,-63.398,21.669,7.071
1747656060.97,0.069,-0.025,-0.022,0.993,0.139,0.154,-62.838,21.530,6.815
1747656060.98,0.067,-0.036,-0.047,1.005,0.098,0.123,-62.278,21.334,6.581
1747656060.99,0.044,-0.048,-0.023,1.018,0.107,0.102,-61.715,21.112,6.264
1747656061.00,0.009,-0.047,0.006,1.014,0.074,0.092,-61.153,20.879,6.009
1747656061.01,-0.030,-0.036,-0.006,1.009,0.052,0.103,-60.594,20.638,5.694
1747656061.02,-0.027,-0.022,0.008,1.018,0.048,0.139,-60.029,20.424,5.475
1747656061.03,-0.002,-0.005,0.020,1.009,0.033,0.161,-59.455,20.244,5.243
1747656061.04,-0.007,0.005,0.012,0.951,0.095,0.157,-58.897,20.098,5.096
1747656061.05,-0.012,-0.003,0.025,0.926,0.081,0.167,-58.364,19.995,4.911
1747656061.06,-0.029,-0.010,-0.038,0.899,0.040,0.189,-57.837,19.893,4.821
1747656061.07,-0.030,-0.004,-0.054,0.844,0.057,0.204,-57.331,19.823,4.706
1747656061.08,-0.002,0.005,0.021,0.893,0.034,0.187,-56.829,19.756,4.648
1747656061.09,0.045,0.021,0.058,0.971,0.037,0.168,-56.294,19.642,4.495
1747656061.10,0.078,0.039,0.050,0.990,0.152,0.131,-55.734,19.536,4.355
1747656061.11,0.065,0.045,0.060,0.958,0.147,0.115,-55.187,19.452,4.141
1747656061.12,0.015,0.028,0.014,0.930,0.068,0.146,-54.655,19.356,3.950
1747656061.13,-0.003,0.005,-0.014,0.909,0.020,0.185,-54.128,19.263,3.806
1747656061.14,0.014,-0.010,0.024,0.913,0.009,0.223,-53.599,19.187,3.705
1747656061.15,0.043,-0.020,0.038,0.948,0.012,0.201,-53.057,19.113,3.604
1747656061.16,0.065,-0.012,0.035,0.941,-0.061,0.217,-52.508,19.017,3.497
1747656061.17,0.060,-0.003,0.025,0.920,-0.150,0.253,-51.962,18.895,3.419
1747656061.18,0.058,0.006,0.021,0.876,-0.187,0.273,-51.427,18.768,3.382
1747656061.19,0.056,0.007,0.005,0.826,-0.190,0.259,-50.917,18.646,3.364
1747656061.20,0.036,-0.004,-0.042,0.789,-0.155,0.245,-50.436,18.535,3.348
1747656061.21,-0.013,-0.023,-0.039,0.820,-0.136,0.238,-49.958,18.433,3.325
1747656061.22,-0.060,-0.033,-0.018,0.862,-0.109,0.222,-49.459,18.333,3.285
1747656061.23,-0.085,-0.023,0.000,0.876,-0.090,0.172,-48.952,18.223,3.210
1747656061.24,-0.096,-0.004,0.020,0.893,-0.062,0.129,-48.445,18.090,3.094
1747656061.25,-0.068,0.009,0.037,0.919,0.002,0.134,-47.930,17.974,2.959
1747656061.26,-0.009,0.012,0.065,0.953,0.010,0.146,-47.396,17.883,2.827
1747656061.27,0.041,0.020,0.073,0.933,-0.038,0.181,-46.853,17.792,2.713
1747656061.28,0.089,0.033,0.090,0.906,-0.060,0.251,-46.316,17.715,2.649
1747656061.29,0.149,0.039,0.081,0.893,-0.091,0.315,-45.778,17.673,2.647
1747656061.30,0.165,0.046,0.052,0.892,-0.148,0.354,-45.235,17.633,2.688
1747656061.31,0.144,0.052,0.021,0.892,-0.146,0.355,-44.687,17.588,2.744
1747656061.32,0.093,0.050,0.014,0.873,-0.190,0.327,-44.148,17.527,2.790
1747656061.33,0.001,0.030,0.027,0.888,-0.238,0.327,-43.614,17.427,2.827
1747656061.34,-0.038,0.009,0.057,0.920,-0.161,0.329,-43.064,17.332,2.860
1747656061.35,-0.021,0.003,0.089,0.927,-0.081,0.302,-42.506,17.279,2.881
1747656061.36,0.005,0.008,0.082,0.931,-0.042,0.290,-41.949,17.248,2.885
1747656061.37,0.051,0.020,0.070,0.915,-0.047,0.317,-41.394,17.231,2.896
1747656061.38,0.103,0.040,0.045,0.900,-0.090,0.364,-40.843,17.220,2.939
1747656061.39,0.138,0.071,0.034,0.911,-0.167,0.406,-40.284,17.199,3.015
1747656061.40,0.105,0.101,0.032,0.954,-0.294,0.426,-39.707,17.126,3.107
1747656061.41,0.040,0.115,0.021,0.996,-0.348,0.438,-39.100,16.999,3.201
1747656061.42,-0.016,0.097,0.027,1.019,-0.328,0.410,-38.477,16.856,3.284
1747656061.43,-0.078,0.063,0.016,1.035,-0.225,0.332,-37.852,16.722,3.328
1747656061.44,-0.121,0.011,-0.011,1.002,-0.102,0.251,-37.247,16.625,3.318
1747656061.45,-0.147,-0.039,-0.013,0.982,-0.062,0.222,-36.665,16.554,3.275
1747656061.46,-0.142,-0.098,-0.018,0.961,-0.025,0.227,-36.098,16.504,3.233
1747656061.47,-0.107,-0.108,0.012,0.965,0.028,0.221,-35.536,16.482,3.194
1747656061.48,-0.069,-0.072,0.024,0.993,0.052,0.192,-34.967,16.476,3.139
1747656061.49,-0.062,-0.011,0.032,1.008,0.013,0.171,-34.389,16.451,3.061
1747656061.50,-0.051,0.044,0.003,0.981,-0.017,0.188,-33.814,16.406,2.985
1747656061.51,-0.029,0.083,0.012,0.995,-0.080,0.203,-33.244,16.345,2.924
1747656061.52,-0.014,0.107,0.020,1.042,-0.152,0.201,-32.653,16.244,2.863
1747656061.53,0.004,0.116,0.014,1.079,-0.195,0.158,-32.040,16.100,2.782
1747656061.54,0.013,0.119,0.015,1.123,-0.185,0.115,-31.414,15.928,2.665
1747656061.55,-0.002,0.079,0.027,1.135,-0.152,0.078,-30.779,15.757,2.520
1747656061.56,-0.043,0.028,0.023,1.139,-0.099,0.059,-30.143,15.605,2.359
1747656061.57,-0.087,-0.013,0.008,1.112,-0.067,0.063,-29.514,15.479,2.199
1747656061.58,-0.110,-0.056,0.012,1.100,-0.019,0.082,-28.896,15.381,2.052
1747656061.59,-0.075,-0.094,0.001,1.100,0.038,0.098,-28.277,15.324,1.920
1747656061.60,-0.019,-0.090,-0.004,1.119,0.047,0.090,-27.652,15.292,1.790
1747656061.61,0.011,-0.050,-0.011,1.120,0.002,0.083,-27.022,15.244,1.653
1747656061.62,0.039,-0.005,-0.007,1.128,-0.077,0.083,-26.391,15.162,1.516
1747656061.63,0.074,0.027,0.035,1.172,-0.163,0.101,-25.745,15.033,1.381
1747656061.64,0.100,0.050,0.093,1.232,-0.194,0.104,-25.066,14.872,1.249
1747656061.65,0.108,0.064,0.114,1.251,-0.167,0.098,-24.364,14.709,1.111
1747656061.66,0.074,0.069,0.103,1.278,-0.094,0.158,-23.647,14.584,0.987
1747656061.67,0.038,0.013,0.069,1.259,0.032,0.240,-22.917,14.534,0.909
1747656061.68,0.016,-0.018,0.014,1.304,0.189,0.312,-22.174,14.584,0.877
1747656061.69,0.013,0.016,-0.033,1.410,0.297,0.353,-21.372,14.720,0.866
1747656061.70,0.004,0.025,-0.007,1.400,0.304,0.366,-20.538,14.890,0.856
1747656061.71,0.006,0.075,0.026,1.382,0.274,0.395,-19.712,15.061,0.860
1747656061.72,0.033,0.050,0.024,1.375,0.191,0.385,-18.896,15.199,0.872
1747656061.73,0.062,0.027,0.047,1.407,0.093,0.351,-18.074,15.278,0.865
1747656061.74,0.095,-0.010,0.073,1.416,-0.012,0.348,-17.246,15.293,0.843
1747656061.75,0.115,-0.044,0.124,1.428,-0.126,0.373,-16.406,15.249,0.825
1747656061.76,0.139,-0.068,0.147,1.408,-0.189,0.404,-15.566,15.155,0.827
1747656061.77,0.176,-0.055,0.081,1.399,-0.149,0.441,-14.731,15.063,0.851
1747656061.78,0.207,-0.023,-0.023,1.426,-0.072,0.513,-13.886,15.014,0.905
1747656061.79,0.176,-0.003,-0.107,1.447,-0.027,0.606,-13.005,15.010,1.003
1747656061.80,0.085,0.008,-0.071,1.260,0.066,0.621,-12.166,15.051,1.148
1747656061.81,0.003,-0.022,0.004,1.179,0.144,0.594,-11.410,15.143,1.308
1747656061.82,-0.032,-0.084,-0.012,1.141,0.098,0.554,-10.682,15.239,1.451
1747656061.83,-0.035,-0.091,0.023,1.108,0.038,0.551,-9.982,15.305,1.588
1747656061.84,-0.018,-0.088,0.057,1.116,-0.063,0.552,-9.288,15.321,1.726
1747656061.85,-0.010,-0.009,0.085,1.186,-0.171,0.588,-8.571,15.278,1.869
1747656061.86,-0.012,0.133,0.102,1.265,-0.250,0.601,-7.804,15.177,2.015
1747656061.87,-0.042,0.244,0.045,1.306,-0.266,0.562,-7.007,15.042,2.147
1747656061.88,-0.068,0.237,-0.055,1.280,-0.222,0.550,-6.210,14.913,2.261
1747656061.89,-0.055,0.119,-0.114,1.261,-0.104,0.573,-5.427,14.831,2.386
1747656061.90,-0.037,-0.008,-0.077,1.273,-0.034,0.515,-4.648,14.805,2.505
1747656061.91,-0.051,-0.134,-0.040,1.248,-0.013,0.398,-3.885,14.798,2.574
1747656061.92,-0.074,-0.236,-0.020,1.241,0.013,0.290,-3.151,14.798,2.580
1747656061.93,-0.089,-0.293,-0.000,1.227,0.025,0.244,-2.428,14.806,2.544
1747656061.94,-0.081,-0.272,0.010,1.166,0.052,0.257,-1.733,14.826,2.506
1747656061.95,-0.053,-0.131,0.011,1.181,0.055,0.273,-1.049,14.857,2.481
1747656061.96,-0.028,0.073,0.020,1.195,0.044,0.300,-0.350,14.886,2.464
1747656061.97,0.026,0.236,-0.003,1.176,-0.018,0.324,0.352,14.893,2.462
1747656061.98,0.081,0.301,-0.082,1.177,-0.102,0.346,1.048,14.861,2.475
1747656061.99,0.089,0.266,-0.106,1.169,-0.170,0.330,1.747,14.781,2.490
1747656062.00,0.068,0.151,-0.077,1.142,-0.171,0.280,2.430,14.682,2.491
1747656062.01,0.019,0.009,-0.054,1.130,-0.152,0.280,3.097,14.590,2.481
1747656062.02,-0.044,-0.115,-0.025,1.110,-0.091,0.286,3.757,14.519,2.478
1747656062.03,-0.058,-0.133,0.006,1.114,-0.007,0.254,4.409,14.494,2.468
1747656062.04,-0.032,-0.056,0.011,1.132,0.022,0.251,5.067,14.502,2.445
1747656062.05,-0.009,0.053,-0.007,1.132,0.026,0.265,5.731,14.519,2.426
1747656062.06,-0.013,0.156,-0.060,1.114,0.021,0.265,6.390,14.534,2.411
1747656062.07,-0.039,0.187,-0.085,1.100,0.009,0.270,7.041,14.544,2.400
1747656062.08,-0.027,0.159,-0.094,1.049,-0.021,0.244,7.672,14.544,2.389
1747656062.09,0.033,0.099,-0.125,1.011,-0.107,0.213,8.274,14.511,2.367
1747656062.10,0.089,0.012,-0.131,0.977,-0.215,0.184,8.852,14.425,2.334
1747656062.11,0.113,-0.074,-0.129,0.924,-0.325,0.147,9.401,14.277,2.292
1747656062.12,0.088,-0.160,-0.106,0.924,-0.397,0.110,9.929,14.077,2.235
1747656062.13,0.037,-0.182,-0.086,0.841,-0.439,0.094,10.436,13.842,2.167
1747656062.14,0.004,-0.168,-0.034,0.819,-0.341,0.062,10.904,13.632,2.097
1747656062.15,-0.063,-0.115,-0.008,0.809,-0.251,0.062,11.364,13.476,2.019
1747656062.16,-0.117,-0.043,-0.001,0.799,-0.120,0.081,11.821,13.384,1.952
1747656062.17,-0.062,0.003,-0.028,0.769,-0.073,0.086,12.267,13.344,1.892
1747656062.18,0.015,0.041,-0.045,0.742,-0.094,0.115,12.700,13.306,1.847
1747656062.19,0.080,0.069,-0.057,0.713,-0.124,0.136,13.120,13.250,1.821
1747656062.20,0.117,0.054,-0.059,0.733,-0.171,0.149,13.541,13.169,1.806
1747656062.21,0.110,0.029,-0.045,0.686,-0.168,0.150,13.953,13.072,1.798
1747656062.22,0.121,-0.007,-0.052,0.611,-0.189,0.133,14.331,12.975,1.791
1747656062.23,0.114,-0.126,-0.072,0.561,-0.257,0.170,14.676,12.845,1.800
1747656062.24,0.085,-0.103,-0.071,0.523,-0.298,0.190,15.000,12.677,1.833
1747656062.25,0.084,-0.025,-0.064,0.502,-0.315,0.186,15.309,12.490,1.876
1747656062.26,0.058,0.052,-0.047,0.497,-0.298,0.193,15.610,12.301,1.922
1747656062.27,-0.018,0.068,-0.032,0.507,-0.193,0.199,15.913,12.145,1.973
1747656062.28,-0.085,0.046,-0.005,0.550,-0.078,0.202,16.233,12.055,2.023
1747656062.29,-0.118,0.013,0.008,0.542,0.017,0.195,16.563,12.025,2.070
1747656062.30,-0.084,-0.013,0.012,0.524,0.055,0.184,16.883,12.034,2.115
1747656062.31,-0.024,-0.042,-0.011,0.502,0.049,0.176,17.191,12.052,2.158
1747656062.32,0.024,-0.068,-0.029,0.476,0.002,0.152,17.484,12.056,2.193
1747656062.33,0.072,-0.066,-0.036,0.467,-0.103,0.134,17.763,12.022,2.219
1747656062.34,0.103,-0.037,-0.052,0.449,-0.218,0.121,18.036,11.922,2.237
1747656062.35,0.100,-0.020,-0.052,0.424,-0.236,0.120,18.293,11.782,2.254
1747656062.36,0.062,-0.018,-0.049,0.417,-0.179,0.137,18.543,11.654,2.277
1747656062.37,-0.001,-0.004,-0.036,0.392,-0.096,0.162,18.786,11.564,2.316
1747656062.38,-0.049,0.006,-0.029,0.378,-0.042,0.174,19.021,11.508,2.369
1747656062.39,-0.058,-0.001,-0.039,0.372,0.028,0.179,19.251,11.483,2.428
1747656062.40,-0.033,0.004,-0.033,0.380,0.054,0.148,19.482,11.490,3.316
1747656062.41,0.001,-0.040,-0.029,0.353,0.027,0.111,19.700,11.505,3.348
1747656062.42,0.013,-0.037,-0.039,0.338,-0.060,0.095,19.905,11.489,3.779
1747656062.43,0.008,-0.010,-0.064,0.335,-0.113,0.078,20.104,11.435,3.789
1747656062.44,-0.007,-0.013,-0.063,0.326,-0.116,0.065,20.297,11.368,4.195
1747656062.45,-0.020,0.011,-0.065,0.309,-0.100,0.060,20.482,11.306,4.195
1747656062.46,-0.037,0.042,-0.075,0.293,-0.065,0.052,20.657,11.259,4.591
1747656062.47,-0.046,0.041,-0.068,0.272,-0.014,0.042,20.820,11.240,4.584
1747656062.48,-0.051,0.017,-0.063,0.268,0.014,0.025,20.975,11.244,5.355
1747656062.49,-0.040,0.006,-0.051,0.259,0.001,0.001,21.125,11.258,5.331
1747656062.50,0.006,0.013,-0.042,0.232,-0.044,-0.014,21.261,11.259,5.689
1747656062.51,0.055,-0.003,-0.049,0.209,-0.089,-0.014,21.383,11.233,5.653
1747656062.52,0.058,-0.026,-0.052,0.187,-0.065,0.008,21.493,11.196,6.018
1747656062.53,0.049,-0.033,-0.022,0.145,0.022,0.034,21.590,11.187,6.010
1747656062.54,0.054,-0.034,-0.020,0.093,0.053,0.065,21.662,11.205,6.405
1747656062.55,0.074,-0.046,-0.049,0.047,0.030,0.121,21.711,11.213,6.452
1747656062.56,0.103,-0.045,-0.055,0.002,-0.001,0.189,21.742,11.187,7.299
1747656062.57,0.126,-0.013,-0.057,-0.026,-0.025,0.242,21.758,11.128,7.432
1747656062.58,0.122,-0.003,-0.059,-0.067,-0.022,0.289,21.760,11.054,8.328
1747656062.59,0.094,-0.047,-0.035,-0.111,0.011,0.325,21.743,10.978,8.522
1747656062.60,0.074,-0.078,0.013,-0.144,0.074,0.377,21.709,10.919,9.464
1747656062.61,0.076,-0.077,0.042,-0.161,0.131,0.427,21.667,10.884,9.723
1747656062.62,0.065,-0.062,0.041,-0.197,0.186,0.465,21.615,10.868,10.704
1747656062.63,0.059,-0.048,0.013,-0.239,0.227,0.515,21.545,10.869,11.025
1747656062.64,0.074,-0.046,-0.020,-0.263,0.224,0.582,21.463,10.867,11.728
1747656062.65,0.093,-0.041,-0.055,-0.284,0.226,0.620,21.377,10.852,12.128
1747656062.66,0.087,0.003,-0.052,-0.320,0.207,0.598,21.272,10.830,13.199
1747656062.67,0.063,0.022,-0.034,-0.322,0.205,0.602,21.155,10.804,13.600
1747656062.68,0.004,-0.006,-0.032,-0.319,0.248,0.573,21.036,10.792,14.659
1747656062.69,-0.045,0.002,-0.024,-0.306,0.298,0.490,20.917,10.821,15.013
1747656062.70,-0.054,-0.012,-0.023,-0.273,0.339,0.443,20.805,10.891,15.967
1747656062.71,-0.041,-0.013,-0.010,-0.276,0.369,0.385,20.697,10.994,16.248
1747656062.72,-0.016,-0.027,0.014,-0.298,0.344,0.365,20.578,11.111,17.139
1747656062.73,0.056,-0.020,-0.002,-0.354,0.263,0.432,20.439,11.190,17.413
1747656062.74,0.146,-0.023,-0.033,-0.398,0.168,0.506,20.282,11.198,18.357
1747656062.75,0.194,-0.051,-0.027,-0.451,0.143,0.559,20.103,11.158,18.727
1747656062.76,0.170,-0.034,0.014,-0.486,0.208,0.634,19.904,11.117,19.747
1747656062.77,0.086,-0.003,0.019,-0.496,0.284,0.721,19.704,11.102,20.210
1747656062.78,0.011,-0.009,0.020,-0.511,0.413,0.780,19.504,11.133,21.319
1747656062.79,0.030,-0.031,0.039,-0.501,0.523,0.777,19.307,11.225,21.843
1747656062.80,0.048,-0.054,0.048,-0.500,0.575,0.716,19.111,11.376,22.931
1747656062.81,0.036,-0.055,0.059,-0.480,0.585,0.677,18.914,11.556,23.400
1747656062.82,0.087,-0.108,0.063,-0.471,0.505,0.628,18.723,11.729,24.401
1747656062.83,0.117,-0.111,0.028,-0.500,0.364,0.569,18.520,11.842,24.812
1747656062.84,0.122,0.011,-0.068,-0.503,0.178,0.535,18.302,11.876,25.741
1747656062.85,0.083,0.103,-0.123,-0.510,0.084,0.503,18.083,11.841,26.109
1747656062.86,0.071,0.094,-0.122,-0.552,-0.008,0.522,17.844,11.746,27.010
1747656062.87,0.116,0.004,-0.092,-0.568,-0.040,0.596,17.595,11.604,27.405
1747656062.88,0.137,0.023,-0.057,-0.594,-0.079,0.664,17.340,11.435,28.380
1747656062.89,0.031,0.110,-0.076,-0.556,-0.106,0.740,17.091,11.238,28.851
1747656062.90,0.012,0.064,-0.080,-0.546,0.026,0.710,16.869,11.069,29.872
1747656062.91,-0.055,0.100,-0.003,-0.473,0.147,0.506,16.649,11.002,30.277
1747656062.92,-0.107,0.142,-0.069,-0.502,0.128,0.533,16.433,10.987,31.149
1747656062.93,-0.155,0.064,-0.110,-0.510,0.098,0.468,16.205,10.950,31.501
1747656062.94,-0.149,0.034,-0.115,-0.507,0.017,0.397,15.967,10.898,32.301
1747656062.95,-0.127,0.031,-0.095,-0.517,-0.026,0.322,15.718,10.819,32.571
1747656062.96,-0.032,0.025,-0.070,-0.529,-0.060,0.220,15.454,10.737,33.255
1747656062.97,0.066,0.032,-0.063,-0.587,-0.141,0.299,15.167,10.627,33.461
1747656062.98,0.108,0.027,-0.045,-0.586,-0.229,0.368,14.873,10.451,34.200
1747656062.99,0.083,0.013,-0.040,-0.534,-0.262,0.340,14.593,10.238,34.467
1747656063.00,0.036,0.016,0.013,-0.479,-0.176,0.300,14.342,10.047,35.175
1747656063.01,-0.009,0.026,0.020,-0.439,-0.092,0.313,14.114,9.912,35.399
1747656063.02,-0.124,0.062,-0.018,-0.420,0.035,0.244,13.901,9.843,36.071
1747656063.03,-0.209,0.064,-0.031,-0.407,0.149,0.118,13.686,9.863,36.221
1747656063.04,-0.199,0.014,-0.039,-0.448,0.230,0.073,13.457,9.958,36.779
1747656063.05,-0.138,-0.005,-0.029,-0.481,0.200,0.097,13.203,10.059,36.878
1747656063.06,-0.040,0.042,-0.047,-0.473,0.129,0.110,12.945,10.130,37.442
1747656063.06,0.064,0.095,-0.065,-0.470,0.050,0.147,12.691,10.150,37.566
1747656063.07,0.080,0.124,-0.049,-0.415,0.043,0.128,12.455,10.147,38.136
1747656063.08,0.005,0.133,-0.037,-0.368,0.104,0.064,12.246,10.166,38.231
1747656063.10,-0.085,0.112,-0.052,-0.352,0.248,0.039,12.047,10.250,38.720
1747656063.10,-0.156,0.031,-0.050,-0.318,0.384,-0.081,11.857,10.427,38.749
1747656063.11,-0.148,-0.053,0.035,-0.384,0.474,-0.126,11.651,10.685,39.131
1747656063.12,0.031,-0.119,0.058,-0.438,0.343,-0.033,11.410,10.924,39.129
1747656063.13,0.179,-0.104,-0.067,-0.453,0.152,0.064,11.161,11.052,39.612
1747656063.14,0.183,0.012,-0.099,-0.457,0.082,0.145,10.915,11.095,39.724
1747656063.15,0.100,0.133,-0.105,-0.468,0.076,0.193,10.678,11.105,40.268
1747656063.16,0.025,0.154,-0.104,-0.545,0.206,0.292,10.417,11.152,40.470
1747656063.17,0.016,0.018,-0.068,-0.594,0.347,0.227,10.128,11.272,41.069
1747656063.18,-0.004,-0.145,-0.028,-0.680,0.461,0.232,9.798,11.469,41.652
1747656063.19,0.019,-0.318,0.043,-0.677,0.352,0.144,9.432,11.693,41.850
1747656063.20,0.095,-0.279,-0.016,-0.720,0.244,0.095,9.069,11.836,42.348
1747656063.21,0.149,-0.174,-0.073,-0.724,0.132,0.114,8.670,11.916,42.505
1747656063.22,0.034,-0.006,-0.093,-0.737,0.185,0.010,8.275,11.985,42.980
1747656063.23,-0.032,0.118,-0.041,-0.797,0.243,-0.079,7.842,12.096,43.052
1747656063.24,-0.013,0.111,-0.126,-0.870,0.312,-0.136,7.363,12.250,43.439
1747656063.25,0.012,0.025,-0.175,-0.863,0.347,-0.200,6.857,12.441,43.456
1747656063.26,-0.002,-0.017,-0.148,-0.859,0.254,-0.358,6.345,12.623,43.743
1747656063.27,-0.011,0.001,-0.145,-0.883,0.121,-0.479,5.809,12.741,43.618
1747656063.28,-0.029,0.009,-0.157,-0.921,0.076,-0.603,5.237,12.813,43.755
1747656063.29,-0.075,0.019,-0.112,-0.941,0.071,-0.786,4.632,12.876,43.489
1747656063.30,-0.119,0.041,-0.084,-0.995,0.064,-0.933,3.984,12.942,43.297
1747656063.31,-0.077,0.029,-0.065,-1.063,0.070,-0.896,3.290,13.008,42.912
1747656063.32,0.025,-0.019,-0.100,-1.105,0.086,-0.697,2.582,13.071,42.604
1747656063.33,0.067,-0.055,-0.110,-1.129,0.078,-0.498,1.884,13.124,42.418
1747656063.34,0.031,-0.044,-0.099,-1.168,0.117,-0.355,1.190,13.179,42.332
1747656063.35,-0.028,-0.035,-0.120,-1.164,0.182,-0.292,0.500,13.265,42.307
1747656063.36,-0.089,-0.046,-0.110,-1.219,0.266,-0.290,-0.198,13.392,42.302
1747656063.37,-0.089,-0.049,-0.090,-1.263,0.333,-0.313,-0.928,13.565,42.302
1747656063.38,-0.061,-0.031,-0.125,-1.293,0.308,-0.362,-1.685,13.753,42.287
1747656063.39,-0.084,0.009,-0.142,-1.276,0.258,-0.412,-2.449,13.912,42.248
1747656063.40,-0.136,0.076,-0.137,-1.253,0.266,-0.488,-3.212,14.056,42.175
1747656063.41,-0.193,0.145,-0.115,-1.230,0.310,-0.562,-3.974,14.212,42.056
1747656063.42,-0.223,0.173,-0.096,-1.199,0.404,-0.631,-4.729,14.403,41.897
1747656063.43,-0.208,0.143,-0.065,-1.172,0.523,-0.693,-5.479,14.651,41.700
1747656063.44,-0.149,0.065,-0.012,-1.187,0.596,-0.714,-6.232,14.950,41.480
1747656063.45,-0.052,-0.015,-0.033,-1.260,0.596,-0.691,-7.010,15.268,41.272
1747656063.46,0.054,-0.058,-0.070,-1.302,0.558,-0.634,-7.818,15.575,41.100
1747656063.47,0.132,-0.065,-0.053,-1.326,0.504,-0.598,-8.634,15.862,40.965
1747656063.48,0.144,-0.031,-0.061,-1.375,0.391,-0.598,-9.470,16.101,40.848
1747656063.49,0.110,-0.001,-0.067,-1.365,0.305,-0.612,-10.320,16.277,40.733
1747656063.50,0.071,0.013,0.006,-1.335,0.269,-0.641,-11.160,16.418,40.606
1747656063.51,0.034,0.012,0.014,-1.338,0.211,-0.676,-11.998,16.525,40.458
1747656063.52,0.008,-0.017,-0.024,-1.330,0.239,-0.684,-12.838,16.614,40.298
1747656063.53,0.008,-0.059,-0.004,-1.348,0.330,-0.667,-13.682,16.742,40.143
1747656063.54,-0.011,-0.091,0.015,-1.375,0.386,-0.619,-14.532,16.917,40.012
1747656063.55,-0.038,-0.109,0.009,-1.414,0.424,-0.551,-15.390,17.124,39.922
1747656063.56,-0.014,-0.103,0.023,-1.429,0.492,-0.508,-16.257,17.373,39.874
1747656063.57,0.031,-0.075,0.065,-1.407,0.502,-0.490,-17.116,17.652,39.845
1747656063.58,0.068,-0.044,0.077,-1.409,0.441,-0.472,-17.965,17.919,39.828
1747656063.59,0.098,-0.026,0.027,-1.423,0.354,-0.455,-18.815,18.145,39.826
1747656063.60,0.114,-0.025,-0.007,-1.416,0.286,-0.452,-19.667,18.330,39.835
1747656063.61,0.090,-0.037,0.010,-1.401,0.275,-0.471,-20.513,18.489,39.840
1747656063.62,0.049,-0.064,0.023,-1.402,0.291,-0.491,-21.361,18.649,39.833
1747656063.63,0.000,-0.097,0.027,-1.413,0.327,-0.490,-22.211,18.819,39.824
1747656063.64,-0.035,-0.133,-0.000,-1.427,0.421,-0.469,-23.067,19.035,39.828
1747656063.65,-0.032,-0.161,-0.008,-1.444,0.432,-0.456,-23.928,19.293,39.849
1747656063.66,-0.036,-0.159,-0.004,-1.451,0.380,-0.436,-24.792,19.539,39.888
1747656063.67,-0.048,-0.133,0.015,-1.456,0.403,-0.423,-25.655,19.783,39.942
1747656063.68,-0.027,-0.102,0.059,-1.484,0.393,-0.400,-26.525,20.044,40.014
1747656063.69,0.020,-0.071,0.033,-1.515,0.345,-0.367,-27.405,20.300,40.114
1747656063.70,0.073,-0.035,0.013,-1.512,0.314,-0.351,-28.286,20.547,40.239
1747656063.71,0.119,-0.005,0.012,-1.487,0.246,-0.362,-29.158,20.769,40.366
1747656063.72,0.128,0.010,0.016,-1.479,0.163,-0.381,-30.024,20.945,40.484
1747656063.73,0.099,0.001,0.033,-1.479,0.066,-0.383,-30.891,21.069,40.598
1747656063.74,0.055,-0.029,0.027,-1.506,0.030,-0.352,-31.762,21.161,40.728
1747656063.75,0.016,-0.067,0.039,-1.501,0.009,-0.320,-32.633,21.257,40.885
1747656063.76,-0.015,-0.084,0.021,-1.498,-0.011,-0.309,-33.496,21.349,41.057
1747656063.77,-0.030,-0.076,0.015,-1.458,0.034,-0.320,-34.349,21.449,41.227
1747656063.78,-0.028,-0.051,0.017,-1.440,0.083,-0.336,-35.186,21.572,41.383
1747656063.79,-0.033,-0.018,0.007,-1.455,0.110,-0.349,-36.026,21.717,41.534
1747656063.80,-0.062,0.007,-0.036,-1.470,0.100,-0.362,-36.877,21.868,41.686
1747656063.81,-0.098,0.019,-0.069,-1.462,0.117,-0.368,-37.732,22.018,41.836
1747656063.82,-0.106,0.012,-0.039,-1.433,0.126,-0.371,-38.580,22.180,41.984
1747656063.83,-0.102,-0.005,-0.000,-1.363,0.094,-0.388,-39.402,22.326,42.115
1747656063.84,-0.089,-0.022,-0.007,-1.316,0.084,-0.419,-40.194,22.440,42.216
1747656063.85,-0.052,-0.045,-0.017,-1.305,0.079,-0.452,-40.981,22.535,42.290
1747656063.86,-0.020,-0.066,0.003,-1.286,0.080,-0.466,-41.766,22.616,42.345
1747656063.87,0.008,-0.075,0.029,-1.258,0.043,-0.463,-42.538,22.683,42.390
1747656063.88,0.038,-0.065,0.028,-1.294,0.079,-0.435,-43.308,22.753,42.448
1747656063.89,0.068,-0.057,0.010,-1.286,0.073,-0.380,-44.081,22.868,42.547
1747656063.90,0.073,-0.047,-0.018,-1.245,0.045,-0.362,-44.828,22.986,42.670
1747656063.91,0.079,-0.029,-0.046,-1.259,0.033,-0.375,-45.567,23.094,42.792
1747656063.92,0.077,-0.018,-0.052,-1.275,0.018,-0.399,-46.319,23.194,42.909
1747656063.93,0.037,-0.016,-0.025,-1.275,0.000,-0.425,-47.083,23.275,43.013
1747656063.94,-0.030,-0.022,0.017,-1.251,0.003,-0.455,-47.844,23.334,43.093
1747656063.95,-0.081,-0.028,-0.023,-1.254,0.029,-0.469,-48.605,23.385,43.154
1747656063.96,-0.090,-0.040,-0.060,-1.268,0.073,-0.474,-49.373,23.461,43.213
1747656063.97,-0.079,-0.052,-0.047,-1.280,0.080,-0.485,-50.150,23.552,43.274
1747656063.98,-0.057,-0.061,-0.025,-1.269,0.112,-0.479,-50.929,23.653,43.336
1747656063.99,-0.013,-0.058,0.005,-1.249,0.118,-0.460,-51.694,23.774,43.404
1747656064.00,0.020,-0.039,-0.000,-1.260,0.084,-0.428,-52.451,23.904,43.405
1747656064.01,0.047,-0.014,-0.011,-1.267,0.118,-0.405,-53.206,24.058,43.530
1747656064.02,0.075,0.009,0.010,-1.267,0.162,-0.411,-53.961,24.256,43.510
1747656064.03,0.067,0.038,0.036,-1.270,0.123,-0.433,-54.720,24.450,43.647
1747656064.04,0.026,0.066,0.037,-1.255,0.085,-0.455,-55.481,24.608,43.595
1747656064.05,-0.010,0.075,0.042,-1.232,0.055,-0.487,-56.239,24.726,43.689
1747656064.06,-0.044,0.070,0.042,-1.197,0.033,-0.507,-56.988,24.800,43.573
1747656064.07,-0.064,0.052,0.028,-1.177,0.041,-0.516,-57.726,24.848,43.395
1747656064.08,-0.066,0.025,0.003,-1.176,0.111,-0.522,-58.459,24.907,43.416
1747656064.09,-0.050,-0.004,0.017,-1.208,0.199,-0.509,-59.201,25.029,43.245
1747656064.10,-0.037,-0.030,0.048,-1.207,0.255,-0.492,-59.948,25.221,43.315
1747656064.11,-0.031,-0.044,0.033,-1.215,0.281,-0.490,-60.692,25.448,43.167
1747656064.12,-0.009,-0.048,0.026,-1.238,0.273,-0.486,-61.445,25.698,43.272
1747656064.13,0.031,-0.047,0.039,-1.210,0.273,-0.462,-62.192,25.966,43.146
1747656064.14,0.078,-0.032,0.015,-1.204,0.289,-0.440,-62.922,26.265,43.301
1747656064.15,0.106,-0.004,0.029,-1.240,0.270,-0.441,-63.658,26.596,43.231
1747656064.16,0.090,0.024,0.095,-1.285,0.279,-0.474,-64.421,26.944,43.444
1747656064.17,0.051,0.033,0.141,-1.283,0.319,-0.507,-65.204,27.296,43.399
1747656064.18,0.014,0.023,0.116,-1.204,0.281,-0.506,-65.971,27.627,43.572
1747656064.19,-0.017,0.006,0.061,-1.153,0.241,-0.468,-66.690,27.916,43.448
1747656064.20,-0.014,-0.006,0.039,-1.184,0.150,-0.384,-67.397,28.270,43.706
1747656064.37,-0.006,-0.026,0.014,-1.050,0.047,-0.313,-68.056,28.649,43.784
1747656064.38,0.014,-0.029,0.006,-0.937,0.146,-0.364,-68.639,28.962,44.068
1747656064.39,0.063,-0.017,0.016,-0.997,0.235,-0.482,-69.235,29.223,43.956
1747656064.40,0.085,-0.019,0.014,-1.089,0.168,-0.540,-69.902,29.438,44.056
1747656064.41,0.066,-0.028,-0.019,-1.062,0.001,-0.481,-70.585,29.626,43.936
1747656064.42,0.009,-0.036,-0.064,-1.025,-0.036,-0.423,-71.227,29.813,44.153
1747656064.43,-0.051,-0.028,-0.035,-1.064,0.114,-0.397,-71.860,30.116,44.176
1747656064.44,-0.082,-0.022,0.040,-1.032,0.254,-0.359,-72.489,30.591,44.564
1747656064.45,-0.121,-0.030,0.038,-0.984,0.384,-0.329,-73.082,31.180,44.992
1747656064.46,-0.161,-0.052,0.026,-1.025,0.535,-0.320,-73.667,31.919,45.488
1747656064.46,-0.163,-0.080,0.034,-1.054,0.619,-0.316,-74.267,32.829,46.088
1747656064.47,-0.131,-0.080,-0.003,-1.044,0.640,-0.316,-74.867,33.840,46.763
1747656064.48,-0.058,-0.047,-0.037,-1.047,0.652,-0.321,-75.461,34.912,47.490
1747656064.49,0.040,-0.011,-0.013,-1.053,0.621,-0.320,-76.058,36.062,48.301
1747656064.49,0.130,0.018,0.010,-0.981,0.584,-0.288,-76.629,37.263,49.182
1747656064.51,0.187,0.033,-0.005,-0.879,0.495,-0.279,-77.147,38.431,50.060
1747656064.51,0.187,0.026,-0.063,-0.803,0.319,-0.308,-77.623,39.431,50.845
1747656064.52,0.149,-0.013,-0.095,-0.796,0.156,-0.332,-78.090,40.258,51.557
1747656064.53,0.121,-0.051,-0.065,-0.828,0.141,-0.327,-78.563,41.103,52.339
1747656064.54,0.101,-0.054,-0.018,-0.860,0.079,-0.346,-79.051,42.069,53.251
1747656064.54,0.018,-0.022,-0.019,-0.857,-0.091,-0.384,-79.555,43.013,54.217
1747656064.56,-0.059,0.009,-0.069,-0.838,-0.088,-0.408,-80.062,43.887,55.166
1747656064.56,-0.059,0.034,-0.060,-0.835,0.115,-0.412,-80.567,44.864,56.153
1747656064.57,-0.049,0.035,0.008,-0.823,0.319,-0.392,-81.063,46.080,57.257
1747656064.58,-0.071,-0.000,0.042,-0.834,0.444,-0.354,-81.542,47.609,58.579
1747656064.59,-0.084,-0.042,0.045,-0.843,0.447,-0.311,-82.002,49.481,60.209
1747656064.59,-0.065,-0.059,0.010,-0.844,0.459,-0.266,-82.435,51.696,62.187
1747656064.61,-0.016,-0.053,-0.014,-0.827,0.548,-0.227,-82.834,54.276,64.501
1747656064.61,0.036,-0.049,-0.010,-0.804,0.641,-0.220,-83.202,57.185,67.087
1747656064.62,0.059,-0.056,-0.009,-0.766,0.614,-0.220,-83.543,60.299,69.855
1747656064.63,0.073,-0.066,-0.056,-0.708,0.488,-0.214,-83.852,63.456,72.714
1747656064.64,0.097,-0.080,-0.067,-0.660,0.372,-0.204,-84.124,66.573,75.601
1747656064.65,0.136,-0.067,-0.046,-0.620,0.256,-0.196,-84.365,69.701,78.565
1747656064.66,0.168,-0.026,-0.060,-0.559,0.120,-0.205,-84.582,72.745,81.513
1747656064.66,0.168,0.025,-0.091,-0.478,0.018,-0.222,-84.780,75.474,84.220
1747656064.67,0.159,0.060,-0.087,-0.434,0.059,-0.239,-84.968,77.959,86.696
1747656064.68,0.141,0.067,-0.011,-0.459,0.035,-0.227,-85.147,80.586,89.300
1747656064.69,0.081,0.041,0.012,-0.469,-0.066,-0.210,-85.306,83.545,92.278
1747656064.70,-0.003,-0.000,0.002,-0.419,-0.139,-0.209,-85.446,86.499,95.301
1747656064.71,-0.080,-0.028,-0.007,-0.372,-0.154,-0.212,-85.576,89.213,98.111
1747656064.71,-0.122,-0.045,-0.017,-0.376,-0.045,-0.199,-85.691,91.952,100.919
1747656064.72,-0.130,-0.056,0.010,-0.396,0.137,-0.164,-85.781,95.017,103.967
1747656064.73,-0.116,-0.044,0.028,-0.398,0.302,-0.119,-85.835,98.353,107.185
1747656064.74,-0.086,0.003,0.008,-0.375,0.417,-0.062,-85.847,101.703,110.336
1747656064.75,-0.065,0.052,-0.007,-0.326,0.484,-0.034,-85.826,104.706,113.087
1747656064.76,-0.078,0.059,0.039,-0.304,0.490,-0.037,-85.796,107.413,115.518
1747656064.76,-0.108,0.035,0.068,-0.283,0.415,-0.058,-85.768,109.943,117.794
1747656064.77,-0.128,-0.002,0.029,-0.293,0.368,-0.100,-85.751,112.420,120.056
1747656064.78,-0.092,-0.027,0.024,-0.343,0.462,-0.143,-85.741,115.258,122.669
1747656064.79,-0.019,-0.026,0.069,-0.373,0.518,-0.178,-85.732,118.556,125.689
1747656064.80,0.034,-0.016,0.072,-0.391,0.417,-0.182,-85.710,122.056,128.926
1747656064.81,0.071,-0.006,0.025,-0.340,0.273,-0.203,-85.684,125.384,132.066
1747656064.81,0.117,-0.006,-0.028,-0.251,0.119,-0.211,-85.678,128.237,134.813
1747656064.82,0.156,0.012,-0.059,-0.132,-0.086,-0.193,-85.697,130.366,136.938
1747656064.83,0.170,0.048,-0.097,-0.047,-0.165,-0.152,-85.739,131.640,138.296
1747656064.84,0.163,0.057,-0.083,-0.034,-0.063,-0.112,-85.781,132.459,139.186
1747656064.85,0.112,0.029,-0.016,-0.059,0.045,-0.064,-85.801,133.183,139.914
1747656064.86,0.020,-0.010,0.008,-0.076,0.104,-0.025,-85.791,133.844,140.532
1747656064.86,-0.078,-0.045,0.006,-0.102,0.078,-0.014,-85.764,134.456,141.091
1747656064.87,-0.145,-0.052,-0.008,-0.148,0.049,-0.046,-85.724,135.337,141.941
1747656064.88,-0.146,-0.034,-0.013,-0.122,0.103,-0.059,-85.688,136.424,142.989
1747656064.89,-0.082,-0.010,-0.006,-0.071,0.171,-0.043,-85.669,137.306,143.793
1747656064.89,-0.008,0.012,0.008,-0.042,0.171,-0.020,-85.658,137.851,144.240
1747656064.91,0.052,0.019,0.017,-0.064,0.118,0.001,-85.641,138.244,144.549
1747656064.91,0.101,-0.004,0.032,-0.070,0.051,0.010,-85.608,138.614,144.872
1747656064.92,0.130,-0.042,0.029,-0.016,-0.034,0.014,-85.584,138.774,145.028
1747656064.93,0.121,-0.048,-0.006,0.035,-0.112,0.009,-85.584,138.608,144.904
1747656064.94,0.066,-0.007,-0.018,0.077,-0.211,-0.011,-85.608,138.246,144.631
1747656064.95,-0.016,0.036,-0.013,0.131,-0.294,-0.035,-85.660,137.711,144.244
1747656064.96,-0.076,0.049,-0.007,0.184,-0.215,-0.051,-85.745,136.965,143.648
1747656064.96,-0.081,0.049,0.031,0.137,-0.003,-0.036,-85.832,136.266,143.012
1747656064.97,-0.060,0.030,0.098,0.047,0.193,-0.009,-85.877,135.952,142.639
1747656064.98,-0.052,-0.009,0.116,-0.008,0.248,0.002,-85.883,135.991,142.545
1747656064.99,-0.057,-0.046,0.080,-0.049,0.207,-0.003,-85.868,136.261,142.684
1747656065.00,-0.042,-0.066,0.066,-0.077,0.150,-0.015,-85.843,136.726,143.048
1747656065.01,-0.003,-0.053,0.067,-0.078,0.060,-0.012,-85.813,137.274,143.535
1747656065.01,0.038,-0.019,0.059,-0.024,-0.037,-0.007,-85.794,137.619,143.876
1747656065.02,0.066,0.019,0.047,0.056,-0.109,-0.005,-85.805,137.550,143.849
1747656065.03,0.069,0.041,0.036,0.128,-0.164,-0.002,-85.847,137.029,143.404
1747656065.04,0.038,0.046,0.040,0.184,-0.192,-0.013,-85.914,136.166,142.641
1747656065.04,-0.015,0.042,0.039,0.206,-0.229,-0.037,-86.003,135.135,141.729
1747656065.06,-0.068,0.024,0.027,0.186,-0.226,-0.055,-86.100,134.178,140.902
1747656065.06,-0.095,0.003,0.024,0.175,-0.189,-0.056,-86.193,133.350,140.190
1747656065.07,-0.099,-0.010,0.020,0.179,-0.152,-0.045,-86.281,132.494,139.429
1747656065.08,-0.088,-0.019,0.020,0.196,-0.086,-0.031,-86.364,131.450,138.452
1747656065.09,-0.061,-0.019,0.050,0.224,-0.024,-0.000,-86.445,130.072,137.100
1747656065.10,-0.040,-0.006,0.060,0.277,-0.008,0.031,-86.522,128.156,135.189
1747656065.11,-0.041,0.006,0.047,0.342,0.048,0.037,-86.608,125.609,132.627
1747656065.11,-0.036,0.012,0.036,0.376,0.108,0.035,-86.707,122.565,129.534
1747656065.12,-0.018,0.008,0.026,0.345,0.111,0.046,-86.798,119.378,126.274
1747656065.13,0.001,-0.009,0.049,0.323,0.037,0.088,-86.857,116.164,123.011
1747656065.14,0.013,-0.013,0.060,0.349,-0.053,0.126,-86.884,112.607,119.454
1747656065.15,0.005,-0.007,0.034,0.379,-0.083,0.143,-86.885,108.487,115.370
1747656065.16,-0.002,-0.017,0.034,0.375,-0.066,0.143,-86.867,104.222,111.143
1747656065.16,0.012,-0.038,0.042,0.376,-0.071,0.120,-86.838,100.097,107.050
1747656065.17,0.037,-0.044,0.024,0.430,-0.105,0.076,-86.814,95.826,102.820
1747656065.18,0.073,-0.024,0.003,0.522,-0.197,0.040,-86.797,90.864,97.936
1747656065.19,0.118,0.005,-0.024,0.580,-0.284,0.038,-86.766,85.113,92.314
1747656065.20,0.157,0.034,-0.015,0.637,-0.385,0.077,-86.685,78.992,86.373
1747656065.21,0.156,0.062,-0.008,0.681,-0.529,0.119,-86.539,72.771,80.402
1747656065.21,0.089,0.080,-0.008,0.708,-0.608,0.145,-86.330,66.870,74.821
1747656065.23,-0.025,0.069,0.030,0.695,-0.570,0.142,-86.080,61.619,69.899
1747656065.23,-0.126,0.006,0.067,0.655,-0.420,0.129,-85.817,57.206,65.762
1747656065.24,-0.168,-0.072,0.093,0.624,-0.265,0.117,-85.553,53.574,62.312
1747656065.25,-0.157,-0.118,0.084,0.651,-0.163,0.118,-85.277,50.416,59.264
1747656065.26,-0.103,-0.116,0.043,0.728,-0.110,0.143,-84.963,47.441,56.355
1747656065.27,-0.022,-0.076,0.003,0.817,-0.038,0.188,-84.588,44.635,53.581
1747656065.28,0.054,0.008,-0.007,0.880,-0.052,0.215,-84.155,42.096,51.049
1747656065.29,0.065,0.126,-0.030,0.944,-0.267,0.195,-83.683,39.646,48.672
1747656065.30,0.002,0.186,-0.096,0.944,-0.320,0.185,-83.191,37.255,46.451
1747656065.31,-0.023,0.106,-0.012,0.883,0.073,0.209,-82.703,35.405,44.668
1747656065.32,0.017,-0.029,0.175,0.834,0.402,0.213,-82.232,34.204,43.307
1747656065.33,-0.000,-0.123,0.187,0.853,0.331,0.219,-81.765,33.259,42.130
1747656065.34,-0.047,-0.155,0.063,0.901,0.154,0.281,-81.268,32.365,41.089
1747656065.35,-0.025,-0.127,0.007,0.951,0.085,0.379,-80.719,31.666,40.317
1747656065.36,0.020,-0.048,0.021,0.988,0.118,0.444,-80.122,31.210,39.406
1747656065.37,0.022,0.057,0.045,1.062,0.149,0.429,-79.492,30.825,38.936
1747656065.38,-0.024,0.133,0.039,1.210,0.137,0.339,-78.822,30.189,37.818
1747656065.39,-0.104,0.145,0.016,1.270,0.126,0.253,-78.120,29.234,36.769
1747656065.40,-0.146,0.080,0.064,1.154,0.131,0.237,-77.443,28.316,35.393
1747656065.41,-0.131,-0.012,0.127,0.993,0.097,0.246,-76.837,27.654,34.647
1747656065.42,-0.130,-0.073,0.113,0.869,0.117,0.276,-76.298,27.231,33.819
1747656065.43,-0.120,-0.114,0.090,0.801,0.193,0.364,-75.794,27.094,33.586
1747656065.44,-0.059,-0.139,0.053,0.793,0.193,0.477,-75.281,27.239,33.282
1747656065.45,0.012,-0.092,-0.003,0.874,0.130,0.546,-74.726,27.494,33.449
1747656065.46,0.066,0.017,-0.041,1.005,0.042,0.539,-74.107,27.646,33.224
1747656065.47,0.081,0.118,-0.014,1.094,-0.011,0.459,-73.441,27.573,33.140
1747656065.48,0.060,0.148,0.038,1.179,-0.026,0.335,-72.761,27.242,32.461
1747656065.49,0.022,0.120,0.007,1.272,0.048,0.222,-72.064,26.682,31.869
1747656065.50,-0.020,0.059,-0.028,1.285,0.145,0.181,-71.356,26.059,30.831
1747656065.51,-0.052,-0.026,-0.069,1.217,0.184,0.189,-70.664,25.518,30.157
1747656065.52,-0.050,-0.100,-0.100,1.048,0.224,0.226,-70.028,25.151,29.328
1747656065.53,-0.001,-0.159,-0.011,0.937,0.267,0.305,-69.456,25.025,29.041
1747656065.54,0.060,-0.174,0.038,0.968,0.216,0.378,-68.881,25.026,28.576
1747656065.55,0.090,-0.123,-0.061,0.945,0.134,0.424,-68.288,25.067,28.512
1747656065.56,0.094,-0.058,-0.070,0.935,0.049,0.418,-67.701,25.107,28.334
1747656065.57,0.091,-0.010,-0.031,1.020,-0.051,0.353,-67.103,25.023,28.244
1747656065.58,0.112,-0.006,-0.049,1.092,-0.110,0.267,-66.480,24.756,28.007
1747656065.59,0.139,-0.020,-0.076,1.101,-0.060,0.194,-65.855,24.386,27.659
1747656065.60,0.138,-0.027,-0.044,1.095,-0.053,0.109,-65.247,23.968,27.231
1747656065.61,0.084,-0.030,-0.032,1.132,-0.134,0.063,-64.649,23.462,26.731
1747656065.62,0.027,-0.037,-0.088,1.141,-0.104,0.087,-64.032,22.934,26.227
1747656065.63,-0.022,-0.037,-0.104,1.133,-0.014,0.119,-63.413,22.506,25.788
1747656065.64,-0.079,-0.035,-0.058,1.156,0.053,0.141,-62.780,22.162,25.390
1747656065.65,-0.121,-0.042,-0.036,1.154,0.106,0.188,-62.134,21.900,25.045
1747656065.66,-0.130,-0.059,-0.014,1.172,0.198,0.229,-61.472,21.734,24.758
1747656065.67,-0.093,-0.075,0.006,1.164,0.261,0.263,-60.800,21.657,24.520
1747656065.68,-0.015,-0.082,0.020,1.193,0.308,0.268,-60.120,21.634,24.304
1747656065.69,0.082,-0.070,-0.015,1.210,0.250,0.275,-59.423,21.610,24.088
1747656065.70,0.124,-0.051,-0.027,1.230,0.124,0.254,-58.721,21.526,23.865
1747656065.71,0.114,-0.025,0.007,1.311,0.057,0.229,-57.996,21.355,23.606
1747656065.72,0.083,-0.001,0.025,1.389,0.003,0.183,-57.233,21.107,23.290
1747656065.73,0.017,0.024,-0.019,1.374,-0.101,0.108,-56.463,20.765,22.914
1747656065.74,-0.076,0.033,-0.054,1.277,-0.102,0.042,-55.738,20.362,22.507
1747656065.75,-0.148,0.012,0.022,1.213,0.027,0.009,-55.068,20.005,22.101
1747656065.76,-0.170,-0.014,0.072,1.216,0.101,-0.015,-54.417,19.708,21.689
1747656065.77,-0.140,-0.014,0.028,1.200,0.106,0.034,-53.764,19.454,21.303
1747656065.78,-0.078,0.005,0.060,1.222,0.176,0.081,-53.104,19.265,20.970
1747656065.79,0.002,0.046,0.115,1.264,0.233,0.111,-52.412,19.152,20.678
1747656065.80,0.046,0.096,0.077,1.263,0.229,0.080,-51.712,19.047,20.377
1747656065.81,0.049,0.135,0.055,1.275,0.192,0.081,-51.013,18.923,20.066
1747656065.82,0.051,0.135,0.044,1.282,0.197,0.104,-50.305,18.804,19.772
1747656065.83,0.050,0.106,0.044,1.276,0.201,0.132,-49.591,18.717,19.507
1747656065.84,0.023,0.066,0.032,1.266,0.122,0.156,-48.876,18.631,19.267
1747656065.85,-0.013,0.021,-0.003,1.226,0.080,0.130,-48.174,18.519,19.043
1747656065.86,-0.005,-0.022,0.011,1.210,0.092,0.132,-47.493,18.400,18.821
1747656065.87,0.048,-0.061,0.036,1.214,0.131,0.138,-46.809,18.310,18.607
1747656065.88,0.083,-0.069,0.044,1.156,0.057,0.131,-46.142,18.219,18.404
1747656065.89,0.105,-0.060,0.034,1.119,-0.021,0.170,-45.501,18.101,18.228
1747656065.90,0.146,-0.049,0.051,1.077,-0.073,0.239,-44.868,17.991,18.110
1747656065.91,0.143,-0.023,0.091,1.066,-0.129,0.301,-44.241,17.892,18.054
1747656065.92,0.112,0.019,0.071,1.097,-0.127,0.322,-43.597,17.802,18.030
1747656065.93,0.048,0.065,0.026,1.082,-0.152,0.323,-42.947,17.709,18.009
1747656065.94,-0.052,0.091,0.001,1.032,-0.148,0.323,-42.316,17.615,18.000
1747656065.95,-0.100,0.094,0.002,1.023,-0.099,0.317,-41.702,17.543,17.997
1747656065.96,-0.090,0.065,-0.029,1.032,-0.015,0.297,-41.089,17.500,17.984
1747656065.97,-0.055,0.044,-0.040,1.050,0.031,0.263,-40.473,17.486,17.950
1747656065.98,-0.045,0.038,-0.028,1.060,0.004,0.229,-39.856,17.456,17.888
1747656065.99,-0.042,0.032,0.003,1.077,-0.023,0.223,-39.235,17.403,17.809
1747656066.00,-0.011,0.021,0.036,1.114,-0.043,0.198,-38.603,17.326,17.718
1747656066.01,0.009,0.020,0.069,1.169,0.027,0.160,-37.949,17.244,17.596
1747656066.02,0.004,0.018,0.101,1.178,0.065,0.131,-37.282,17.180,17.444
1747656066.03,-0.002,0.002,0.046,1.107,0.072,0.133,-36.637,17.128,17.292
1747656066.04,-0.007,-0.025,-0.011,1.050,0.040,0.162,-36.022,17.086,17.166
1747656066.05,-0.008,-0.086,-0.024,1.056,0.072,0.199,-35.421,17.061,17.072
1747656066.06,-0.011,-0.087,0.030,1.109,0.082,0.210,-34.794,17.060,16.989
1747656066.07,-0.030,-0.039,0.021,1.143,0.060,0.190,-34.144,17.046,16.893
1747656066.08,-0.031,0.017,0.017,1.148,0.008,0.180,-33.488,17.005,16.782
1747656066.09,-0.011,0.041,0.046,1.180,-0.046,0.203,-32.823,16.935,16.676
1747656066.10,0.045,0.044,0.092,1.231,-0.101,0.238,-32.130,16.842,16.583
1747656066.11,0.140,0.031,0.099,1.283,-0.127,0.268,-31.399,16.733,16.501
1747656066.12,0.224,-0.022,0.082,1.248,-0.131,0.298,-30.656,16.627,16.439
1747656066.13,0.246,-0.044,0.026,1.148,-0.102,0.343,-29.948,16.549,16.415
1747656066.14,0.211,-0.077,0.005,1.093,-0.127,0.399,-29.280,16.501,16.441
1747656066.15,0.121,-0.117,-0.009,1.052,-0.150,0.488,-28.620,16.455,16.518
1747656066.15,0.035,-0.137,0.005,1.027,-0.082,0.563,-27.968,16.457,16.656
1747656066.17,-0.038,-0.062,0.027,1.021,-0.087,0.605,-27.312,16.490,16.830
1747656066.17,-0.085,0.015,0.006,1.028,-0.129,0.616,-26.653,16.515,17.021
1747656066.18,-0.043,0.064,0.018,1.078,-0.197,0.602,-25.979,16.505,17.204
1747656066.20,0.037,0.085,0.041,1.185,-0.255,0.569,-25.266,16.439,17.358
1747656066.20,0.087,0.080,0.108,1.292,-0.291,0.509,-24.498,16.329,17.466
1747656066.21,0.069,0.055,0.124,1.334,-0.290,0.429,-23.699,16.180,17.516
1747656066.23,0.014,0.012,0.061,1.279,-0.213,0.380,-22.915,16.041,17.530
1747656066.23,-0.074,-0.020,-0.023,1.206,-0.109,0.373,-22.177,15.952,17.540
1747656066.25,-0.186,-0.037,-0.066,1.228,0.005,0.416,-21.450,15.935,17.568
1747656066.25,-0.266,-0.002,-0.057,1.270,0.067,0.450,-20.697,15.973,17.615
1747656066.26,-0.273,0.087,-0.068,1.249,0.098,0.440,-19.933,16.039,17.665
1747656066.27,-0.194,0.144,-0.045,1.224,0.044,0.396,-19.189,16.095,17.701
1747656066.28,-0.070,0.179,0.006,1.265,-0.071,0.365,-18.448,16.092,17.714
1747656066.29,0.072,0.165,0.031,1.373,-0.220,0.353,-17.667,16.008,17.702
1747656066.30,0.159,0.088,0.094,1.484,-0.377,0.346,-16.827,15.827,17.669
1747656066.31,0.148,0.030,0.201,1.550,-0.459,0.323,-15.939,15.569,17.616
1747656066.32,0.121,-0.016,0.194,1.559,-0.364,0.288,-15.034,15.307,17.545
1747656066.33,0.114,-0.061,0.118,1.602,-0.153,0.303,-14.122,15.137,17.467
1747656066.34,0.091,-0.119,0.001,1.768,0.043,0.386,-13.146,15.095,17.404
1747656066.35,0.012,-0.104,-0.055,1.851,0.113,0.479,-12.075,15.135,17.371
1747656066.36,-0.092,-0.024,-0.013,1.777,0.216,0.532,-10.996,15.227,17.379
1747656066.37,-0.110,0.047,0.064,1.647,0.311,0.533,-9.973,15.387,17.417
1747656066.38,-0.091,0.095,0.064,1.549,0.277,0.492,-9.018,15.572,17.456
1747656066.39,-0.039,0.092,0.027,1.534,0.149,0.485,-8.096,15.701,17.488
1747656066.40,0.065,0.036,0.038,1.575,-0.028,0.457,-7.173,15.739,17.508
1747656066.41,0.149,-0.044,0.088,1.649,-0.209,0.427,-6.218,15.668,17.503
1747656066.42,0.178,-0.074,0.085,1.733,-0.206,0.378,-5.224,15.540,17.465
1747656066.43,0.149,-0.048,0.011,1.653,-0.092,0.342,-4.230,15.450,17.402
1747656066.44,0.046,-0.031,-0.069,1.497,-0.029,0.349,-3.312,15.412,17.350
1747656066.45,-0.085,-0.009,-0.117,1.431,0.082,0.431,-2.451,15.424,17.342
1747656066.46,-0.158,0.035,-0.084,1.403,0.171,0.494,-1.600,15.499,17.384
1747656066.47,-0.157,0.123,-0.066,1.372,0.163,0.461,-0.762,15.600,17.438
1747656066.48,-0.065,0.188,-0.087,1.373,0.014,0.366,0.055,15.655,17.456
1747656066.49,0.034,0.184,-0.078,1.429,-0.174,0.286,0.875,15.610,17.418
1747656066.50,0.068,0.071,-0.069,1.424,-0.371,0.227,1.700,15.458,17.339
1747656066.51,0.000,-0.038,-0.062,1.453,-0.416,0.181,2.521,15.230,17.235
1747656066.52,-0.086,-0.077,0.023,1.517,-0.298,0.139,3.364,15.028,17.101
1747656066.53,-0.132,-0.073,0.094,1.486,-0.084,0.074,4.213,14.928,16.936
1747656066.54,-0.097,-0.038,0.016,1.465,0.043,0.077,5.032,14.935,16.758
1747656066.55,-0.052,0.033,-0.067,1.449,0.071,0.140,5.856,14.983,16.601
1747656066.56,-0.004,0.098,-0.073,1.380,0.082,0.178,6.660,15.042,16.480
1747656066.57,0.093,0.077,-0.139,1.273,-0.017,0.200,7.421,15.077,16.387
1747656066.58,0.171,0.023,-0.182,1.181,-0.148,0.235,8.129,15.039,16.324
1747656066.59,0.235,-0.080,-0.153,1.088,-0.260,0.236,8.789,14.928,16.287
1747656066.60,0.256,-0.147,-0.088,1.031,-0.381,0.231,9.408,14.748,16.260
1747656066.61,0.184,-0.128,-0.052,0.989,-0.415,0.257,9.999,14.520,16.247
1747656066.62,0.075,-0.144,-0.014,0.964,-0.346,0.307,10.579,14.295,16.264
1747656066.63,0.007,-0.136,0.014,0.908,-0.186,0.334,11.142,14.134,16.312
1747656066.64,0.022,-0.070,0.004,0.898,-0.077,0.375,11.691,14.045,16.384
1747656066.65,0.042,0.018,-0.022,0.859,-0.019,0.411,12.233,13.998,16.482
1747656066.66,0.046,0.101,-0.052,0.830,-0.010,0.428,12.759,13.966,16.602
1747656066.67,0.035,0.087,-0.099,0.772,-0.025,0.422,13.263,13.927,16.732
1747656066.68,0.037,0.012,-0.121,0.708,-0.075,0.392,13.728,13.872,16.859
1747656066.69,0.082,-0.033,-0.129,0.658,-0.191,0.369,14.159,13.768,16.980
1747656066.70,0.113,-0.086,-0.109,0.642,-0.329,0.354,14.567,13.589,17.099
1747656066.71,0.075,-0.071,-0.066,0.608,-0.361,0.294,14.958,13.363,17.200
1747656066.72,0.018,-0.064,-0.042,0.606,-0.334,0.260,15.330,13.144,17.274
1747656066.73,-0.047,-0.041,-0.042,0.589,-0.244,0.286,15.700,12.954,17.351
1747656066.74,-0.095,-0.017,-0.041,0.562,-0.112,0.299,16.056,12.828,17.446
1747656066.75,-0.113,-0.010,-0.075,0.542,-0.026,0.305,16.402,12.760,17.548
1747656066.76,-0.097,-0.002,-0.106,0.498,0.022,0.280,16.730,12.733,17.650
1747656066.77,-0.040,0.008,-0.117,0.461,0.000,0.232,17.029,12.716,17.737
1747656066.78,0.003,0.009,-0.099,0.422,-0.043,0.201,17.302,12.684,17.803
1747656066.79,0.030,-0.010,-0.093,0.380,-0.139,0.196,17.549,12.616,17.867
1747656066.80,0.020,-0.017,-0.110,0.378,-0.208,0.187,17.783,12.494,17.931
1747656066.81,0.021,-0.009,-0.090,0.384,-0.213,0.161,18.018,12.357,17.983
1747656066.82,0.022,0.006,-0.056,0.352,-0.231,0.139,18.241,12.218,18.023
1747656066.83,0.004,0.029,-0.073,0.343,-0.237,0.119,18.450,12.073,18.299
1747656066.84,-0.011,0.006,-0.090,0.331,-0.184,0.109,18.650,11.944,18.324
1747656066.85,-0.043,0.022,-0.062,0.339,-0.122,0.120,18.850,11.846,18.350
1747656066.86,-0.071,0.068,-0.048,0.329,-0.041,0.115,19.052,11.791,18.378
1747656066.87,-0.076,0.044,-0.039,0.326,-0.015,0.107,19.248,11.769,18.405
1747656066.88,-0.043,-0.015,-0.026,0.306,-0.026,0.101,19.439,11.751,18.426
1747656066.89,0.027,-0.055,-0.015,0.243,-0.037,0.131,19.607,11.720,18.460
1747656066.90,0.089,-0.090,-0.012,0.210,-0.043,0.157,19.745,11.681,18.521
1747656066.91,0.080,-0.062,0.008,0.211,-0.054,0.137,19.885,11.630,18.582
1747656066.92,0.103,0.006,0.009,0.176,-0.075,0.132,20.008,11.576,18.637
1747656066.93,0.151,0.008,-0.041,0.142,-0.133,0.188,20.114,11.491,18.711
1747656066.94,0.112,-0.004,-0.077,0.104,-0.124,0.274,20.209,11.372,18.835
1747656066.95,0.039,0.019,-0.081,0.082,-0.039,0.302,20.293,11.268,19.470
1747656066.96,-0.024,0.021,-0.065,0.062,0.047,0.299,20.367,11.211,19.641
1747656066.97,-0.046,-0.019,-0.049,0.019,0.094,0.291,20.425,11.194,20.050
1747656066.98,-0.011,-0.051,-0.037,-0.028,0.110,0.299,20.456,11.192,20.226
1747656066.99,0.034,-0.088,-0.019,-0.097,0.099,0.322,20.456,11.184,20.883
1747656067.00,0.064,-0.101,-0.008,-0.132,0.110,0.353,20.427,11.168,21.097
1747656067.01,0.092,-0.078,-0.008,-0.181,0.128,0.396,20.383,11.152,21.574
1747656067.02,0.090,-0.051,-0.027,-0.235,0.191,0.462,20.313,11.145,21.855
1747656067.03,0.070,-0.040,-0.065,-0.237,0.269,0.506,20.232,11.166,22.626
1747656067.04,0.023,-0.056,-0.085,-0.252,0.343,0.495,20.153,11.230,22.955
1747656067.05,-0.027,-0.107,-0.048,-0.290,0.417,0.448,20.053,11.339,23.495
1747656067.06,-0.014,-0.145,0.009,-0.325,0.451,0.387,19.928,11.493,23.781
1747656067.07,0.046,-0.139,0.026,-0.403,0.346,0.355,19.768,11.636,24.482
1747656067.08,0.121,-0.095,-0.010,-0.521,0.252,0.394,19.552,11.712,24.758
1747656067.09,0.195,-0.042,-0.054,-0.620,0.162,0.479,19.282,11.718,25.512
1747656067.10,0.214,-0.016,-0.106,-0.676,0.176,0.566,18.980,11.684,25.902
1747656067.11,0.157,-0.004,-0.140,-0.726,0.237,0.551,18.653,11.663,26.742
1747656067.12,0.060,-0.047,-0.133,-0.725,0.312,0.472,18.305,11.696,27.135
1747656067.13,-0.001,-0.119,-0.040,-0.744,0.299,0.346,17.944,11.774,27.872
1747656067.14,0.022,-0.161,0.034,-0.753,0.160,0.153,17.553,11.829,28.113
1747656067.15,0.135,-0.149,0.031,-0.807,0.085,0.006,17.127,11.870,28.637
1747656067.16,0.188,-0.064,-0.003,-0.834,-0.116,-0.014,16.666,11.831,28.732
1747656067.17,0.158,0.021,-0.049,-0.880,-0.217,0.063,16.190,11.705,29.218
1747656067.18,0.125,0.046,-0.083,-0.896,-0.359,0.198,15.706,11.486,29.402
1747656067.19,0.074,0.070,-0.120,-0.906,-0.308,0.283,15.232,11.223,30.028
1747656067.20,0.098,0.078,-0.083,-0.952,-0.234,0.333,14.745,10.993,30.313
1747656067.21,0.062,0.057,-0.035,-0.959,-0.139,0.406,14.247,10.808,31.010
1747656067.22,0.021,0.025,-0.005,-0.965,-0.060,0.457,13.754,10.665,31.367
1747656067.23,0.022,-0.026,0.025,-1.009,0.055,0.513,13.250,10.574,32.110
1747656067.24,0.027,-0.077,0.047,-1.014,0.138,0.616,12.739,10.532,32.546
1747656067.25,-0.036,-0.063,0.062,-0.990,0.180,0.642,12.243,10.525,33.371
1747656067.26,-0.063,0.004,0.026,-0.968,0.166,0.589,11.759,10.530,33.830
1747656067.27,-0.039,0.062,-0.051,-0.957,0.158,0.589,11.279,10.535,34.608
1747656067.28,-0.043,0.085,-0.074,-0.946,0.151,0.611,10.809,10.537,35.054
1747656067.29,-0.068,0.081,-0.054,-1.005,0.184,0.618,10.327,10.548,35.831
1747656067.30,-0.018,0.037,-0.028,-1.058,0.232,0.683,9.813,10.584,36.309
1747656067.31,0.057,-0.023,-0.040,-1.044,0.229,0.794,9.298,10.630,37.006
1747656067.32,0.041,-0.022,-0.048,-1.008,0.218,0.734,8.806,10.669,37.557
1747656067.33,-0.006,0.040,-0.040,-0.986,0.225,0.623,8.317,10.725,38.359
1747656067.34,-0.061,0.039,-0.036,-0.945,0.175,0.600,7.842,10.776,38.813
1747656067.35,-0.137,-0.003,-0.023,-0.930,0.168,0.419,7.374,10.817,39.361
1747656067.36,-0.104,-0.016,-0.020,-0.960,0.198,0.327,6.880,10.887,39.665
1747656067.37,-0.083,-0.008,-0.042,-0.961,0.135,0.302,6.377,10.950,40.099
1747656067.38,-0.102,0.053,-0.042,-0.996,0.170,0.240,5.857,11.005,40.356
1747656067.39,-0.016,0.108,-0.048,-0.954,0.166,0.272,5.335,11.081,40.748
1747656067.40,-0.002,0.146,-0.132,-0.919,0.120,0.232,4.840,11.138,40.999
1747656067.41,-0.089,0.183,-0.138,-0.872,0.126,0.085,4.354,11.194,41.480
1747656067.42,-0.145,0.168,-0.137,-0.809,0.085,-0.047,3.887,11.247,41.584
1747656067.43,-0.192,0.071,-0.102,-0.809,0.073,-0.190,3.423,11.287,41.608
1747656067.44,-0.185,-0.067,-0.024,-0.829,0.111,-0.314,2.933,11.345,41.556
1747656067.45,-0.150,-0.160,0.000,-0.835,0.085,-0.362,2.429,11.407,41.459
1747656067.46,-0.122,-0.151,-0.014,-0.878,0.084,-0.314,1.912,11.457,41.362
1747656067.47,-0.058,-0.065,-0.057,-0.907,0.107,-0.207,1.382,11.513,41.318
1747656067.48,-0.013,0.065,-0.131,-0.912,0.141,-0.108,0.854,11.582,41.335
1747656067.49,-0.021,0.169,-0.140,-0.873,0.216,-0.042,0.345,11.683,41.397
1747656067.50,-0.039,0.175,-0.102,-0.883,0.312,-0.033,-0.147,11.835,41.479
1747656067.51,-0.039,0.077,-0.068,-0.943,0.360,-0.072,-0.662,12.029,41.558
1747656067.52,0.002,-0.075,-0.006,-0.967,0.365,-0.103,-1.206,12.238,41.623
1747656067.53,0.092,-0.201,0.018,-1.017,0.323,-0.097,-1.770,12.439,41.686
1747656067.54,0.163,-0.233,-0.002,-1.058,0.173,-0.070,-2.361,12.586,41.769
1747656067.55,0.154,-0.161,-0.058,-1.066,0.044,-0.067,-2.962,12.649,41.864
1747656067.56,0.093,-0.021,-0.080,-1.078,0.034,-0.086,-3.568,12.673,41.957
1747656067.57,0.018,0.099,-0.054,-1.109,0.100,-0.079,-4.189,12.715,42.047
1747656067.58,-0.028,0.156,-0.041,-1.125,0.171,-0.037,-4.819,12.801,42.155
1747656067.59,-0.039,0.176,-0.066,-1.122,0.221,-0.022,-5.449,12.926,42.282
1747656067.60,-0.046,0.180,-0.063,-1.117,0.247,-0.042,-6.076,13.073,42.410
1747656067.61,-0.049,0.150,-0.077,-1.116,0.264,-0.071,-6.704,13.233,42.526
1747656067.62,-0.061,0.081,-0.097,-1.094,0.271,-0.137,-7.330,13.397,42.615
1747656067.63,-0.080,-0.001,-0.108,-1.096,0.284,-0.236,-7.962,13.560,42.657
1747656067.64,-0.073,-0.084,-0.082,-1.119,0.270,-0.316,-8.614,13.719,42.651
1747656067.65,-0.033,-0.151,-0.026,-1.161,0.243,-0.331,-9.291,13.861,42.623
1747656067.66,0.040,-0.167,-0.019,-1.191,0.230,-0.302,-9.988,13.995,42.609
1747656067.67,0.061,-0.101,-0.027,-1.191,0.171,-0.293,-10.691,14.113,42.610
1747656067.68,-0.005,0.013,-0.033,-1.180,0.134,-0.283,-11.388,14.199,42.615
1747656067.69,-0.064,0.112,-0.049,-1.171,0.172,-0.274,-12.076,14.286,42.627
1747656067.70,-0.092,0.165,-0.031,-1.158,0.270,-0.278,-12.760,14.416,42.640
1747656067.71,-0.084,0.157,-0.022,-1.120,0.326,-0.303,-13.432,14.588,42.643
1747656067.72,-0.057,0.107,-0.047,-1.130,0.356,-0.345,-14.097,14.779,42.626
1747656067.73,-0.010,0.041,-0.041,-1.157,0.333,-0.374,-14.783,14.970,42.594
1747656067.74,0.032,-0.016,-0.023,-1.111,0.286,-0.373,-15.465,15.136,42.554
1747656067.75,0.045,-0.042,-0.002,-1.110,0.308,-0.373,-16.131,15.292,42.512
1747656067.76,0.029,-0.048,0.006,-1.123,0.327,-0.371,-16.803,15.464,42.474
1747656067.77,-0.024,-0.051,0.012,-1.121,0.322,-0.363,-17.476,15.639,42.443
1747656067.78,-0.067,-0.049,0.015,-1.143,0.370,-0.345,-18.152,15.828,42.422
1747656067.79,-0.043,-0.043,-0.001,-1.186,0.408,-0.325,-18.846,16.052,42.421
1747656067.80,-0.005,-0.025,-0.017,-1.179,0.369,-0.311,-19.547,16.280,42.435
1747656067.81,0.014,-0.001,-0.012,-1.145,0.372,-0.300,-20.233,16.496,42.457
1747656067.82,0.028,0.015,-0.024,-1.161,0.339,-0.313,-20.913,16.712,42.480
1747656067.83,0.005,0.011,-0.050,-1.143,0.244,-0.336,-21.599,16.881,42.493
1747656067.84,-0.017,-0.019,-0.011,-1.133,0.204,-0.349,-22.276,17.008,42.495
1747656067.85,0.008,-0.047,0.017,-1.157,0.169,-0.356,-22.960,17.117,42.495
1747656067.86,0.024,-0.064,-0.004,-1.171,0.085,-0.360,-23.655,17.187,42.494
1747656067.87,0.026,-0.071,-0.004,-1.177,0.090,-0.340,-24.355,17.237,42.502
1747656067.88,0.035,-0.065,0.011,-1.166,0.120,-0.329,-25.052,17.307,42.521
1747656067.89,0.026,-0.059,-0.008,-1.140,0.156,-0.333,-25.737,17.392,42.539
1747656067.90,0.021,-0.066,-0.001,-1.137,0.254,-0.330,-26.413,17.515,42.555
1747656067.91,0.032,-0.087,0.011,-1.167,0.298,-0.322,-27.097,17.686,42.578
1747656067.92,0.019,-0.114,0.024,-1.174,0.266,-0.286,-27.789,17.866,42.621
1747656067.93,-0.004,-0.138,0.039,-1.187,0.306,-0.220,-28.473,18.064,42.701
1747656067.94,0.015,-0.151,0.050,-1.208,0.317,-0.165,-29.157,18.308,42.827
1747656067.95,0.033,-0.126,0.037,-1.231,0.197,-0.139,-29.845,18.535,42.985
1747656067.96,0.033,-0.072,0.014,-1.214,0.139,-0.133,-30.532,18.714,43.159
1747656067.97,0.038,-0.005,0.023,-1.230,0.177,-0.151,-31.217,18.892,43.333
1747656067.98,0.033,0.050,0.018,-1.216,0.195,-0.190,-31.913,19.086,43.493
1747656067.99,0.019,0.071,-0.025,-1.207,0.108,-0.223,-32.604,19.246,43.628
1747656068.00,-0.003,0.066,-0.024,-1.192,0.089,-0.227,-33.296,19.367,43.754
1747656068.01,0.004,0.040,0.025,-1.139,0.122,-0.222,-33.967,19.495,43.875
1747656068.02,0.003,0.020,0.003,-1.150,0.125,-0.215,-34.622,19.635,43.996
1747656068.03,-0.015,0.002,-0.063,-1.161,0.088,-0.202,-35.284,19.774,44.132
1747656068.04,-0.031,-0.020,-0.096,-1.144,0.079,-0.204,-35.942,19.902,44.274
1747656068.05,-0.054,-0.035,-0.062,-1.150,0.107,-0.225,-36.599,20.037,44.409
1747656068.06,-0.078,-0.047,-0.033,-1.142,0.057,-0.274,-37.264,20.156,44.524
1747656068.07,-0.097,-0.048,-0.035,-1.136,0.016,-0.326,-37.933,20.222,44.605
1747656068.08,-0.088,-0.033,0.002,-1.152,0.069,-0.377,-38.615,20.274,44.652
1747656068.09,-0.060,-0.006,0.020,-1.168,0.101,-0.413,-39.315,20.339,44.674
1747656068.10,-0.044,0.023,-0.045,-1.143,0.091,-0.414,-40.017,20.400,44.683
1747656068.11,-0.044,0.047,-0.056,-1.108,0.137,-0.383,-40.699,20.473,44.697
1747656068.12,-0.041,0.053,-0.025,-1.094,0.182,-0.363,-41.362,20.583,44.724
1747656068.13,-0.038,0.029,-0.048,-1.082,0.200,-0.370,-42.017,20.714,44.755
1747656068.14,-0.035,-0.032,-0.064,-1.083,0.234,-0.384,-42.671,20.853,44.781
1747656068.15,-0.023,-0.097,-0.046,-1.074,0.300,-0.408,-43.326,21.015,44.793
1747656068.16,-0.024,-0.145,-0.023,-1.097,0.321,-0.417,-43.990,21.198,44.798
1747656068.17,-0.039,-0.159,0.009,-1.118,0.295,-0.428,-44.667,21.379,44.804
1747656068.18,-0.038,-0.134,0.015,-1.148,0.221,-0.429,-45.359,21.537,44.816
1747656068.19,-0.021,-0.086,0.016,-1.170,0.137,-0.416,-46.064,21.657,44.844
1747656068.20,0.018,-0.020,0.014,-1.164,0.134,-0.404,-46.771,21.763,44.886
1747656068.21,0.063,0.044,0.007,-1.166,0.133,-0.410,-47.474,21.876,44.933
1747656068.22,0.059,0.092,0.013,-1.170,0.072,-0.416,-48.181,21.967,44.978
1747656068.23,0.041,0.100,0.004,-1.130,0.094,-0.413,-48.880,22.043,45.019
1747656068.24,0.040,0.078,-0.034,-1.109,0.049,-0.428,-49.561,22.108,45.045
1747656068.25,0.012,0.050,-0.023,-1.101,0.061,-0.445,-50.240,22.143,45.056
1747656068.26,0.015,0.022,0.022,-1.089,0.142,-0.486,-50.921,22.190,45.042
1747656068.27,0.017,-0.001,0.019,-1.108,0.162,-0.520,-51.608,22.238,44.992
1747656068.28,-0.002,-0.027,0.003,-1.176,0.200,-0.522,-52.326,22.306,44.945
1747656068.29,-0.016,-0.052,0.004,-1.150,0.213,-0.492,-53.054,22.405,44.920
1747656068.30,-0.044,-0.063,0.002,-1.114,0.203,-0.460,-53.754,22.518,44.814
1747656068.31,-0.044,-0.051,0.028,-1.086,0.190,-0.437,-54.432,22.637,44.824
1747656068.32,-0.014,-0.015,0.030,-1.092,0.217,-0.454,-55.101,22.760,44.664
1747656068.33,0.027,0.024,-0.003,-1.123,0.187,-0.481,-55.788,22.878,44.662
1747656068.34,0.053,0.044,-0.020,-1.124,0.131,-0.507,-56.490,22.954,44.446
1747656068.35,0.061,0.049,-0.022,-1.098,0.082,-0.538,-57.191,22.972,44.394
1747656068.36,0.048,0.048,-0.009,-1.094,0.008,-0.555,-57.889,22.928,44.118
1747656068.37,0.031,0.031,-0.009,-1.113,0.009,-0.567,-58.593,22.848,44.022
1747656068.38,0.035,-0.001,0.006,-1.135,0.141,-0.585,-59.313,22.797,43.731
1747656068.39,0.041,-0.036,0.050,-1.152,0.244,-0.605,-60.046,22.810,43.612
1747656068.40,0.009,-0.069,0.062,-1.186,0.221,-0.589,-60.793,22.843,43.293
1747656068.41,-0.022,-0.087,0.016,-1.216,0.260,-0.538,-61.550,22.924,43.230
1747656068.42,-0.035,-0.092,-0.003,-1.250,0.254,-0.499,-62.314,23.079,43.038
1747656068.43,-0.057,-0.084,-0.016,-1.254,0.210,-0.467,-63.079,23.267,43.100
1747656068.44,-0.044,-0.063,-0.025,-1.250,0.221,-0.447,-63.838,23.475,42.977
1747656068.45,0.005,-0.032,-0.013,-1.215,0.284,-0.448,-64.587,23.721,43.091
1747656068.46,0.053,-0.006,-0.021,-1.173,0.271,-0.483,-65.316,23.954,42.939
1747656068.47,0.071,0.011,-0.052,-1.160,0.233,-0.507,-66.039,24.123,42.968
1747656068.48,0.091,0.006,-0.026,-1.125,0.241,-0.505,-66.753,24.262,42.731
1747656068.49,0.098,-0.013,0.024,-1.150,0.286,-0.477,-67.458,24.438,42.759
1747656068.50,0.071,-0.034,0.112,-1.227,0.245,-0.434,-68.184,24.705,42.607
1747656068.51,0.024,-0.053,0.079,-1.245,0.132,-0.406,-68.927,25.019,42.832
1747656068.52,-0.011,-0.060,-0.060,-1.289,0.142,-0.399,-69.678,25.357,42.852
1747656068.53,0.004,-0.075,-0.030,-1.347,0.142,-0.363,-70.453,25.796,43.230
1747656068.54,0.034,-0.081,0.005,-1.299,0.071,-0.324,-71.221,26.312,43.440
1747656068.55,0.051,-0.060,-0.024,-1.205,-0.006,-0.313,-71.939,26.805,43.649
1747656068.56,0.045,-0.017,-0.007,-1.204,-0.052,-0.330,-72.632,27.256,44.139
1747656068.57,0.025,0.034,0.017,-1.189,-0.087,-0.367,-73.331,27.674,44.482
1747656068.58,-0.003,0.077,-0.017,-1.122,-0.100,-0.411,-74.019,28.001,44.882
1747656068.59,-0.031,0.094,-0.042,-1.065,-0.021,-0.449,-74.684,28.237,45.165
1747656068.60,-0.053,0.067,0.001,-1.037,0.062,-0.462,-75.336,28.454,45.375
1747656068.61,-0.076,0.016,0.013,-1.031,0.088,-0.461,-75.980,28.694,45.577
1747656068.62,-0.094,-0.028,-0.036,-1.043,0.073,-0.443,-76.623,28.984,45.826
1747656068.63,-0.091,-0.065,-0.085,-1.052,0.051,-0.421,-77.266,29.344,46.159
1747656068.64,-0.072,-0.102,-0.100,-1.034,0.070,-0.395,-77.900,29.791,46.584
1747656068.65,-0.046,-0.112,-0.091,-1.021,0.163,-0.361,-78.516,30.372,47.113
1747656068.66,-0.030,-0.080,-0.058,-1.039,0.335,-0.335,-79.122,31.172,47.785
1747656068.67,-0.034,-0.030,-0.011,-1.084,0.466,-0.302,-79.733,32.283,48.680
1747656068.68,-0.061,0.012,-0.002,-1.091,0.555,-0.285,-80.346,33.701,49.823
1747656068.69,-0.091,0.042,-0.014,-1.082,0.655,-0.284,-80.949,35.367,51.161
1747656068.70,-0.092,0.050,-0.006,-1.066,0.708,-0.304,-81.542,37.242,52.662
1747656068.71,-0.079,0.019,0.009,-1.077,0.759,-0.333,-82.133,39.294,54.314
1747656068.72,-0.062,-0.034,0.077,-1.139,0.871,-0.361,-82.743,41.721,56.293
1747656068.73,-0.010,-0.055,0.115,-1.106,0.894,-0.369,-83.357,44.602,58.679
1747656068.74,0.049,-0.044,0.034,-0.997,0.689,-0.346,-83.921,47.677,61.313
1747656068.75,0.088,-0.039,-0.043,-0.897,0.519,-0.326,-84.419,50.797,64.109
1747656068.76,0.138,-0.043,-0.021,-0.821,0.450,-0.297,-84.859,54.042,67.090
1747656068.77,0.161,-0.042,0.008,-0.781,0.299,-0.263,-85.247,57.589,70.434
1747656068.78,0.127,-0.032,-0.013,-0.753,0.218,-0.257,-85.596,61.529,74.244
1747656068.79,0.076,-0.007,-0.028,-0.691,0.218,-0.298,-85.921,65.703,78.304
1747656068.80,0.024,0.008,-0.038,-0.618,0.215,-0.339,-86.230,69.838,82.326
1747656068.81,-0.014,0.011,-0.031,-0.599,0.232,-0.345,-86.525,74.201,86.570
1747656068.82,-0.027,0.012,0.000,-0.560,0.254,-0.314,-86.786,79.132,91.372
1747656068.83,-0.037,0.003,-0.013,-0.493,0.346,-0.291,-87.000,84.314,96.394
1747656068.84,-0.028,-0.016,-0.002,-0.457,0.500,-0.265,-87.174,89.688,101.534
1747656068.85,0.004,-0.028,0.028,-0.472,0.574,-0.213,-87.299,95.595,107.137
1747656068.86,0.029,-0.033,0.038,-0.499,0.563,-0.151,-87.359,102.129,113.352
1747656068.87,0.025,-0.034,0.032,-0.513,0.502,-0.107,-87.351,108.933,119.855
1747656068.88,-0.020,-0.037,-0.010,-0.469,0.404,-0.100,-87.298,115.253,125.926
1747656068.89,-0.064,-0.049,-0.067,-0.399,0.389,-0.112,-87.235,120.669,131.126
1747656068.90,-0.059,-0.041,-0.079,-0.301,0.483,-0.127,-87.184,125.126,135.339
1747656068.91,-0.028,-0.018,-0.072,-0.257,0.659,-0.136,-87.149,128.888,138.780
1747656068.92,0.021,0.018,-0.042,-0.250,0.743,-0.161,-87.119,132.595,142.086
1747656068.93,0.077,0.046,-0.052,-0.214,0.682,-0.167,-87.094,136.211,145.293
1747656068.94,0.127,0.063,-0.066,-0.181,0.503,-0.126,-87.068,139.263,148.009
1747656068.95,0.177,0.060,-0.050,-0.163,0.332,-0.046,-87.024,141.468,149.980
1747656068.96,0.205,0.025,-0.011,-0.116,0.196,0.028,-86.963,142.634,150.995
1747656068.97,0.162,-0.016,0.018,-0.081,-0.046,0.049,-86.904,142.943,151.257
1747656068.98,0.054,-0.045,0.011,-0.073,-0.334,-0.003,-86.859,143.087,151.511
1747656068.99,-0.049,-0.044,-0.005,-0.025,-0.458,-0.094,-86.851,143.579,152.239
1747656069.00,-0.112,-0.017,-0.028,0.063,-0.391,-0.149,-86.901,144.293,153.202
1747656069.01,-0.133,0.016,-0.028,0.144,-0.156,-0.152,-87.002,144.799,153.871
1747656069.02,-0.124,0.038,0.014,0.149,0.128,-0.124,-87.119,145.088,154.164
1747656069.03,-0.107,0.032,0.070,0.059,0.307,-0.074,-87.203,145.436,154.385
1747656069.04,-0.082,-0.007,0.095,-0.044,0.408,-0.041,-87.223,146.154,154.896
1747656069.05,-0.060,-0.044,0.124,-0.084,0.405,-0.008,-87.198,147.069,155.577
1747656069.06,-0.046,-0.039,0.116,-0.095,0.376,0.029,-87.151,147.766,156.053
1747656069.07,-0.039,-0.005,0.098,-0.095,0.384,0.046,-87.092,148.173,156.246
1747656069.08,-0.023,0.021,0.093,-0.085,0.498,0.053,-87.033,148.475,156.301
1747656069.09,0.018,0.027,0.097,-0.055,0.620,0.045,-86.984,148.725,156.228
1747656069.10,0.050,0.018,0.098,-0.061,0.589,0.030,-86.946,149.028,156.180
1747656069.11,0.057,-0.001,0.067,-0.070,0.456,0.002,-86.910,149.548,156.400
1747656069.12,0.053,-0.018,0.042,-0.082,0.289,-0.033,-86.877,150.313,156.952
1747656069.13,0.049,-0.025,0.020,-0.088,0.129,-0.064,-86.847,151.301,157.824
1747656069.14,0.055,-0.020,0.003,-0.082,-0.010,-0.095,-86.824,152.487,158.979
1747656069.15,0.076,-0.010,-0.017,-0.046,-0.131,-0.107,-86.817,153.689,160.224
1747656069.16,0.098,-0.011,-0.029,-0.017,-0.197,-0.093,-86.828,154.664,161.297
1747656069.17,0.113,-0.015,-0.014,0.007,-0.242,-0.060,-86.844,155.277,162.037
1747656069.18,0.114,-0.018,-0.003,0.026,-0.287,-0.014,-86.862,155.394,162.305
1747656069.19,0.096,-0.012,-0.012,0.034,-0.337,0.018,-86.877,155.038,162.127
1747656069.20,0.065,0.000,-0.033,0.036,-0.357,0.023,-86.890,154.482,161.769
1747656069.21,0.025,0.000,-0.024,0.021,-0.311,0.030,-86.898,153.914,161.398
1747656069.22,-0.010,-0.008,0.035,0.011,-0.211,0.042,-86.897,153.342,160.972
1747656069.23,-0.050,-0.013,0.063,0.025,-0.194,0.043,-86.894,152.738,160.481
1747656069.24,-0.096,-0.010,0.022,0.078,-0.180,0.028,-86.909,152.047,159.897
1747656069.25,-0.123,0.006,-0.007,0.157,-0.149,0.023,-86.961,151.121,159.064
1747656069.26,-0.133,0.027,-0.018,0.222,-0.071,0.016,-87.052,149.844,157.850
1747656069.26,-0.127,0.046,-0.008,0.239,0.063,0.016,-87.160,148.301,156.309
1747656069.28,-0.101,0.054,0.021,0.220,0.187,0.027,-87.267,146.645,154.577
1747656069.28,-0.078,0.043,0.045,0.141,0.210,0.060,-87.341,145.085,152.898
1747656069.30,-0.064,0.004,0.071,0.094,0.211,0.099,-87.366,143.601,151.291
1747656069.30,-0.047,-0.045,0.072,0.114,0.170,0.112,-87.374,141.919,149.497
1747656069.31,-0.046,-0.068,0.045,0.154,0.083,0.101,-87.396,139.966,147.469
1747656069.32,-0.044,-0.060,0.030,0.188,0.016,0.089,-87.437,137.764,145.238
1747656069.33,-0.028,-0.044,0.034,0.224,-0.041,0.075,-87.496,135.266,142.744
1747656069.34,-0.001,-0.021,0.018,0.274,-0.092,0.064,-87.572,132.393,139.907
1747656069.35,0.039,0.002,-0.013,0.369,-0.158,0.047,-87.670,128.675,136.255
1747656069.36,0.076,0.017,-0.039,0.481,-0.287,0.039,-87.795,123.363,131.064
1747656069.37,0.103,0.022,-0.057,0.554,-0.436,0.049,-87.922,115.917,123.821
1747656069.38,0.125,0.022,-0.041,0.577,-0.555,0.083,-88.005,106.738,114.916
1747656069.40,0.121,0.023,-0.042,0.591,-0.689,0.105,-88.020,96.648,105.178
1747656069.40,0.077,0.022,-0.067,0.635,-0.673,0.078,-87.975,86.203,95.123
1747656069.41,0.031,0.016,-0.034,0.656,-0.540,0.047,-87.883,75.864,85.127
1747656069.42,0.012,-0.005,0.044,0.671,-0.361,0.061,-87.734,66.503,76.018
1747656069.43,0.004,-0.034,0.093,0.746,-0.241,0.093,-87.508,58.214,67.890
1747656069.44,-0.020,-0.035,0.071,0.811,-0.257,0.130,-87.198,51.003,60.809
1747656069.45,-0.072,0.006,0.022,0.831,-0.383,0.169,-86.820,45.205,55.184
1747656069.46,-0.134,0.050,-0.004,0.829,-0.400,0.213,-86.398,40.869,51.075
1747656069.47,-0.164,0.035,0.039,0.829,-0.148,0.237,-85.950,37.734,48.096
1747656069.48,-0.140,-0.020,0.124,0.877,0.138,0.252,-85.476,35.367,45.722
1747656069.49,-0.101,-0.067,0.116,0.917,0.251,0.273,-84.968,33.482,43.712
1747656069.50,-0.061,-0.076,0.052,0.936,0.288,0.299,-84.434,32.026,42.097
1747656069.51,0.013,-0.047,0.023,0.983,0.393,0.330,-83.874,30.931,40.803
1747656069.52,0.085,-0.000,0.044,1.033,0.465,0.352,-83.277,30.072,39.686
1747656069.53,0.095,0.045,0.041,1.006,0.330,0.354,-82.669,29.378,38.751
1747656069.54,0.042,0.079,-0.000,0.972,0.135,0.336,-82.080,28.744,37.982
1747656069.55,-0.024,0.074,-0.001,0.949,0.140,0.298,-81.512,28.119,36.872
1747656069.56,-0.049,0.030,0.075,1.010,0.234,0.248,-80.948,27.444,36.079
1747656069.57,-0.044,-0.015,0.065,1.159,0.208,0.220,-80.337,26.583,34.688
1747656069.58,-0.042,-0.036,0.008,1.270,0.156,0.229,-79.654,25.598,33.584
1747656069.59,-0.046,-0.030,0.019,1.268,0.158,0.242,-78.937,24.693,32.170
1747656069.60,-0.047,-0.024,0.066,1.221,-0.001,0.276,-78.229,23.957,31.366
1747656069.61,-0.054,-0.021,0.030,1.209,-0.222,0.321,-77.528,23.328,30.398
1747656069.62,-0.058,-0.021,-0.046,1.218,-0.151,0.350,-76.814,22.791,29.971
1747656069.63,-0.030,-0.031,-0.013,1.214,0.171,0.358,-76.095,22.468,29.247
1747656069.64,-0.007,-0.033,0.041,1.220,0.375,0.345,-75.376,22.328,28.933
1747656069.65,-0.043,-0.023,0.009,1.230,0.414,0.313,-74.656,22.216,28.219
1747656069.66,-0.077,-0.024,-0.018,1.223,0.392,0.320,-73.940,22.095,27.855
1747656069.67,-0.071,-0.029,-0.028,1.237,0.348,0.365,-73.216,22.027,27.206
1747656069.68,-0.049,-0.034,-0.028,1.290,0.290,0.415,-72.464,22.001,26.991
1747656069.69,-0.014,-0.035,-0.005,1.333,0.325,0.417,-71.679,21.990,26.434
1747656069.70,0.012,-0.026,0.072,1.323,0.345,0.388,-70.887,21.977,26.216
1747656069.71,-0.005,-0.020,0.077,1.279,0.350,0.357,-70.117,21.948,25.632
1747656069.72,-0.037,-0.017,0.004,1.129,0.359,0.340,-69.401,21.944,25.413
1747656069.73,-0.054,-0.023,0.005,0.973,0.428,0.388,-68.772,22.086,24.998
1747656069.74,-0.023,-0.034,0.054,0.974,0.485,0.425,-68.173,22.373,25.020
1747656069.75,0.031,-0.022,0.066,1.062,0.371,0.453,-67.543,22.650,24.723
1747656069.76,0.099,0.003,0.072,1.207,0.153,0.470,-66.845,22.785,24.708
1747656069.77,0.171,0.032,0.042,1.319,-0.018,0.476,-66.073,22.750,24.458
1747656069.78,0.191,0.053,0.026,1.341,-0.166,0.402,-65.271,22.563,24.310
1747656069.79,0.168,0.063,0.001,1.346,-0.228,0.294,-64.488,22.216,24.057
1747656069.80,0.120,0.049,-0.027,1.348,-0.144,0.220,-63.716,21.784,23.700
1747656069.81,0.057,0.025,0.001,1.252,0.050,0.225,-62.979,21.438,23.344
1747656069.82,-0.004,-0.021,0.080,1.150,0.137,0.295,-62.287,21.281,23.099
1747656069.83,-0.090,-0.057,0.096,1.080,-0.014,0.357,-61.626,21.217,22.980
1747656069.84,-0.162,-0.065,0.040,1.018,-0.169,0.396,-60.989,21.131,22.949
1747656069.85,-0.111,-0.059,-0.002,1.026,-0.143,0.445,-60.363,21.063,22.980
1747656069.86,0.015,-0.049,-0.001,1.206,-0.105,0.470,-59.680,21.029,23.016
1747656069.87,0.086,-0.025,-0.012,1.382,-0.221,0.422,-58.893,20.897,22.966
1747656069.88,0.068,0.004,-0.043,1.419,-0.320,0.314,-58.067,20.594,22.798
1747656069.89,0.034,0.010,-0.064,1.379,-0.229,0.216,-57.263,20.212,22.539
1747656069.90,-0.001,0.004,0.003,1.255,-0.057,0.200,-56.514,19.899,22.263
1747656069.91,-0.054,-0.013,0.084,1.072,0.161,0.283,-55.844,19.780,22.085
1747656069.92,-0.081,-0.051,0.049,0.947,0.284,0.391,-55.239,19.896,22.061
1747656069.93,-0.100,-0.088,-0.060,0.887,0.145,0.478,-54.666,20.103,22.158
1747656069.94,-0.045,-0.113,-0.052,0.964,0.035,0.579,-54.069,20.291,22.334
1747656069.95,0.101,-0.104,0.004,1.062,-0.044,0.627,-53.406,20.463,22.545
1747656069.96,0.177,-0.052,0.007,1.206,-0.251,0.569,-52.680,20.508,22.705
1747656069.97,0.119,0.029,-0.021,1.332,-0.390,0.443,-51.894,20.344,22.734
1747656069.98,0.024,0.100,0.029,1.347,-0.414,0.297,-51.100,20.025,22.626
1747656069.99,-0.087,0.133,0.015,1.272,-0.239,0.182,-50.347,19.671,22.421
1747656070.00,-0.167,0.109,0.064,1.190,0.095,0.163,-49.655,19.458,22.197
1747656070.01,-0.186,0.048,0.082,1.132,0.257,0.198,-48.995,19.423,22.004
1747656070.02,-0.195,-0.005,-0.001,1.054,0.180,0.289,-48.362,19.463,21.886
1747656070.03,-0.119,-0.047,0.020,1.064,0.113,0.437,-47.725,19.538,21.878
1747656070.04,0.053,-0.060,0.063,1.127,0.048,0.527,-47.044,19.645,21.958
1747656070.05,0.198,-0.028,0.070,1.250,-0.037,0.514,-46.305,19.706,22.037
1747656070.06,0.251,0.029,0.081,1.355,-0.105,0.468,-45.508,19.678,22.056
1747656070.07,0.239,0.079,0.099,1.350,-0.109,0.447,-44.691,19.598,22.034
1747656070.08,0.178,0.102,0.107,1.274,-0.081,0.448,-43.898,19.535,22.019
1747656070.09,0.100,0.107,0.136,1.205,-0.069,0.460,-43.145,19.499,22.029
1747656070.10,0.065,0.089,0.126,1.156,0.007,0.528,-42.415,19.513,22.083
1747656070.11,0.110,0.032,0.053,1.091,0.074,0.608,-41.701,19.624,22.206
1747656070.12,0.139,-0.026,-0.001,1.055,-0.023,0.658,-41.003,19.761,22.387
1747656070.13,0.092,-0.070,-0.018,1.074,-0.123,0.666,-40.306,19.847,22.586
1747656070.14,0.024,-0.068,0.007,1.127,-0.177,0.624,-39.589,19.872,22.761
1747656070.15,-0.051,-0.022,0.018,1.182,-0.189,0.547,-38.855,19.842,22.879
1747656070.16,-0.103,0.039,0.004,1.237,-0.162,0.475,-38.108,19.774,22.932
1747656070.17,-0.102,0.088,0.035,1.300,-0.133,0.433,-37.338,19.688,22.928
1747656070.18,-0.049,0.119,0.115,1.329,-0.101,0.431,-36.550,19.606,22.902
1747656070.19,0.041,0.123,0.159,1.364,-0.086,0.463,-35.740,19.540,22.879
1747656070.20,0.134,0.085,0.067,1.330,-0.102,0.493,-34.920,19.487,22.878
1747656070.21,0.173,0.062,-0.004,1.244,-0.186,0.506,-34.131,19.425,22.909
1747656070.22,0.126,0.035,-0.050,1.187,-0.315,0.518,-33.379,19.315,22.964
1747656070.23,0.046,-0.035,-0.088,1.171,-0.438,0.512,-32.650,19.134,23.033
1747656070.24,-0.053,-0.058,-0.060,1.205,-0.462,0.497,-31.915,18.908,23.095
1747656070.25,-0.172,-0.046,-0.031,1.243,-0.453,0.445,-31.166,18.662,23.129
1747656070.26,-0.272,-0.007,-0.022,1.300,-0.417,0.379,-30.404,18.407,23.119
1747656070.27,-0.297,0.015,0.001,1.368,-0.305,0.316,-29.617,18.170,23.061
1747656070.28,-0.240,0.028,0.060,1.444,-0.209,0.268,-28.804,17.974,22.955
1747656070.29,-0.124,0.034,0.073,1.516,-0.153,0.263,-27.953,17.810,22.822
1747656070.30,0.003,0.028,0.056,1.531,-0.116,0.242,-27.078,17.668,22.677
1747656070.31,0.052,0.036,0.009,1.499,-0.076,0.206,-26.214,17.543,22.521
1747656070.32,0.027,0.015,-0.005,1.477,-0.081,0.175,-25.370,17.428,22.352
1747656070.33,-0.043,-0.009,-0.011,1.492,-0.113,0.191,-24.533,17.300,22.181
1747656070.34,-0.101,-0.041,-0.008,1.516,-0.093,0.215,-23.678,17.177,22.026
1747656070.35,-0.151,-0.045,0.051,1.553,-0.124,0.184,-22.807,17.055,21.865
1747656070.36,-0.178,-0.014,0.066,1.593,-0.157,0.139,-21.920,16.900,21.676
1747656070.37,-0.107,-0.009,0.100,1.634,-0.168,0.128,-21.017,16.732,21.466
1747656070.38,0.048,-0.010,0.125,1.659,-0.214,0.149,-20.093,16.551,21.258
1747656070.39,0.226,-0.004,0.070,1.629,-0.310,0.188,-19.164,16.342,21.073
1747656070.40,0.324,0.002,-0.010,1.558,-0.454,0.294,-18.251,16.082,20.943
1747656070.41,0.290,-0.037,-0.024,1.490,-0.490,0.408,-17.360,15.791,20.895
1747656070.42,0.135,-0.037,0.043,1.461,-0.386,0.482,-16.483,15.543,20.915
1747656070.43,-0.023,-0.007,0.059,1.535,-0.226,0.519,-15.585,15.382,20.966
1747656070.44,-0.088,0.026,0.034,1.654,-0.085,0.526,-14.626,15.308,21.016
1747656070.45,-0.078,0.052,0.065,1.767,0.006,0.495,-13.609,15.295,21.042
1747656070.46,-0.022,0.063,0.098,1.861,-0.020,0.464,-12.535,15.295,21.032
1747656070.47,0.026,0.015,0.097,1.868,-0.155,0.421,-11.438,15.240,20.994
1747656070.48,0.032,0.006,0.093,1.851,-0.221,0.381,-10.355,15.115,20.936
1747656070.49,0.033,-0.022,0.062,1.825,-0.144,0.346,-9.285,14.997,20.862
1747656070.50,0.006,-0.066,0.031,1.763,-0.095,0.359,-8.245,14.920,20.787
1747656070.51,-0.031,-0.081,0.006,1.689,-0.091,0.445,-7.233,14.862,20.755
1747656070.52,-0.025,-0.082,0.016,1.632,-0.056,0.507,-6.248,14.822,20.778
1747656070.53,0.017,-0.042,0.012,1.615,-0.049,0.505,-5.278,14.798,20.822
1747656070.54,0.056,0.040,0.009,1.694,-0.046,0.502,-4.298,14.773,20.860
1747656070.55,0.075,0.129,0.019,1.929,-0.019,0.499,-3.224,14.754,20.874
1747656070.56,0.057,0.180,0.022,1.883,0.032,0.382,-2.091,14.753,20.843
1747656070.57,-0.009,0.179,0.027,1.748,-0.020,0.283,-1.044,14.763,20.758
1747656070.58,-0.094,0.012,-0.101,1.742,-0.100,0.260,-0.044,14.725,20.655
1747656070.59,-0.186,-0.093,-0.132,1.690,-0.037,0.240,0.943,14.680,20.544
1747656070.60,-0.221,-0.141,-0.096,1.622,0.064,0.199,1.890,14.692,20.425
1747656070.61,-0.214,-0.101,-0.113,1.558,0.110,0.179,2.795,14.747,20.298
1747656070.62,-0.148,-0.028,-0.079,1.527,0.165,0.195,3.671,14.832,20.176
1747656070.63,-0.024,0.043,-0.032,1.591,0.123,0.210,4.559,14.927,20.060
1747656070.64,0.061,0.110,-0.037,1.620,-0.001,0.222,5.480,14.972,19.941
1747656070.65,0.132,0.164,-0.031,1.635,-0.095,0.220,6.409,14.958,19.824
1747656070.66,0.181,0.186,-0.019,1.611,-0.233,0.180,7.338,14.881,19.694
1747656070.67,0.172,0.137,-0.047,1.560,-0.281,0.170,8.239,14.749,19.555
1747656070.68,0.156,-0.020,-0.076,1.451,-0.276,0.209,9.100,14.608,19.440
1747656070.69,0.096,-0.141,-0.105,1.340,-0.267,0.271,9.904,14.462,19.371
1747656070.70,0.051,-0.235,-0.105,1.294,-0.215,0.314,10.673,14.328,19.347
1747656070.71,0.029,-0.238,-0.084,1.248,-0.095,0.312,11.420,14.239,19.343
1747656070.72,0.016,-0.136,-0.062,1.227,-0.039,0.315,12.149,14.205,19.341
1747656070.73,0.021,-0.018,-0.067,1.179,-0.083,0.343,12.862,14.168,19.355
1747656070.74,0.046,0.109,-0.092,1.142,-0.089,0.377,13.553,14.108,19.393
1747656070.75,0.088,0.201,-0.121,1.069,-0.107,0.419,14.222,14.036,19.461
1747656070.76,0.097,0.197,-0.149,0.988,-0.135,0.427,14.849,13.944,19.559
1747656070.77,0.091,0.102,-0.178,0.962,-0.193,0.386,15.446,13.826,19.657
1747656070.78,0.052,-0.058,-0.158,0.880,-0.249,0.305,16.004,13.681,19.727
1747656070.79,0.016,-0.120,-0.157,0.833,-0.301,0.221,16.512,13.515,19.758
1747656070.80,-0.018,-0.119,-0.167,0.797,-0.352,0.188,16.992,13.326,19.761
1747656070.81,-0.084,-0.056,-0.141,0.774,-0.332,0.148,17.449,13.132,19.754
1747656070.82,-0.116,0.023,-0.120,0.747,-0.310,0.098,17.888,12.959,19.722
1747656070.83,-0.111,0.059,-0.107,0.745,-0.319,0.067,18.311,12.797,19.671
1747656070.84,-0.091,0.061,-0.107,0.750,-0.332,0.038,18.736,12.631,19.602
1747656070.85,-0.075,0.046,-0.088,0.724,-0.260,0.004,19.150,12.490,19.518
1747656070.86,-0.054,0.011,-0.051,0.678,-0.207,-0.026,19.541,12.390,19.420
1747656070.87,-0.038,-0.013,-0.058,0.640,-0.187,-0.042,19.905,12.315,19.313
1747656070.88,0.015,-0.024,-0.067,0.590,-0.185,-0.045,20.241,12.244,19.208
1747656070.89,0.077,-0.087,-0.074,0.520,-0.217,-0.034,20.545,12.166,19.111
1747656070.90,0.108,-0.163,-0.078,0.479,-0.298,-0.011,20.820,12.046,19.290
1747656070.91,0.115,-0.125,-0.052,0.443,-0.277,0.028,21.079,11.898,19.236
1747656070.92,0.099,-0.094,0.039,0.425,-0.209,0.068,21.328,11.767,19.706
1747656070.93,0.061,-0.065,0.068,0.356,-0.116,0.103,21.556,11.675,19.709
1747656070.94,0.071,-0.075,0.004,0.320,-0.092,0.146,21.760,11.606,20.243
1747656070.95,0.068,-0.098,-0.023,0.270,-0.047,0.175,21.943,11.542,20.305
1747656070.96,0.061,-0.089,-0.010,0.232,-0.017,0.177,22.104,11.497,20.871
1747656070.97,0.063,-0.079,-0.028,0.189,-0.013,0.218,22.246,11.454,20.963
1747656070.98,0.058,-0.083,-0.044,0.128,-0.002,0.279,22.363,11.400,21.336
1747656070.99,0.046,-0.069,-0.048,0.095,0.008,0.312,22.457,11.338,21.503
1747656071.00,0.023,-0.042,-0.052,0.088,-0.006,0.316,22.544,11.269,22.157
1747656071.01,0.003,-0.036,-0.055,0.062,0.019,0.310,22.622,11.203,22.336
1747656071.02,0.023,-0.060,-0.039,0.016,0.056,0.294,22.678,11.156,22.989
1747656071.03,0.035,-0.076,0.003,0.006,0.116,0.291,22.715,11.137,23.165
1747656071.04,0.042,-0.054,0.036,-0.029,0.132,0.275,22.742,11.145,23.802
1747656071.05,0.046,-0.061,0.006,-0.075,0.118,0.294,22.742,11.149,23.979
1747656071.06,0.066,-0.075,-0.037,-0.129,0.103,0.351,22.722,11.132,24.640
1747656071.07,0.096,-0.055,-0.063,-0.183,0.081,0.398,22.674,11.090,24.887
1747656071.08,0.088,-0.059,-0.076,-0.218,0.073,0.420,22.607,11.026,25.601
1747656071.09,0.036,-0.073,-0.050,-0.209,0.156,0.433,22.532,10.980,25.884
1747656071.10,0.005,-0.068,0.023,-0.175,0.253,0.428,22.474,10.988,26.597
1747656071.11,-0.005,-0.059,0.073,-0.222,0.300,0.414,22.412,11.041,26.874
1747656071.12,0.047,-0.070,0.042,-0.284,0.268,0.430,22.315,11.097,27.573
1747656071.13,0.109,-0.078,-0.008,-0.342,0.222,0.476,22.190,11.119,27.884
1747656071.14,0.127,-0.054,-0.039,-0.430,0.154,0.542,22.030,11.094,28.649
1747656071.15,0.125,-0.041,-0.068,-0.489,0.143,0.591,21.834,11.027,29.047
1747656071.16,0.099,-0.066,-0.054,-0.491,0.263,0.625,21.623,10.981,29.885
1747656071.17,0.055,-0.088,0.044,-0.514,0.391,0.646,21.414,11.007,30.327
1747656071.18,0.050,-0.097,0.100,-0.574,0.490,0.685,21.179,11.091,31.188
1747656071.19,0.092,-0.113,0.070,-0.599,0.545,0.715,20.930,11.212,31.683
1747656071.20,0.098,-0.049,0.026,-0.652,0.642,0.762,20.668,11.368,32.586
1747656071.21,0.078,-0.036,-0.014,-0.749,0.623,0.717,20.360,11.547,33.119
1747656071.22,-0.042,0.065,-0.088,-0.772,0.830,0.760,20.016,11.773,34.019
1747656071.23,-0.008,0.010,-0.048,-0.751,0.991,0.747,19.679,12.114,34.928
1747656071.24,-0.045,-0.010,-0.056,-0.816,1.056,0.673,19.334,12.534,35.455
1747656071.25,-0.044,-0.023,-0.083,-0.866,0.899,0.615,18.941,12.935,36.264
1747656071.26,0.119,-0.103,-0.070,-0.973,0.668,0.713,18.519,13.226,36.783
1747656071.27,0.240,-0.185,-0.031,-1.076,0.382,0.730,18.041,13.345,37.677
1747656071.28,0.269,-0.097,-0.066,-1.085,0.235,0.711,17.535,13.350,38.253
1747656071.29,0.243,-0.018,-0.045,-1.092,0.086,0.666,17.019,13.276,39.104
1747656071.30,0.242,-0.016,-0.036,-1.066,0.070,0.694,16.505,13.162,39.646
1747656071.31,0.225,-0.071,-0.023,-1.029,0.035,0.735,16.018,13.036,40.493
1747656071.32,0.131,-0.092,0.021,-1.032,0.107,0.861,15.544,12.901,41.085
1747656071.33,0.151,-0.094,0.026,-1.088,0.119,1.133,15.082,12.788,42.096
1747656071.34,-0.104,-0.018,-0.033,-1.123,0.113,1.157,14.613,12.639,42.912
1747656071.35,-0.119,0.070,-0.032,-1.138,0.038,1.081,14.120,12.487,43.981
1747656071.36,-0.071,0.136,-0.129,-1.130,0.002,0.992,13.613,12.316,44.722
1747656071.37,-0.162,0.149,-0.204,-1.092,0.010,0.782,13.098,12.166,45.653
1747656071.38,-0.187,0.187,-0.141,-1.007,0.095,0.617,12.594,12.085,46.174
1747656071.39,-0.178,0.111,-0.102,-0.939,0.074,0.434,12.118,12.043,46.874
1747656071.40,-0.153,0.050,-0.064,-0.929,-0.029,0.248,11.634,11.998,47.174
1747656071.41,-0.132,0.060,-0.059,-0.864,-0.113,-0.013,11.149,11.919,47.620
1747656071.42,-0.070,0.072,-0.030,-0.888,-0.158,-0.129,10.646,11.839,47.661
1747656071.43,-0.006,0.072,-0.029,-0.807,-0.324,-0.110,10.161,11.688,47.970
1747656071.44,0.059,0.044,-0.088,-0.868,-0.335,-0.093,9.678,11.499,47.991
1747656071.45,0.102,0.043,-0.078,-0.818,-0.341,-0.071,9.204,11.282,48.304
1747656071.46,0.033,0.080,-0.058,-0.854,-0.254,0.004,8.727,11.107,48.376
1747656071.47,-0.077,0.141,-0.055,-0.826,-0.109,-0.138,8.253,10.985,48.688
1747656071.48,-0.144,0.191,-0.028,-0.801,0.114,-0.215,7.772,10.993,48.674
1747656071.49,-0.176,0.182,-0.032,-0.762,0.238,-0.320,7.308,11.103,48.857
1747656071.50,-0.198,0.147,-0.089,-0.812,0.333,-0.407,6.826,11.284,48.736
1747656071.51,-0.144,0.017,-0.079,-0.836,0.330,-0.431,6.318,11.495,48.844
1747656071.52,-0.031,-0.124,-0.034,-0.887,0.244,-0.475,5.785,11.677,48.687
1747656071.53,0.120,-0.151,-0.034,-0.926,0.072,-0.437,5.224,11.787,48.770
1747656071.54,0.175,-0.084,-0.066,-0.939,-0.126,-0.357,4.656,11.777,48.659
1747656071.55,0.125,0.028,-0.047,-0.960,-0.146,-0.308,4.087,11.703,48.817
1747656071.56,0.082,0.116,-0.018,-0.933,-0.134,-0.220,3.527,11.622,48.779
1747656071.57,0.027,0.138,-0.080,-0.962,-0.019,-0.190,2.977,11.575,49.002
1747656071.58,-0.044,0.069,-0.054,-0.991,0.094,-0.198,2.407,11.597,49.006
1747656071.59,-0.099,-0.077,-0.015,-1.008,0.177,-0.191,1.826,11.676,49.128
1747656071.60,-0.105,-0.166,-0.030,-1.053,0.218,-0.191,1.226,11.789,49.140
1747656071.61,-0.111,-0.163,-0.036,-1.069,0.237,-0.161,0.610,11.921,49.165
1747656071.62,-0.120,-0.111,-0.063,-1.059,0.288,-0.109,0.001,12.068,49.216
1747656071.63,-0.108,-0.035,-0.079,-1.087,0.342,-0.062,-0.610,12.250,49.298
1747656071.64,-0.086,0.034,-0.081,-1.065,0.405,-0.055,-1.218,12.464,49.399
1747656071.65,-0.067,0.081,-0.085,-1.054,0.429,-0.089,-1.816,12.706,49.491
1747656071.66,-0.051,0.090,-0.043,-1.072,0.413,-0.163,-2.425,12.952,49.555
1747656071.67,-0.013,0.062,-0.093,-1.070,0.327,-0.248,-3.047,13.166,49.580
1747656071.68,0.011,0.035,-0.099,-1.068,0.261,-0.317,-3.678,13.329,49.561
1747656071.69,0.009,0.023,-0.079,-1.090,0.240,-0.347,-4.323,13.470,49.518
1747656071.70,-0.033,0.026,-0.121,-1.088,0.250,-0.334,-4.972,13.603,49.474
1747656071.71,-0.085,0.052,-0.109,-1.134,0.358,-0.335,-5.632,13.771,49.438
1747656071.72,-0.093,0.090,-0.073,-1.168,0.449,-0.329,-6.317,14.000,49.412
1747656071.73,-0.086,0.117,-0.078,-1.181,0.492,-0.337,-7.014,14.267,49.392
1747656071.74,-0.053,0.134,-0.077,-1.170,0.508,-0.377,-7.716,14.551,49.362
1747656071.75,-0.005,0.125,-0.094,-1.131,0.484,-0.438,-8.412,14.827,49.304
1747656071.76,0.002,0.091,-0.084,-1.131,0.403,-0.510,-9.106,15.068,49.208
1747656071.77,-0.023,0.030,-0.081,-1.116,0.327,-0.571,-9.808,15.252,49.076
1747656071.78,-0.030,-0.035,-0.082,-1.148,0.347,-0.599,-10.516,15.417,48.920
1747656071.79,-0.014,-0.074,-0.081,-1.209,0.331,-0.602,-11.259,15.582,48.766
1747656071.80,-0.029,-0.076,-0.075,-1.237,0.352,-0.588,-12.023,15.747,48.624
1747656071.81,-0.035,-0.044,-0.034,-1.271,0.378,-0.570,-12.803,15.931,48.499
1747656071.82,-0.037,0.008,-0.017,-1.287,0.405,-0.575,-13.595,16.127,48.384
1747656071.83,-0.012,0.049,-0.007,-1.286,0.401,-0.579,-14.394,16.336,48.269
1747656071.84,0.044,0.051,-0.016,-1.269,0.326,-0.559,-15.186,16.515,48.158
1747656071.85,0.100,0.022,-0.042,-1.273,0.283,-0.529,-15.969,16.663,48.065
1747656071.86,0.142,-0.012,-0.053,-1.295,0.241,-0.526,-16.757,16.790,47.985
1747656071.87,0.126,-0.042,-0.010,-1.313,0.211,-0.532,-17.558,16.896,47.909
1747656071.88,0.071,-0.069,0.012,-1.330,0.194,-0.550,-18.372,16.988,47.831
1747656071.89,0.011,-0.097,0.017,-1.327,0.163,-0.554,-19.189,17.062,47.746
1747656071.90,-0.024,-0.121,0.052,-1.342,0.204,-0.531,-20.009,17.138,47.668
1747656071.91,0.010,-0.139,0.085,-1.360,0.285,-0.474,-20.831,17.260,47.618
1747656071.92,0.065,-0.142,0.068,-1.407,0.295,-0.390,-21.657,17.429,47.617
1747656071.93,0.091,-0.124,0.030,-1.403,0.242,-0.305,-22.484,17.603,47.675
1747656071.94,0.105,-0.086,0.031,-1.384,0.227,-0.245,-23.289,17.776,47.777
1747656071.95,0.100,-0.034,0.038,-1.379,0.178,-0.226,-24.079,17.945,47.903
1747656071.96,0.051,0.003,0.003,-1.376,0.122,-0.244,-24.870,18.083,48.031
1747656071.97,0.003,0.004,-0.025,-1.381,0.099,-0.288,-25.664,18.191,48.145
1747656071.98,-0.009,-0.020,-0.048,-1.376,0.126,-0.355,-26.470,18.291,48.225
1747656071.99,-0.018,-0.054,-0.043,-1.398,0.114,-0.417,-27.291,18.380,48.267
1747656072.00,-0.046,-0.077,-0.025,-1.430,0.110,-0.430,-28.135,18.455,48.294
1747656072.01,-0.080,-0.085,0.002,-1.438,0.126,-0.406,-28.989,18.539,48.332
1747656072.02,-0.117,-0.065,0.012,-1.428,0.185,-0.380,-29.836,18.655,48.388
1747656072.03,-0.133,-0.023,-0.001,-1.426,0.193,-0.350,-30.675,18.801,48.463
1747656072.04,-0.130,0.020,-0.019,-1.381,0.197,-0.327,-31.498,18.960,48.554
1747656072.05,-0.106,0.048,-0.022,-1.340,0.231,-0.323,-32.290,19.129,48.646
1747656072.06,-0.069,0.048,-0.032,-1.367,0.271,-0.356,-33.083,19.320,48.733
1747656072.07,-0.040,0.021,-0.061,-1.356,0.255,-0.410,-33.890,19.508,48.796
1747656072.08,-0.016,-0.029,-0.059,-1.333,0.216,-0.450,-34.695,19.659,48.826
1747656072.09,0.008,-0.078,-0.000,-1.338,0.205,-0.463,-35.500,19.786,48.839
1747656072.10,0.045,-0.111,0.011,-1.379,0.210,-0.465,-36.319,19.917,48.856
1747656072.11,0.067,-0.121,-0.013,-1.402,0.150,-0.457,-37.156,20.040,48.886
1747656072.12,0.047,-0.111,-0.043,-1.423,0.100,-0.421,-37.999,20.140,48.937
1747656072.13,0.029,-0.100,-0.044,-1.459,0.132,-0.391,-38.851,20.259,49.023
1747656072.14,0.016,-0.093,-0.022,-1.470,0.154,-0.382,-39.713,20.411,49.132
1747656072.15,-0.010,-0.086,-0.016,-1.507,0.167,-0.393,-40.585,20.579,49.249
1747656072.16,-0.019,-0.086,-0.002,-1.530,0.132,-0.385,-41.477,20.752,49.378
1747656072.17,-0.026,-0.090,0.017,-1.509,0.042,-0.362,-42.365,20.899,49.524
1747656072.18,-0.020,-0.082,0.025,-1.502,0.009,-0.323,-43.236,21.026,49.693
1747656072.19,0.011,-0.058,0.048,-1.523,0.026,-0.294,-44.105,21.176,49.897
1747656072.20,0.043,-0.023,0.031,-1.541,0.014,-0.286,-44.981,21.348,50.126
1747656072.21,0.051,0.013,-0.016,-1.533,-0.039,-0.301,-45.859,21.508,50.359
1747656072.22,0.044,0.042,-0.033,-1.528,-0.119,-0.315,-46.737,21.630,50.588
1747656072.23,0.037,0.058,-0.051,-1.490,-0.214,-0.335,-47.608,21.694,50.804
1747656072.24,0.012,0.062,-0.075,-1.450,-0.281,-0.379,-48.463,21.685,50.984
1747656072.25,-0.018,0.046,-0.045,-1.411,-0.269,-0.437,-49.310,21.623,51.114
1747656072.26,-0.060,0.013,-0.011,-1.354,-0.240,-0.494,-50.141,21.529,51.110
1747656072.27,-0.119,-0.023,-0.003,-1.352,-0.194,-0.521,-50.965,21.418,51.129
1747656072.28,-0.163,-0.059,0.016,-1.387,-0.074,-0.518,-51.801,21.349,51.141
1747656072.29,-0.179,-0.080,0.026,-1.420,0.060,-0.503,-52.655,21.370,51.172
1747656072.30,-0.169,-0.079,0.013,-1.440,0.147,-0.467,-53.517,21.484,51.123
1747656072.31,-0.126,-0.059,-0.012,-1.448,0.220,-0.430,-54.378,21.678,51.234
1747656072.32,-0.062,-0.024,-0.012,-1.388,0.258,-0.425,-55.222,21.923,51.167
1747656072.33,-0.014,0.016,-0.016,-1.343,0.252,-0.450,-56.036,22.157,51.273
1747656072.34,0.015,0.044,-0.022,-1.355,0.237,-0.482,-56.850,22.366,51.135
1747656072.35,0.016,0.051,-0.024,-1.321,0.223,-0.513,-57.665,22.543,51.190
1747656072.36,-0.012,0.044,-0.035,-1.331,0.216,-0.542,-58.476,22.687,50.987
1747656072.37,-0.041,0.020,0.008,-1.377,0.204,-0.556,-59.311,22.823,51.006
1747656072.38,-0.039,-0.018,0.033,-1.372,0.253,-0.554,-60.159,22.971,50.773
1747656072.38,0.001,-0.056,-0.003,-1.349,0.320,-0.551,-60.995,23.163,50.800
1747656072.40,0.039,-0.077,-0.021,-1.349,0.346,-0.547,-61.826,23.382,50.560
1747656072.40,0.051,-0.076,0.024,-1.377,0.367,-0.538,-62.663,23.635,50.616
1747656072.42,0.046,-0.053,0.048,-1.395,0.312,-0.531,-63.512,23.912,50.428
1747656072.42,0.009,-0.007,0.005,-1.394,0.208,-0.541,-64.364,24.151,50.529
1747656072.43,-0.026,0.041,-0.018,-1.363,0.186,-0.568,-65.213,24.337,50.332
1747656072.44,-0.035,0.064,-0.010,-1.326,0.220,-0.596,-66.048,24.481,50.362
1747656072.45,-0.041,0.057,0.015,-1.355,0.250,-0.605,-66.887,24.626,50.072
1747656072.46,-0.049,0.025,0.045,-1.329,0.334,-0.601,-67.730,24.810,50.093
1747656072.47,-0.047,-0.016,0.013,-1.285,0.470,-0.599,-68.548,25.047,49.798
1747656072.48,-0.040,-0.057,0.014,-1.323,0.534,-0.592,-69.365,25.359,49.821
1747656072.49,-0.022,-0.080,0.042,-1.350,0.567,-0.570,-70.200,25.757,49.599
1747656072.50,0.008,-0.077,0.042,-1.334,0.590,-0.556,-71.030,26.225,49.744
1747656072.51,0.015,-0.044,0.070,-1.310,0.596,-0.550,-71.847,26.723,49.575
1747656072.52,0.012,0.006,0.093,-1.261,0.682,-0.555,-72.645,27.252,49.750
1747656072.53,0.014,0.033,0.122,-1.240,0.768,-0.566,-73.426,27.815,49.755
1747656072.54,0.016,0.030,0.083,-1.257,0.741,-0.550,-74.204,28.434,49.946
1747656072.55,0.009,0.020,-0.008,-1.281,0.648,-0.532,-74.988,29.119,50.245
1747656072.56,-0.003,0.004,-0.039,-1.305,0.623,-0.547,-75.781,29.843,50.621
1747656072.57,0.002,-0.014,0.009,-1.326,0.689,-0.563,-76.592,30.644,51.064
1747656072.58,0.039,-0.032,0.063,-1.289,0.842,-0.558,-77.398,31.558,51.557
1747656072.59,0.072,-0.051,0.088,-1.273,0.973,-0.535,-78.181,32.654,52.141
1747656072.60,0.058,-0.070,0.129,-1.334,0.911,-0.514,-78.967,33.977,52.935
1747656072.61,0.016,-0.081,0.107,-1.371,0.729,-0.480,-79.766,35.558,54.067
1747656072.62,0.007,-0.068,-0.017,-1.377,0.579,-0.472,-80.558,37.364,55.524
1747656072.63,0.035,-0.028,-0.082,-1.364,0.522,-0.494,-81.345,39.375,57.244
1747656072.64,0.095,0.010,-0.056,-1.262,0.514,-0.488,-82.101,41.554,59.148
1747656072.65,0.156,0.009,-0.033,-1.126,0.468,-0.441,-82.784,43.843,61.173
1747656072.66,0.180,-0.003,-0.047,-1.049,0.420,-0.390,-83.387,46.320,63.415
1747656072.67,0.143,-0.014,-0.043,-1.063,0.418,-0.383,-83.953,49.241,66.116
1747656072.68,0.054,-0.028,-0.015,-1.114,0.430,-0.416,-84.523,52.855,69.504
1747656072.69,-0.052,-0.051,0.016,-1.122,0.446,-0.449,-85.093,57.350,73.768
1747656072.70,-0.134,-0.071,-0.005,-1.057,0.474,-0.467,-85.633,62.659,78.833
1747656072.71,-0.157,-0.085,-0.063,-0.979,0.573,-0.486,-86.121,68.749,84.642
1747656072.72,-0.117,-0.070,-0.082,-0.915,0.669,-0.484,-86.551,75.842,91.392
1747656072.73,-0.038,-0.036,-0.084,-0.844,0.738,-0.456,-86.904,84.088,99.248
1747656072.74,0.061,-0.006,-0.076,-0.782,0.779,-0.402,-87.161,93.378,108.115
1747656072.75,0.151,0.007,-0.052,-0.696,0.762,-0.344,-87.311,103.145,117.452
1747656072.76,0.194,-0.003,-0.050,-0.611,0.692,-0.292,-87.371,112.442,126.341
1747656072.77,0.207,0.025,-0.079,-0.498,0.544,-0.239,-87.365,120.433,133.984
1747656072.78,0.169,0.044,-0.105,-0.405,0.382,-0.185,-87.325,126.767,140.062
1747656072.79,0.100,0.050,-0.064,-0.341,0.327,-0.127,-87.259,131.635,144.735
1747656072.80,0.021,0.014,0.012,-0.335,0.322,-0.074,-87.169,135.463,148.381
1747656072.81,-0.066,-0.017,0.061,-0.363,0.238,-0.048,-87.044,138.805,151.565
1747656072.82,-0.150,-0.037,0.047,-0.348,0.172,-0.049,-86.902,141.804,154.455
1747656072.83,-0.201,-0.019,-0.003,-0.298,0.207,-0.075,-86.776,144.413,156.963
1747656072.84,-0.207,-0.014,-0.035,-0.274,0.303,-0.123,-86.672,146.963,159.372
1747656072.85,-0.165,-0.029,-0.028,-0.257,0.443,-0.186,-86.589,149.812,162.014
1747656072.86,-0.076,-0.039,-0.027,-0.237,0.571,-0.236,-86.523,152.997,164.914
1747656072.87,0.049,-0.040,-0.013,-0.224,0.637,-0.247,-86.464,156.313,167.889
1747656072.88,0.167,-0.024,0.009,-0.236,0.614,-0.210,-86.393,159.421,170.641
1747656072.89,0.241,0.010,0.035,-0.229,0.451,-0.135,-86.298,161.916,172.832
1747656072.90,0.243,-0.030,0.034,-0.215,0.235,-0.049,-86.194,163.403,174.129
1747656072.91,0.208,-0.037,0.034,-0.198,0.050,-0.018,-86.083,164.262,174.905
1747656072.92,0.132,0.079,0.050,-0.110,-0.125,-0.008,-85.998,164.660,175.327
1747656072.93,0.013,0.070,0.021,-0.011,-0.238,-0.032,-85.968,164.825,175.599
1747656072.94,-0.063,0.061,-0.012,0.068,-0.258,-0.065,-85.992,164.995,175.914
1747656072.95,-0.093,0.040,-0.036,0.123,-0.188,-0.075,-86.056,165.234,176.286
1747656072.96,-0.087,0.002,-0.048,0.126,0.004,-0.041,-86.137,165.382,176.491
1747656072.97,-0.065,-0.045,0.013,0.064,0.188,-0.014,-86.194,165.442,176.490
1747656072.98,-0.069,-0.075,0.064,-0.044,0.194,-0.011,-86.202,165.618,176.552
1747656072.99,-0.092,-0.070,0.054,-0.122,0.097,-0.030,-86.155,166.052,176.902
1747656073.00,-0.113,-0.035,0.026,-0.100,-0.005,-0.057,-86.096,166.671,177.497
1747656073.01,-0.118,0.007,-0.004,-0.026,-0.034,-0.058,-86.068,167.252,178.095
1747656073.02,-0.086,0.032,0.002,0.042,0.075,-0.040,-86.080,167.645,178.483
1747656073.03,-0.026,0.024,0.045,0.037,0.248,-0.006,-86.109,167.855,178.600
1747656073.04,0.039,-0.004,0.093,-0.037,0.345,0.041,-86.108,167.889,178.459
1747656073.05,0.084,-0.029,0.099,-0.089,0.330,0.084,-86.063,167.688,178.060
1747656073.06,0.090,-0.033,0.059,-0.076,0.225,0.097,-86.003,167.287,177.495
1747656073.07,0.055,-0.010,0.005,-0.026,0.062,0.067,-85.962,166.843,176.968
1747656073.08,-0.007,0.017,-0.028,0.018,-0.107,0.003,-85.955,166.641,176.779
1747656073.09,-0.058,0.018,-0.034,0.052,-0.181,-0.044,-85.980,166.748,176.972
1747656073.10,-0.061,-0.008,-0.017,0.038,-0.097,-0.069,-86.015,167.105,177.414
1747656073.11,-0.017,-0.037,0.024,0.032,0.006,-0.045,-86.039,167.528,177.862
1747656073.12,0.033,-0.037,0.041,0.068,-0.015,0.008,-86.063,167.605,177.936
1747656073.13,0.065,-0.005,0.018,0.114,-0.110,0.088,-86.101,166.952,177.319
1747656073.14,0.061,0.022,-0.004,0.147,-0.139,0.131,-86.155,165.619,176.056
1747656073.15,0.010,0.020,-0.003,0.160,-0.180,0.100,-86.222,164.165,174.690
1747656073.16,-0.067,-0.003,-0.019,0.146,-0.161,0.038,-86.297,163.106,173.731
1747656073.17,-0.107,-0.030,-0.007,0.134,-0.053,-0.016,-86.374,162.642,173.328
1747656073.18,-0.103,-0.030,0.019,0.134,0.031,-0.017,-86.451,162.494,173.183
1747656073.19,-0.080,-0.003,0.027,0.148,0.059,0.021,-86.525,162.152,172.813
1747656073.20,-0.053,0.023,0.032,0.157,0.048,0.055,-86.596,161.366,171.996
1747656073.21,-0.041,0.025,0.033,0.189,0.054,0.063,-86.674,160.226,170.825
1747656073.22,-0.029,0.000,0.024,0.199,0.045,0.067,-86.765,158.887,169.456
1747656073.23,0.008,-0.031,0.005,0.146,0.080,0.103,-86.839,157.445,167.979
1747656073.24,0.074,-0.046,0.008,0.100,0.155,0.137,-86.876,155.956,166.419
1747656073.25,0.132,-0.032,0.006,0.110,0.161,0.161,-86.896,154.267,164.634
1747656073.26,0.154,0.009,-0.013,0.154,0.093,0.175,-86.921,152.227,162.516
1747656073.27,0.139,0.040,-0.015,0.191,0.014,0.179,-86.960,149.748,160.003
1747656073.28,0.091,0.044,0.008,0.188,-0.126,0.158,-87.002,147.109,157.389
1747656073.29,0.015,0.026,0.001,0.184,-0.314,0.121,-87.045,144.604,155.007
1747656073.30,-0.043,0.003,-0.042,0.188,-0.453,0.082,-87.097,142.279,152.901
1747656073.31,-0.050,-0.002,-0.057,0.188,-0.477,0.063,-87.154,140.049,150.939
1747656073.32,-0.032,-0.001,-0.022,0.206,-0.415,0.070,-87.210,137.726,148.870
1747656073.33,-0.010,-0.009,0.012,0.276,-0.306,0.077,-87.279,134.913,146.259
1747656073.34,-0.008,-0.008,0.039,0.354,-0.245,0.083,-87.369,131.275,142.771
1747656073.35,-0.024,-0.000,0.046,0.399,-0.311,0.088,-87.468,126.698,138.345
1747656073.36,-0.056,0.018,0.026,0.396,-0.405,0.094,-87.553,121.479,133.328
1747656073.37,-0.086,0.022,0.015,0.379,-0.367,0.095,-87.612,116.058,128.127
1747656073.38,-0.084,0.005,0.035,0.386,-0.261,0.096,-87.648,110.538,122.783
1747656073.39,-0.066,-0.020,0.052,0.400,-0.141,0.113,-87.660,104.724,117.078
1747656073.40,-0.045,-0.028,0.073,0.396,-0.088,0.149,-87.633,98.846,111.256
1747656073.41,-0.024,-0.011,0.083,0.401,-0.121,0.197,-87.558,93.159,105.620
1747656073.42,-0.028,0.008,0.064,0.417,-0.190,0.222,-87.440,87.686,100.232
1747656073.43,-0.052,0.015,0.067,0.435,-0.196,0.202,-87.296,82.562,95.215
1747656073.44,-0.068,0.016,0.078,0.490,-0.186,0.170,-87.145,77.497,90.253
1747656073.45,-0.079,0.019,0.046,0.548,-0.161,0.142,-86.983,72.264,85.114
1747656073.46,-0.069,0.021,0.024,0.640,-0.094,0.154,-86.787,66.894,79.808
1747656073.47,-0.041,0.027,0.024,0.735,-0.095,0.166,-86.532,61.448,74.402
1747656073.48,-0.030,0.047,0.013,0.757,-0.194,0.175,-86.227,56.353,69.380
1747656073.49,-0.018,0.056,-0.003,0.735,-0.251,0.183,-85.895,52.070,65.217
1747656073.50,-0.001,0.034,0.025,0.715,-0.248,0.184,-85.549,48.559,61.840
1747656073.51,0.000,-0.006,0.061,0.696,-0.160,0.194,-85.197,45.692,59.084
1747656073.52,0.008,-0.045,0.126,0.672,-0.039,0.223,-84.835,43.474,56.913
1747656073.53,0.007,-0.072,0.159,0.715,-0.044,0.257,-84.452,41.702,55.151
1747656073.54,-0.025,-0.072,0.077,0.803,-0.128,0.286,-84.023,40.012,53.502
1747656073.55,-0.056,-0.052,-0.008,0.880,-0.128,0.314,-83.540,38.359,51.916
1747656073.56,-0.059,-0.028,-0.004,0.910,-0.086,0.336,-83.021,36.896,50.503
1747656073.57,-0.030,0.002,0.004,0.940,-0.080,0.340,-82.481,35.632,49.277
1747656073.58,0.006,0.044,-0.038,0.985,-0.088,0.325,-81.920,34.409,48.091
1747656073.59,0.019,0.068,-0.032,0.937,-0.019,0.300,-81.363,33.292,46.996
1747656073.60,0.026,0.036,0.071,0.877,0.028,0.281,-80.839,32.401,45.588
1747656073.61,0.026,-0.033,0.043,0.884,0.009,0.276,-80.330,31.624,44.790
1747656073.62,0.014,-0.087,-0.055,0.940,-0.034,0.274,-79.803,30.843,43.520
1747656073.63,0.002,-0.090,-0.096,0.974,-0.115,0.267,-79.253,30.020,42.726
1747656073.64,-0.000,-0.054,-0.110,1.012,-0.137,0.275,-78.684,29.195,41.495
1747656073.65,0.012,-0.004,-0.088,1.042,-0.088,0.296,-78.091,28.450,40.801
1747656073.66,0.014,0.035,-0.015,1.077,-0.064,0.307,-77.475,27.790,39.709
1747656073.67,0.004,0.033,0.021,1.061,-0.008,0.307,-76.849,27.208,39.137
1747656073.68,-0.025,0.006,0.019,0.959,0.112,0.318,-76.253,26.803,38.236
1747656073.69,-0.068,-0.033,0.017,0.863,0.287,0.342,-75.706,26.660,37.972
1747656073.70,-0.126,-0.065,0.028,0.823,0.409,0.349,-75.190,26.717,37.371
1747656073.71,-0.171,-0.072,0.010,0.869,0.399,0.373,-74.668,26.826,37.242
1747656073.72,-0.157,-0.053,-0.065,0.948,0.366,0.417,-74.104,26.924,36.699
1747656073.73,-0.088,-0.021,-0.102,1.057,0.349,0.435,-73.482,26.990,36.553
1747656073.74,0.005,0.010,-0.091,1.149,0.258,0.402,-72.812,26.927,35.888
1747656073.75,0.070,0.028,-0.080,1.180,0.229,0.351,-72.118,26.718,35.528
1747656073.76,0.102,0.022,-0.024,1.134,0.211,0.309,-71.443,26.457,34.697
1747656073.77,0.087,-0.006,0.016,1.093,0.159,0.272,-70.796,26.170,34.281
1747656073.78,0.055,-0.037,0.036,0.981,0.108,0.256,-70.199,25.888,33.499
1747656073.79,0.047,-0.058,0.092,0.944,0.082,0.313,-69.638,25.684,33.224
1747656073.80,0.064,-0.067,0.062,0.957,0.032,0.421,-69.058,25.598,32.703
1747656073.81,0.073,-0.070,0.020,1.014,-0.018,0.486,-68.440,25.583,32.684
1747656073.82,0.064,-0.060,0.009,1.124,-0.085,0.484,-67.769,25.535,32.463
1747656073.83,0.032,-0.032,-0.034,1.249,-0.221,0.394,-67.048,25.298,32.298
1747656073.84,0.011,-0.011,-0.120,1.380,-0.340,0.305,-66.284,24.813,31.949
1747656073.85,0.030,-0.006,-0.152,1.480,-0.273,0.200,-65.477,24.168,31.439
1747656073.86,0.061,-0.009,-0.109,1.425,-0.133,0.113,-64.676,23.499,30.831
1747656073.87,0.018,-0.018,-0.001,1.238,0.107,0.096,-63.954,22.967,30.255
1747656073.88,-0.079,-0.030,0.212,1.018,0.362,0.151,-63.335,22.733,29.838
1747656073.89,-0.169,-0.023,0.255,0.886,0.440,0.276,-62.790,22.770,29.615
1747656073.90,-0.183,-0.010,0.072,0.712,0.415,0.515,-62.283,23.070,29.675
1747656073.91,-0.066,-0.032,0.089,0.748,0.367,0.722,-61.767,23.609,30.034
1747656073.92,0.089,-0.032,0.127,0.972,0.242,0.769,-61.146,24.152,30.447
1747656073.93,0.215,0.011,0.038,1.216,-0.052,0.639,-60.408,24.415,30.681
1747656073.94,0.251,0.084,-0.110,1.403,-0.431,0.425,-59.599,24.225,30.618
1747656073.95,0.188,0.151,-0.157,1.539,-0.721,0.203,-58.754,23.591,30.271
1747656073.96,0.040,0.200,-0.053,1.479,-0.724,0.008,-57.931,22.697,29.720
1747656073.97,-0.153,0.193,0.088,1.320,-0.396,-0.104,-57.203,21.846,29.102
1747656073.98,-0.299,0.128,0.108,1.205,0.016,-0.114,-56.556,21.243,28.506
1747656073.99,-0.341,0.031,0.091,1.072,0.241,0.003,-55.962,20.920,28.023
1747656074.00,-0.216,-0.093,0.146,0.950,0.369,0.217,-55.403,20.878,27.759
1747656074.01,0.012,-0.196,0.138,0.907,0.444,0.427,-54.842,21.092,27.734
1747656074.02,0.213,-0.226,0.071,0.890,0.328,0.509,-54.263,21.419,27.855
1747656074.03,0.283,-0.166,-0.024,0.910,0.050,0.481,-53.683,21.636,27.983
1747656074.04,0.215,-0.073,-0.094,0.984,-0.237,0.433,-53.084,21.639,28.058
1747656074.05,0.081,0.022,-0.085,1.032,-0.346,0.336,-52.464,21.457,28.049
1747656074.06,-0.051,0.124,-0.030,1.027,-0.297,0.195,-51.861,21.177,27.930
1747656074.07,-0.138,0.213,0.035,1.063,-0.156,0.084,-51.278,20.864,27.702
1747656074.08,-0.156,0.245,0.118,1.114,0.053,0.050,-50.683,20.606,27.406
1747656074.09,-0.126,0.213,0.126,1.084,0.161,0.084,-50.078,20.445,27.112
1747656074.10,-0.033,0.140,0.032,1.034,0.156,0.162,-49.490,20.370,26.890
1747656074.11,0.088,0.040,-0.019,1.060,0.039,0.222,-48.893,20.307,26.731
1747656074.12,0.142,-0.052,-0.004,1.112,-0.096,0.261,-48.264,20.195,26.603
1747656074.13,0.150,-0.100,0.011,1.156,-0.195,0.258,-47.603,20.020,26.480
1747656074.14,0.113,-0.095,0.015,1.149,-0.242,0.244,-46.933,19.793,26.347
1747656074.15,0.060,-0.058,0.019,1.136,-0.163,0.246,-46.274,19.580,26.218
1747656074.16,0.019,-0.020,0.024,1.123,-0.017,0.250,-45.617,19.442,26.100
1747656074.17,-0.020,0.007,0.025,1.061,0.120,0.248,-44.982,19.402,25.998
1747656074.18,-0.039,-0.005,0.007,1.056,0.177,0.256,-44.365,19.425,25.908
1747656074.19,-0.039,-0.064,-0.012,1.040,0.171,0.286,-43.750,19.472,25.832
1747656074.20,-0.014,-0.124,-0.004,1.075,0.172,0.332,-43.124,19.539,25.784
1747656074.21,0.051,-0.153,-0.023,1.082,0.053,0.341,-42.476,19.588,25.751
1747656074.22,0.060,-0.131,-0.037,1.098,-0.070,0.303,-41.831,19.549,25.705
1747656074.23,0.054,-0.078,-0.021,1.145,-0.113,0.258,-41.173,19.441,25.623
1747656074.24,0.031,-0.014,0.013,1.144,-0.132,0.206,-40.511,19.290,25.500
1747656074.25,-0.020,0.040,0.048,1.114,-0.106,0.173,-39.866,19.125,25.354
1747656074.26,-0.029,0.065,0.057,1.059,-0.090,0.193,-39.246,18.982,25.216
1747656074.27,0.011,0.064,0.055,1.037,-0.060,0.316,-38.635,18.893,25.139
1747656074.28,0.095,0.024,0.074,1.020,-0.067,0.470,-38.007,18.876,25.169
1747656074.29,0.162,-0.000,0.064,1.079,-0.094,0.534,-37.348,18.897,25.273
1747656074.30,0.151,0.008,0.012,1.136,-0.180,0.490,-36.653,18.875,25.365
1747656074.31,0.080,0.018,-0.057,1.118,-0.250,0.416,-35.958,18.778,25.412
1747656074.32,0.008,0.015,-0.039,1.109,-0.273,0.375,-35.284,18.634,25.422
1747656074.33,-0.060,-0.034,-0.001,1.080,-0.249,0.345,-34.625,18.481,25.418
1747656074.34,-0.127,-0.037,-0.001,1.067,-0.200,0.306,-33.986,18.340,25.398
1747656074.35,-0.150,-0.020,-0.003,1.068,-0.154,0.310,-33.353,18.223,25.367
1747656074.36,-0.118,-0.017,0.025,1.079,-0.095,0.362,-32.711,18.143,25.355
1747656074.37,-0.030,-0.018,0.060,1.089,-0.035,0.417,-32.052,18.119,25.378
1747656074.38,0.047,-0.003,0.078,1.112,-0.021,0.409,-31.382,18.126,25.414
1747656074.39,0.060,0.036,0.050,1.160,-0.086,0.369,-30.695,18.106,25.424
1747656074.40,0.022,0.070,0.030,1.194,-0.078,0.371,-29.989,18.045,25.412
1747656074.41,0.031,0.049,-0.003,1.226,0.012,0.363,-29.268,18.023,25.398
1747656074.42,0.043,0.056,-0.041,1.276,0.021,0.318,-28.527,18.017,25.358
1747656074.43,-0.010,0.091,-0.041,1.339,-0.046,0.271,-27.763,17.972,25.276
1747656074.44,-0.080,0.066,-0.017,1.267,-0.115,0.276,-27.003,17.882,25.182
1747656074.45,-0.122,0.038,-0.009,1.197,-0.142,0.342,-26.283,17.784,25.128
1747656074.46,-0.103,-0.000,0.004,1.175,-0.163,0.406,-25.574,17.696,25.126
1747656074.47,-0.034,-0.002,0.051,1.198,-0.215,0.464,-24.855,17.603,25.160
1747656074.48,0.089,0.022,0.085,1.212,-0.250,0.532,-24.111,17.499,25.230
1747656074.49,0.197,0.035,0.102,1.191,-0.293,0.546,-23.363,17.384,25.328
1747656074.50,0.225,0.060,0.067,1.221,-0.318,0.506,-22.618,17.244,25.418
1747656074.51,0.175,0.030,0.049,1.247,-0.319,0.477,-21.862,17.082,25.482
1747656074.52,0.080,-0.022,0.042,1.298,-0.120,0.487,-21.095,16.975,25.538
1747656074.53,0.003,-0.060,-0.014,1.611,-0.030,0.548,-20.216,16.957,25.581
1747656074.54,-0.092,-0.053,-0.025,1.599,0.052,0.554,-19.230,16.965,25.614
1747656074.55,-0.143,-0.015,0.079,1.402,0.148,0.557,-18.322,17.047,25.670
1747656074.56,-0.149,-0.008,0.057,1.326,0.086,0.588,-17.484,17.143,25.758
1747656074.57,-0.123,0.026,0.013,1.297,0.022,0.622,-16.665,17.207,25.872
1747656074.58,-0.042,0.097,0.004,1.260,-0.093,0.612,-15.865,17.226,25.999
1747656074.59,0.013,0.138,0.054,1.310,-0.243,0.558,-15.068,17.157,26.107
1747656074.60,0.009,0.139,0.053,1.375,-0.320,0.466,-14.248,17.008,26.163
1747656074.61,-0.020,0.083,0.012,1.391,-0.326,0.375,-13.421,16.820,26.161
1747656074.62,-0.070,-0.011,-0.000,1.419,-0.239,0.311,-12.599,16.646,26.116
1747656074.63,-0.108,-0.097,0.013,1.428,-0.143,0.271,-11.771,16.523,26.040
1747656074.64,-0.164,-0.062,0.016,1.448,-0.108,0.253,-10.943,16.434,25.948
1747656074.65,-0.233,0.062,-0.029,1.494,-0.054,0.232,-10.098,16.364,25.843
1747656074.66,-0.295,0.173,-0.075,1.500,0.046,0.188,-9.242,16.339,25.714
1747656074.67,-0.340,0.237,-0.090,1.514,0.122,0.170,-8.390,16.366,25.569
1747656074.68,-0.320,0.202,-0.084,1.560,0.132,0.114,-7.524,16.421,25.397
1747656074.69,-0.212,0.131,-0.071,1.598,0.087,0.044,-6.646,16.461,25.185
1747656074.70,-0.069,0.067,-0.056,1.603,-0.025,-0.096,-5.773,16.449,24.910
1747656074.71,0.029,-0.008,-0.040,1.616,-0.109,-0.189,-4.915,16.379,24.569
1747656074.72,0.080,-0.098,-0.006,1.605,-0.184,-0.225,-4.065,16.265,24.193
1747656074.73,0.067,-0.099,0.018,1.603,-0.259,-0.191,-3.220,16.116,23.821
1747656074.74,0.046,0.001,0.036,1.612,-0.310,-0.117,-2.360,15.933,23.480
1747656074.75,0.048,0.139,0.057,1.578,-0.266,-0.040,-1.495,15.757,23.190
1747656074.76,0.055,0.195,0.056,1.561,-0.159,0.007,-0.635,15.629,22.940
1747656074.77,0.033,0.161,0.063,1.547,-0.058,0.004,0.224,15.575,22.703
1747656074.78,0.037,0.069,0.022,1.487,-0.011,0.030,1.059,15.557,22.484
1747656074.79,0.102,-0.106,-0.060,1.511,0.004,0.023,1.887,15.562,22.268
1747656074.80,0.147,-0.291,-0.055,1.481,-0.014,-0.029,2.712,15.572,22.035
1747656074.81,0.142,-0.337,-0.031,1.391,-0.077,-0.036,3.498,15.557,21.798
1747656074.82,0.128,-0.283,-0.071,1.325,-0.110,-0.021,4.237,15.519,21.571
1747656074.83,0.109,-0.133,-0.049,1.289,-0.109,0.047,4.958,15.470,21.378
1747656074.84,0.072,0.008,0.011,1.243,-0.093,0.111,5.666,15.429,21.227
1747656074.85,0.066,0.111,0.029,1.212,-0.108,0.177,6.364,15.382,21.120
1747656074.86,0.091,0.132,0.025,1.176,-0.106,0.224,7.051,15.329,21.051
1747656074.87,0.133,0.052,0.004,1.169,-0.139,0.268,7.733,15.266,21.008
1747656074.88,0.171,-0.007,-0.035,1.153,-0.183,0.319,8.417,15.175,20.995
1747656074.89,0.179,-0.014,-0.056,1.134,-0.190,0.360,9.099,15.064,21.012
1747656074.90,0.147,-0.085,-0.056,1.071,-0.143,0.370,9.763,14.961,21.051
1747656074.91,0.092,-0.090,-0.064,1.000,-0.089,0.376,10.389,14.886,21.104
1747656074.92,0.060,-0.095,-0.047,0.916,-0.061,0.385,10.974,14.831,21.175
1747656074.93,0.071,-0.092,-0.039,0.852,-0.061,0.399,11.517,14.782,21.264
1747656074.94,0.109,-0.036,-0.047,0.828,-0.134,0.433,12.040,14.705,21.374
1747656074.95,0.124,0.088,-0.056,0.826,-0.192,0.447,12.561,14.585,21.501
1747656074.96,0.101,0.192,-0.074,0.819,-0.226,0.460,13.081,14.434,21.638
1747656074.97,0.017,0.234,-0.097,0.822,-0.176,0.441,13.600,14.282,21.776
1747656074.98,-0.083,0.159,-0.102,0.800,-0.065,0.401,14.109,14.183,21.899
1747656074.99,-0.160,0.017,-0.099,0.776,0.012,0.364,14.598,14.142,22.004
1747656075.00,-0.179,-0.087,-0.104,0.750,0.074,0.314,15.070,14.147,22.088
1747656075.01,-0.106,-0.211,-0.080,0.706,0.070,0.251,15.513,14.176,22.144
1747656075.02,-0.013,-0.184,-0.093,0.677,-0.030,0.206,15.927,14.182,22.173
1747656075.03,0.045,-0.138,-0.119,0.641,-0.175,0.192,16.321,14.117,22.191
1747656075.04,0.059,-0.051,-0.121,0.590,-0.251,0.213,16.689,13.984,22.219
1747656075.05,0.072,0.034,-0.102,0.543,-0.300,0.242,17.034,13.811,22.269
1747656075.06,0.064,0.062,-0.100,0.508,-0.297,0.280,17.361,13.614,22.564
1747656075.07,0.047,0.024,-0.095,0.464,-0.233,0.306,17.671,13.429,22.666
1747656075.08,0.030,-0.033,-0.076,0.419,-0.144,0.318,17.957,13.285,22.996
1747656075.09,0.012,-0.050,-0.046,0.374,-0.067,0.317,18.219,13.183,23.128
1747656075.10,0.005,-0.107,-0.000,0.340,0.035,0.330,18.455,13.130,23.471
1747656075.11,0.015,-0.152,0.036,0.283,0.081,0.330,18.676,13.118,23.622
1747656075.12,0.052,-0.135,0.017,0.201,0.034,0.328,18.850,13.102,24.195
1747656075.13,0.106,-0.147,-0.028,0.196,-0.043,0.360,19.004,13.043,24.370
1747656075.14,0.123,-0.097,-0.043,0.137,-0.109,0.371,19.144,12.934,24.965
1747656075.15,0.098,-0.010,-0.072,0.118,-0.135,0.371,19.261,12.797,25.167
1747656075.16,0.034,0.028,-0.101,0.115,-0.104,0.380,19.372,12.658,25.770
1747656075.17,-0.047,0.040,-0.089,0.101,-0.010,0.375,19.481,12.555,25.979
1747656075.18,-0.076,0.044,-0.076,0.092,0.055,0.361,19.580,12.501,26.563
1747656075.19,-0.059,0.019,-0.073,0.061,0.080,0.338,19.665,12.475,26.759
1747656075.20,-0.034,-0.030,-0.055,0.056,0.097,0.302,19.735,12.463,27.326
1747656075.21,-0.018,-0.045,-0.023,0.059,0.108,0.261,19.803,12.469,27.484
1747656075.22,0.010,-0.033,0.003,0.022,0.079,0.228,19.856,12.478,27.998
1747656075.23,0.051,-0.033,-0.024,0.019,0.030,0.210,19.892,12.466,28.124
1747656075.24,0.054,-0.021,-0.042,0.039,0.025,0.207,19.935,12.437,28.617
1747656075.25,0.017,0.008,-0.025,0.003,0.045,0.211,19.974,12.417,28.740
1747656075.26,0.017,0.011,-0.061,-0.037,0.080,0.227,19.990,12.409,29.228
1747656075.27,0.044,-0.005,-0.080,-0.069,0.107,0.271,19.992,12.410,29.382
1747656075.28,0.040,-0.000,-0.056,-0.115,0.117,0.309,19.975,12.411,29.921
1747656075.29,0.023,0.002,-0.048,-0.137,0.128,0.333,19.943,12.408,30.128
1747656075.30,0.022,-0.013,-0.044,-0.138,0.151,0.341,19.907,12.411,30.687
1747656075.31,0.004,-0.010,-0.027,-0.129,0.200,0.317,19.872,12.438,30.900
1747656075.32,-0.018,-0.000,-0.017,-0.147,0.199,0.300,19.835,12.485,31.438
1747656075.33,-0.025,-0.008,-0.031,-0.171,0.190,0.297,19.783,12.528,31.635
1747656075.34,-0.011,-0.004,-0.070,-0.207,0.172,0.286,19.713,12.564,32.164
1747656075.35,0.011,0.019,-0.090,-0.218,0.125,0.277,19.630,12.587,32.357
1747656075.36,0.016,0.001,-0.070,-0.249,0.119,0.313,19.536,12.587,32.897
1747656075.37,0.026,-0.030,-0.010,-0.278,0.174,0.389,19.433,12.587,33.139
1747656075.38,0.065,-0.021,0.041,-0.303,0.263,0.452,19.322,12.614,33.754
1747656075.39,0.099,-0.004,0.032,-0.335,0.330,0.508,19.205,12.675,34.080
1747656075.40,0.071,-0.010,-0.003,-0.366,0.366,0.556,19.076,12.755,34.744
1747656075.41,0.026,-0.024,-0.047,-0.386,0.402,0.595,18.939,12.848,35.135
1747656075.42,-0.006,-0.019,-0.065,-0.436,0.470,0.612,18.789,12.963,35.833
1747656075.43,0.010,-0.050,-0.026,-0.482,0.496,0.665,18.614,13.100,36.271
1747656075.44,0.045,-0.072,-0.002,-0.521,0.482,0.698,18.425,13.234,37.022
1747656075.45,0.066,-0.092,0.029,-0.562,0.443,0.719,18.214,13.341,37.510
1747656075.46,0.109,-0.153,0.075,-0.578,0.499,0.752,17.994,13.451,38.287
1747656075.47,0.108,-0.142,0.079,-0.588,0.490,0.721,17.770,13.573,38.799
1747656075.48,0.075,-0.028,0.020,-0.609,0.492,0.677,17.532,13.708,39.549
1747656075.49,0.066,0.024,-0.013,-0.688,0.551,0.684,17.267,13.860,40.033
1747656075.50,0.068,0.042,-0.024,-0.779,0.591,0.759,16.959,14.037,40.809
1747656075.51,0.082,0.019,-0.088,-0.800,0.529,0.816,16.628,14.198,41.381
1747656075.51,0.039,0.000,-0.119,-0.742,0.521,0.824,16.316,14.336,42.228
1747656075.53,0.029,-0.071,-0.048,-0.734,0.487,0.724,16.017,14.470,42.787
1747656075.53,0.021,-0.109,0.015,-0.712,0.305,0.569,15.711,14.566,43.501
1747656075.55,0.080,-0.095,0.035,-0.680,0.116,0.356,15.397,14.593,43.871
1747656075.55,0.169,-0.037,-0.000,-0.771,-0.051,0.265,15.039,14.531,44.376
1747656075.56,0.230,0.085,-0.090,-0.756,-0.174,0.447,14.661,14.381,44.684
1747656075.57,0.134,0.168,-0.184,-0.755,-0.219,0.674,14.324,14.154,45.350
1747656075.58,-0.009,0.105,-0.153,-0.794,0.084,0.793,14.000,13.986,45.881
1747656075.59,-0.050,-0.013,-0.062,-0.822,0.261,0.821,13.660,13.957,46.675
1747656075.60,-0.125,-0.047,-0.037,-0.782,0.314,0.738,13.324,13.994,47.235
1747656075.61,-0.053,-0.007,-0.023,-0.772,0.302,0.704,12.994,14.060,47.961
1747656075.62,-0.052,0.107,-0.075,-0.738,0.142,0.591,12.662,14.080,48.442
1747656075.63,-0.111,0.177,-0.132,-0.725,0.018,0.338,12.326,14.049,49.015
1747656075.64,-0.054,0.221,-0.126,-0.732,-0.072,0.192,11.955,13.980,49.259
1747656075.65,-0.018,0.134,-0.150,-0.717,-0.168,0.143,11.575,13.876,49.668
1747656075.66,-0.065,0.035,-0.126,-0.693,-0.186,0.087,11.201,13.734,49.833
1747656075.67,-0.093,-0.032,-0.077,-0.700,-0.139,0.038,10.821,13.620,50.171
1747656075.68,-0.057,-0.019,-0.062,-0.679,-0.101,0.013,10.444,13.526,50.285
1747656075.69,-0.087,0.058,-0.037,-0.702,-0.051,-0.138,10.053,13.473,50.540
1747656075.70,-0.076,0.135,-0.042,-0.702,-0.040,-0.055,9.648,13.439,50.580
1747656075.71,-0.057,0.090,-0.075,-0.655,0.022,-0.107,9.260,13.423,50.849
1747656075.72,-0.033,0.053,-0.089,-0.656,0.100,-0.157,8.881,13.457,50.853
1747656075.73,-0.029,-0.008,-0.094,-0.647,0.091,-0.146,8.497,13.515,51.068
1747656075.74,-0.062,-0.041,-0.049,-0.692,0.162,-0.330,8.101,13.585,51.199
1747656075.75,0.044,-0.039,0.013,-0.785,0.168,-0.169,7.651,13.695,51.158
1747656075.76,0.063,-0.078,-0.055,-0.793,0.060,-0.201,7.193,13.754,51.348
1747656075.77,0.066,-0.034,-0.057,-0.873,0.084,-0.197,6.700,13.796,51.341
1747656075.78,0.119,-0.005,-0.066,-0.867,0.021,-0.145,6.195,13.823,51.547
1747656075.79,0.065,0.024,-0.098,-0.941,0.024,-0.157,5.676,13.824,51.583
1747656075.80,0.042,0.007,-0.059,-1.002,0.064,-0.097,5.116,13.845,51.816
1747656075.81,0.018,-0.083,-0.055,-0.981,0.069,-0.102,4.553,13.877,51.904
1747656075.82,-0.039,-0.165,-0.008,-0.986,0.078,-0.419,3.979,13.915,52.068
1747656075.83,0.013,-0.139,-0.012,-1.073,0.174,-0.849,3.321,13.999,51.850
1747656075.84,0.109,-0.090,-0.057,-1.030,-0.016,-0.561,2.626,14.072,51.768
1747656075.85,-0.035,-0.120,-0.127,-1.034,-0.076,-0.354,2.003,14.035,51.671
1747656075.86,-0.191,-0.021,-0.091,-1.108,0.099,-0.415,1.353,14.043,51.764
1747656075.87,-0.182,0.061,-0.069,-1.142,0.190,-0.414,0.672,14.132,51.685
1747656075.88,-0.123,0.070,-0.075,-1.186,0.208,-0.285,-0.022,14.246,51.735
1747656075.89,-0.063,0.065,-0.097,-1.184,0.255,-0.179,-0.710,14.377,51.779
1747656075.90,-0.046,0.047,-0.086,-1.144,0.303,-0.184,-1.381,14.540,51.923
1747656075.91,-0.053,0.004,-0.053,-1.094,0.316,-0.219,-2.027,14.719,51.973
1747656075.92,-0.045,-0.041,-0.062,-1.107,0.351,-0.279,-2.668,14.909,51.996
1747656075.93,-0.041,-0.060,-0.035,-1.132,0.403,-0.356,-3.336,15.124,51.986
1747656075.94,-0.065,-0.064,-0.025,-1.114,0.413,-0.393,-4.010,15.356,51.946
1747656075.95,-0.083,-0.049,-0.043,-1.138,0.404,-0.372,-4.688,15.586,51.905
1747656075.96,-0.063,-0.015,-0.037,-1.150,0.403,-0.347,-5.375,15.813,51.885
1747656075.97,0.007,0.033,0.001,-1.121,0.398,-0.333,-6.052,16.042,51.876
1747656075.98,0.087,0.099,-0.025,-1.169,0.401,-0.331,-6.731,16.271,51.876
1747656075.99,0.110,0.156,-0.081,-1.144,0.331,-0.327,-7.421,16.482,51.882
1747656076.00,0.051,0.185,-0.072,-1.147,0.282,-0.335,-8.100,16.656,51.888
1747656076.01,-0.009,0.183,-0.033,-1.142,0.284,-0.400,-8.789,16.815,51.879
1747656076.02,-0.054,0.153,-0.046,-1.102,0.288,-0.482,-9.475,16.971,51.823
1747656076.03,-0.106,0.107,-0.032,-1.095,0.276,-0.539,-10.161,17.116,51.725
1747656076.04,-0.139,0.034,-0.027,-1.073,0.323,-0.544,-10.844,17.262,51.608
1747656076.05,-0.114,-0.048,-0.011,-1.077,0.449,-0.511,-11.519,17.463,51.500
