Time,AccX,AccY,AccZ,GyroX,GyroY,GyroZ,Pitch,Roll,Yaw
1747066134.37,-0.050,0.050,0.013,0.576,-0.111,-0.499,19.016,2.077,32.538
1747066134.39,-0.031,0.038,0.186,0.364,-0.700,-0.485,19.551,1.739,31.908
1747066134.41,0.130,0.013,0.399,0.034,-0.595,0.031,19.834,1.210,31.632
1747066134.43,0.025,0.014,0.333,-0.400,-0.045,0.050,19.564,0.490,31.754
1747066134.45,-0.119,0.037,0.126,-0.616,-0.441,-0.080,18.956,0.561,31.763
1747066134.47,-0.182,0.168,-0.311,-0.304,-0.864,-0.674,18.379,-0.464,31.355
1747066134.49,-0.084,0.085,-0.065,0.533,-0.218,-1.027,18.510,-0.506,30.248
1747066134.51,0.034,0.038,-0.195,1.298,-0.900,-0.445,19.591,-0.903,29.311
1747066134.53,0.164,0.046,-0.058,1.395,-0.348,-0.050,21.186,-1.514,29.074
1747066134.55,0.090,0.060,-0.060,1.070,-0.099,0.342,22.612,-1.832,29.308
1747066134.57,0.001,0.059,-0.022,0.625,0.000,0.690,23.561,-2.125,29.988
1747066134.59,-0.058,0.087,-0.019,0.124,-0.238,0.844,23.937,-2.736,30.981
1747066134.61,-0.094,0.014,0.078,-0.119,0.063,0.892,23.861,-3.266,32.056
1747066134.63,-0.123,0.086,0.063,-0.238,0.805,1.077,23.582,-3.300,33.275
1747066134.65,-0.061,0.019,-0.043,-0.301,1.529,1.342,23.220,-2.504,34.755
1747066134.67,-0.040,-0.036,-0.027,-0.488,1.786,1.583,22.719,-1.319,36.560
1747066134.69,0.023,-0.137,0.110,-0.682,2.462,1.490,22.042,0.358,38.500
1747066134.71,-0.068,-0.048,0.125,-1.041,3.572,0.899,21.099,3.215,40.176
1747066134.73,-0.037,0.110,-0.059,-1.287,3.400,0.785,19.857,6.819,41.383
1747066134.75,0.196,0.184,0.035,-1.475,4.630,0.968,18.488,10.946,42.826
1747066134.77,0.143,0.037,-0.004,-2.036,4.923,0.616,16.794,16.083,44.460
1747066134.79,-0.126,0.021,-0.108,-2.035,2.396,0.468,14.648,20.181,45.985
1747066134.81,-0.097,-0.150,0.047,0.004,-3.436,0.787,13.973,18.051,47.018
1747066134.83,0.207,0.299,0.623,-1.233,-1.353,1.898,13.822,15.346,48.850
1747066134.85,-0.063,0.188,0.620,-2.603,-0.831,2.090,12.303,13.261,51.904
1747066134.87,-0.359,0.354,0.555,-3.488,-0.048,1.255,9.258,12.261,54.679
1747066134.89,-0.281,0.309,0.401,-3.853,0.378,0.862,5.362,12.282,56.857
1747066134.91,-0.222,0.342,0.230,-3.570,0.090,0.801,1.384,12.476,58.794
1747066134.93,-0.280,0.386,0.218,-3.405,-0.090,0.737,-2.257,12.433,60.632
1747066134.95,-0.293,0.355,0.234,-3.634,0.742,0.156,-6.051,12.797,62.120
1747066134.97,-0.265,0.368,0.153,-3.693,1.750,-0.454,-10.193,14.394,63.001
1747066134.98,-0.107,0.374,-0.014,-3.426,1.912,-0.569,-14.329,16.639,63.560
1747066135.00,0.039,0.370,-0.087,-2.794,1.747,-0.299,-17.842,18.963,64.272
1747066135.02,-0.047,0.403,0.010,-2.798,1.668,-0.386,-20.900,21.104,65.074
1747066135.04,0.013,0.356,0.105,-3.182,1.973,-0.656,-24.281,23.463,65.930
1747066135.06,0.114,0.374,-0.012,-3.377,2.566,-0.859,-28.089,26.426,66.801
1747066135.08,0.384,0.353,-0.248,-3.036,3.031,-0.677,-31.787,30.227,67.908
1747066135.10,0.438,0.274,-0.350,-2.568,2.887,-0.430,-34.802,34.413,69.285
1747066135.12,0.362,0.231,-0.279,-2.458,2.712,-0.436,-37.346,38.562,70.856
1747066135.14,0.329,0.129,-0.305,-2.417,2.632,-0.467,-39.898,42.856,72.586
1747066135.16,0.526,0.197,-0.387,-2.067,2.373,-0.099,-41.956,47.004,74.560
1747066135.18,0.616,0.114,-0.321,-1.959,2.049,0.346,-43.323,51.180,76.904
1747066135.20,0.692,0.025,-0.322,-2.029,2.371,0.781,-44.166,55.809,79.908
1747066135.22,0.606,0.006,-0.455,-1.685,3.114,0.966,-44.423,61.220,83.086
1747066135.24,0.337,0.125,-0.454,-1.394,3.116,0.611,-44.374,66.706,85.721
1747066135.26,0.742,-0.275,-0.183,-1.770,3.196,1.558,-43.873,72.396,88.467
1747066135.28,0.427,-0.187,-0.346,-1.696,2.174,1.789,-42.499,77.843,91.799
1747066135.30,0.184,-0.293,-0.337,-1.392,1.730,1.584,-40.875,81.790,94.410
1747066135.32,-0.002,-0.372,-0.229,-1.623,1.437,1.215,-39.488,85.208,96.798
1747066135.34,0.033,-0.425,-0.304,-1.430,1.033,1.130,-38.289,88.132,99.135
1747066135.36,-0.050,-0.436,-0.363,-0.938,0.861,0.933,-37.091,90.226,100.777
1747066135.38,-0.329,-0.380,-0.364,-0.418,0.698,0.229,-36.398,91.692,101.726
1747066135.40,-0.304,-0.432,-0.484,0.333,0.546,-0.049,-36.321,92.458,101.721
1747066135.42,-0.269,-0.339,-0.556,1.034,0.242,-0.424,-36.583,92.316,100.683
1747066135.44,-0.286,-0.383,-0.328,1.114,0.368,-0.904,-37.418,91.713,99.014
1747066135.46,-0.264,-0.258,-0.140,0.716,0.048,-1.290,-38.692,91.151,97.640
1747066135.48,-0.157,-0.113,-0.082,0.692,-0.511,-1.575,-40.328,90.209,96.509
1747066135.50,-0.146,-0.113,0.052,0.610,-0.906,-2.076,-42.382,88.701,95.368
1747066135.52,-0.204,0.003,0.074,0.562,-1.255,-2.467,-45.004,86.716,94.121
1747066135.54,0.031,0.110,0.061,0.287,-1.958,-2.224,-47.683,84.135,92.956
1747066135.56,0.175,0.167,0.043,0.144,-2.208,-2.110,-50.087,81.095,91.956
1747066135.58,0.171,0.208,0.075,0.063,-2.834,-1.991,-52.383,77.585,90.904
1747066135.60,0.029,0.285,0.011,0.208,-2.988,-1.771,-54.450,73.207,89.464
1747066135.62,0.173,0.333,-0.134,0.233,-1.743,-1.678,-56.154,69.155,87.714
1747066135.64,0.137,-0.249,0.253,0.013,-0.249,-0.941,-57.417,67.307,86.267
1747066135.66,0.122,0.026,-0.142,-0.719,-0.483,-0.859,-58.547,66.712,86.098
1747066135.68,0.065,-0.091,0.032,-0.828,0.132,-0.237,-59.523,67.571,87.135
1747066135.70,-0.032,-0.074,-0.037,-0.749,0.234,0.303,-59.769,69.243,88.670
1747066135.72,-0.089,-0.088,-0.049,-0.965,0.110,0.230,-59.724,71.266,90.601
1747066135.74,-0.126,-0.066,-0.032,-1.407,-0.094,-0.288,-60.173,73.425,92.977
1747066135.76,-0.164,-0.123,0.066,-1.932,-0.131,-0.994,-61.336,76.262,96.243
1747066135.78,-0.155,-0.207,0.101,-1.967,-0.296,-1.913,-63.447,79.785,100.255
1747066135.80,-0.170,-0.259,-0.069,-1.242,-1.099,-2.510,-66.281,82.193,103.578
1747066135.82,-0.201,-0.324,-0.124,-0.785,-1.120,-2.608,-69.356,82.361,105.152
1747066135.84,-0.135,-0.180,0.065,-0.993,-0.629,-2.673,-72.433,83.179,107.003
1747066135.86,0.119,0.929,0.266,-1.484,0.311,-2.536,-75.539,87.181,111.306
1747066135.88,0.123,1.764,0.158,-1.365,-0.339,-1.825,-78.131,95.145,119.233
1747066135.90,0.132,0.998,-0.261,0.155,-1.782,-0.006,-79.016,98.100,123.639
1747066135.92,-0.036,0.029,-0.060,1.271,-0.833,0.452,-78.711,91.529,118.679
1747066135.94,-0.129,-0.363,0.092,0.876,0.458,-0.200,-78.399,84.589,111.534
1747066135.96,0.103,-0.440,-0.095,-0.414,-0.132,-0.529,-78.926,83.439,110.203
1747066135.98,0.135,-0.055,0.047,-0.896,-0.535,-0.348,-79.466,87.148,114.343
1747066136.00,0.062,0.152,0.064,-0.627,-0.575,-0.280,-79.818,91.492,119.457
1747066136.02,0.014,0.051,0.040,-0.133,-0.587,-0.329,-80.141,93.317,121.957
1747066136.04,-0.053,0.006,0.012,0.059,-0.699,-0.425,-80.564,92.768,122.148
1747066136.06,-0.034,-0.020,-0.009,0.017,-0.655,-0.621,-81.148,91.768,121.922
1747066136.08,0.133,-0.033,-0.067,-0.127,-0.665,-1.046,-82.091,91.610,122.514
1747066136.10,0.150,0.022,-0.065,-0.243,-0.829,-1.086,-83.354,92.872,124.639
1747066136.12,0.068,0.046,-0.008,-0.220,-0.873,-0.910,-84.455,95.219,127.978
1747066136.14,0.049,0.010,-0.014,-0.194,-1.019,-0.714,-85.399,97.921,131.762
1747066136.16,-0.047,-0.393,-0.069,-0.956,-1.630,-0.198,-85.677,106.194,141.620
1747066136.18,-0.160,-0.095,-0.058,-0.972,-2.123,-0.313,-85.491,118.811,156.375
1747066136.20,-0.118,0.034,-0.055,-0.830,-2.082,-0.502,-85.298,130.531,170.669
1747066136.22,-0.078,-0.004,0.099,-0.470,-0.907,-0.418,-85.141,139.708,-178.377
1747066136.24,-0.027,0.022,0.093,-0.043,-0.447,-0.337,-85.193,145.160,-172.247
1747066136.26,-0.015,0.074,0.034,0.168,-0.728,-0.054,-85.388,145.944,-170.781
1747066136.28,-0.059,0.154,0.064,0.002,-0.328,0.124,-85.471,143.978,-172.045
1747066136.30,-0.193,0.103,0.004,0.058,0.335,0.130,-85.364,142.581,-173.493
1747066136.32,-0.131,0.019,-0.121,0.705,0.378,0.117,-85.579,138.401,-178.141
1747066136.34,0.142,0.125,-0.120,0.984,-0.485,0.231,-86.151,126.125,169.611
1747066136.36,0.156,0.154,0.044,0.632,-0.302,-0.110,-86.454,111.565,155.618
1747066136.38,0.109,0.089,0.069,0.773,0.781,-0.695,-87.148,101.309,145.069
1747066136.40,0.046,0.075,-0.019,1.089,1.411,-0.945,-88.092,76.510,118.952
1747066136.42,-0.003,0.029,-0.033,1.391,1.535,-1.188,-88.044,18.690,59.378
1747066136.44,-0.153,-0.095,-0.008,1.093,1.315,-0.419,-86.645,-4.961,34.029
1747066136.46,-0.310,-0.304,-0.011,0.375,0.670,-0.042,-85.826,-4.882,33.010
1747066136.48,-0.211,-0.199,0.140,0.295,0.983,-0.341,-85.482,-6.621,30.398
1747066136.50,-0.038,-0.088,0.134,0.526,1.716,-0.372,-84.948,-9.275,26.186
1747066136.52,0.102,0.025,0.005,0.157,1.054,-0.371,-84.417,-11.142,22.548
1747066136.54,0.058,0.123,-0.030,-0.474,-0.309,-0.268,-84.522,-15.100,18.158
1747066136.56,-0.027,0.071,0.084,-0.547,-0.856,-0.072,-85.071,-20.109,13.933
1747066136.58,0.024,-0.062,0.140,-0.113,-0.700,0.090,-85.457,-22.542,12.407
1747066136.60,0.140,-0.080,0.056,0.294,-0.100,0.055,-85.368,-21.206,14.254
1747066136.62,0.186,0.004,-0.003,0.219,0.644,-0.147,-85.045,-19.970,15.117
1747066136.64,0.217,0.047,-0.124,0.088,0.468,-0.135,-84.827,-20.773,13.594
1747066136.66,0.143,0.068,-0.144,0.063,-0.056,0.022,-84.731,-20.689,13.446
1747066136.68,0.002,0.033,-0.088,0.017,-0.295,0.020,-84.701,-20.445,13.931
1747066136.70,-0.094,0.008,-0.002,-0.046,-0.074,-0.025,-84.713,-20.781,13.844
1747066136.72,-0.108,-0.020,0.055,-0.060,0.462,-0.099,-84.754,-21.468,12.934
1747066136.74,-0.018,-0.016,0.042,-0.022,0.697,-0.182,-84.735,-22.643,11.046
1747066136.76,0.092,0.017,-0.025,-0.059,0.559,-0.226,-84.677,-24.364,8.577
1747066136.78,0.146,0.031,-0.063,-0.110,0.430,-0.264,-84.650,-27.083,5.297
1747066136.80,0.174,-0.003,-0.047,-0.045,0.415,-0.184,-84.612,-29.531,2.358
1747066136.82,0.191,-0.006,-0.046,0.065,0.318,-0.141,-84.510,-30.639,0.810
1747066136.84,0.223,0.007,-0.023,0.131,0.290,-0.090,-84.340,-30.979,0.134
1747066136.86,0.244,0.037,-0.009,0.239,0.250,0.014,-84.140,-29.892,0.890
1747066136.88,0.192,0.069,-0.012,0.352,0.037,0.035,-83.855,-27.948,2.681
1747066136.90,0.085,0.050,0.017,0.531,-0.038,0.077,-83.446,-25.410,5.256
1747066136.92,-0.048,0.025,0.013,0.748,0.043,0.017,-82.799,-22.462,8.224
1747066136.94,-0.153,-0.002,-0.033,0.891,0.093,-0.090,-81.907,-20.105,10.517
1747066136.96,-0.203,0.021,-0.123,0.989,0.047,-0.199,-80.834,-18.736,11.832
1747066136.98,-0.200,0.049,-0.109,1.013,0.383,-0.227,-79.657,-17.821,12.561
1747066137.00,-0.188,0.100,-0.045,0.945,0.969,-0.172,-78.524,-16.471,13.133
1747066137.02,-0.202,0.115,-0.030,0.789,1.350,-0.157,-77.512,-14.672,13.596
1747066137.04,-0.194,0.106,-0.052,0.685,1.431,-0.177,-76.657,-13.014,13.636
1747066137.06,-0.169,0.033,-0.023,0.596,1.015,-0.183,-75.898,-11.718,13.492
1747066137.08,-0.085,-0.028,0.045,0.436,0.580,-0.249,-75.254,-11.347,12.964
1747066137.10,0.010,-0.107,0.162,0.257,0.603,-0.174,-74.828,-11.359,12.275
1747066137.12,0.027,-0.156,0.286,0.190,0.737,-0.083,-74.551,-10.898,11.957
1747066137.14,0.019,-0.168,0.337,-0.019,0.618,-0.068,-74.432,-10.347,11.704
1747066137.16,0.027,-0.161,0.222,-0.306,0.153,-0.042,-74.591,-10.221,11.349
1747066137.18,0.013,-0.165,0.087,-0.623,-0.459,-0.008,-75.121,-10.877,10.863
1747066137.20,-0.028,-0.154,0.018,-0.648,-0.730,0.040,-75.862,-12.109,10.332
1747066137.22,-0.079,-0.143,-0.012,-0.540,-0.719,0.089,-76.533,-13.245,10.020
1747066137.24,-0.090,-0.122,-0.025,-0.656,-0.591,0.169,-77.209,-14.091,9.942
1747066137.26,-0.101,-0.075,-0.027,-0.712,-0.460,0.269,-78.055,-14.455,10.157
1747066137.28,-0.134,0.054,-0.205,-0.506,-0.718,0.297,-78.820,-14.359,10.914
1747066137.30,-0.170,0.246,-0.423,-0.301,-0.938,0.198,-79.339,-14.449,11.820
1747066137.32,-0.242,0.342,-0.419,-0.102,-0.307,0.015,-79.569,-14.896,12.176
1747066137.34,-0.280,0.118,-0.129,-0.166,0.791,-0.008,-79.716,-14.913,11.864
1747066137.36,-0.157,-0.134,0.047,-0.155,1.236,0.075,-79.905,-13.694,11.840
1747066137.38,0.001,-0.220,0.076,-0.274,0.934,0.073,-80.138,-12.125,12.129
1747066137.40,0.131,-0.173,0.088,-0.561,0.492,-0.066,-80.620,-11.872,11.568
1747066137.42,0.259,-0.031,0.039,-0.472,-0.095,-0.011,-81.214,-12.890,10.277
1747066137.44,0.324,0.133,-0.122,-0.193,-0.523,0.146,-81.608,-13.311,10.266
1747066137.46,0.236,0.187,-0.107,0.010,-0.410,0.151,-81.728,-12.820,11.314
1747066137.48,-0.008,0.040,-0.036,-0.063,-0.470,0.184,-81.773,-12.077,12.567
1747066137.50,-0.218,-0.089,-0.003,-0.235,-0.276,0.085,-81.983,-11.565,13.563
1747066137.52,-0.179,-0.076,0.042,-0.170,0.315,-0.099,-82.229,-12.104,12.994
1747066137.54,0.043,-0.000,0.060,-0.065,0.478,-0.102,-82.326,-12.679,11.898
1747066137.56,0.211,0.079,0.006,-0.046,0.141,-0.113,-82.356,-13.266,10.926
1747066137.58,0.284,0.071,-0.001,-0.052,-0.249,-0.070,-82.386,-14.303,9.960
1747066137.60,0.260,0.021,0.050,-0.036,-0.346,0.094,-82.433,-14.656,9.976
1747066137.62,0.076,0.019,0.048,-0.040,-0.379,0.107,-82.513,-14.195,10.852
1747066137.64,-0.085,0.010,0.009,-0.037,-0.295,0.016,-82.570,-14.146,11.321
1747066137.66,-0.127,0.007,0.020,-0.014,0.069,-0.091,-82.594,-14.693,10.914
1747066137.68,-0.083,0.019,0.014,-0.012,0.445,-0.151,-82.564,-15.460,9.827
1747066137.70,-0.007,0.003,0.003,-0.050,0.523,-0.182,-82.541,-16.369,8.328
1747066137.72,0.062,-0.001,-0.007,-0.082,0.455,-0.173,-82.554,-17.491,6.627
1747066137.74,0.133,0.027,-0.008,-0.119,0.300,-0.114,-82.613,-18.564,5.116
1747066137.76,0.178,0.025,0.029,-0.059,0.257,-0.010,-82.696,-19.112,4.249
1747066137.78,0.143,-0.001,0.036,0.081,0.126,0.031,-82.697,-18.679,4.448
1747066137.80,0.058,0.013,-0.030,0.276,-0.080,-0.021,-82.508,-18.117,4.996
1747066137.82,-0.012,0.054,-0.080,0.438,-0.110,-0.080,-82.097,-17.723,5.523
1747066137.84,-0.057,0.099,-0.079,0.568,0.021,-0.056,-81.524,-17.157,6.154
1747066137.85,-0.085,0.119,-0.079,0.757,0.268,0.033,-80.798,-15.735,7.437
1747066137.87,-0.101,0.072,-0.066,0.864,0.638,0.019,-79.907,-13.598,9.069
1747066137.90,-0.130,0.015,-0.156,1.015,0.696,-0.071,-78.854,-11.707,10.224
1747066137.92,-0.154,-0.036,-0.087,1.034,1.053,-0.085,-77.670,-10.090,10.841
1747066137.93,-0.207,-0.139,-0.245,0.745,0.970,-0.076,-76.583,-8.540,11.242
1747066137.95,-0.208,-0.191,0.054,-0.012,1.312,0.027,-76.208,-7.126,11.381
1747066137.97,-0.195,-0.192,0.417,-0.252,1.338,-0.063,-76.381,-5.651,11.258
1747066137.99,-0.108,-0.226,0.504,-0.285,0.858,-0.270,-76.684,-5.268,10.334
1747066138.01,0.055,-0.186,0.354,-0.549,-0.244,-0.408,-77.071,-6.752,8.388
1747066138.03,0.246,-0.098,-0.090,-0.759,-1.284,-0.343,-77.808,-10.251,5.806
1747066138.05,0.346,0.083,-0.291,-0.502,-0.983,-0.109,-78.474,-13.603,3.785
1747066138.07,0.218,0.219,-0.210,-0.134,-0.707,0.127,-78.839,-14.808,3.441
1747066138.09,-0.109,0.235,-0.296,0.158,-1.209,0.117,-78.835,-15.044,4.341
1747066138.11,-0.302,0.167,-0.229,0.011,-0.594,-0.004,-78.732,-15.772,4.775
1747066138.13,-0.330,-0.011,-0.005,-0.108,0.530,0.022,-78.805,-15.872,4.657
1747066138.15,-0.279,-0.144,-0.052,-0.040,0.988,0.018,-78.893,-14.940,4.712
1747066138.17,-0.074,-0.133,0.009,-0.161,1.220,0.020,-79.004,-13.663,4.679
1747066138.19,0.142,-0.005,-0.006,-0.108,0.947,-0.073,-79.168,-12.715,4.348
1747066138.21,0.309,0.075,0.032,0.116,0.154,-0.154,-79.146,-12.771,3.622
1747066138.23,0.331,0.028,0.062,0.260,-0.375,-0.060,-78.891,-13.370,3.196
1747066138.25,0.198,-0.003,0.026,0.367,-0.430,0.041,-78.546,-13.444,3.614
1747066138.27,-0.012,-0.016,-0.004,0.366,-0.456,0.075,-78.130,-13.126,4.452
1747066138.29,-0.188,0.003,0.009,0.192,-0.303,0.040,-77.836,-12.928,5.136
1747066138.31,-0.228,0.013,0.056,0.189,0.132,-0.030,-77.647,-12.782,5.379
1747066138.33,-0.168,0.034,0.047,0.273,0.559,-0.083,-77.368,-12.451,5.313
1747066138.35,-0.055,0.030,0.073,0.383,0.855,-0.075,-76.981,-11.685,5.253
1747066138.37,0.001,0.010,0.074,0.352,0.729,-0.056,-76.542,-10.675,5.310
1747066138.39,0.036,-0.017,0.026,0.279,0.646,-0.062,-76.180,-9.936,5.295
1747066138.41,0.080,-0.023,0.095,0.345,0.576,-0.045,-75.845,-9.247,5.259
1747066138.43,0.061,0.012,0.042,0.598,0.458,-0.080,-75.306,-8.612,5.322
1747066138.45,-0.006,0.062,0.002,0.653,0.244,-0.137,-74.572,-8.237,5.250
1747066138.47,-0.093,0.050,-0.071,0.594,0.038,-0.155,-73.821,-8.363,5.014
1747066138.49,-0.125,-0.041,0.065,0.374,0.337,-0.131,-73.261,-8.457,4.723
1747066138.51,-0.077,-0.069,0.052,0.519,0.712,-0.109,-72.765,-8.062,4.486
1747066138.53,-0.037,0.008,0.017,0.735,0.763,-0.108,-72.024,-7.250,4.425
1747066138.55,-0.046,0.062,-0.049,0.816,0.514,-0.168,-71.107,-6.644,4.263
1747066138.57,-0.075,-0.001,-0.049,0.607,0.532,-0.178,-70.271,-6.416,3.936
1747066138.59,-0.035,-0.067,0.029,0.375,0.821,-0.119,-69.687,-5.948,3.631
1747066138.61,0.082,-0.050,0.092,0.322,1.001,-0.067,-69.321,-5.042,3.427
1747066138.63,0.189,0.048,0.050,0.513,0.737,-0.061,-68.845,-4.135,3.330
1747066138.65,0.191,0.082,0.047,0.609,0.454,0.004,-68.190,-3.414,3.351
1747066138.67,0.105,-0.011,-0.134,0.517,0.033,0.075,-67.519,-2.955,3.560
1747066138.69,0.010,-0.080,-0.079,0.381,0.001,0.109,-67.038,-2.645,3.908
1747066138.71,-0.008,-0.039,-0.009,0.376,0.253,0.117,-66.628,-2.160,4.274
1747066138.73,-0.013,-0.017,-0.026,0.565,0.181,0.135,-66.091,-1.506,4.700
1747066138.75,-0.034,0.002,0.002,0.613,0.273,0.078,-65.415,-0.952,5.039
1747066138.77,-0.073,-0.008,-0.053,0.526,0.274,0.054,-64.747,-0.477,5.220
1747066138.79,-0.040,-0.037,0.004,0.448,0.345,0.076,-64.208,0.035,5.404
1747066138.81,-0.014,-0.045,-0.014,0.526,0.421,0.020,-63.648,0.582,5.526
1747066138.83,-0.003,0.001,-0.011,0.664,0.307,-0.001,-62.982,1.025,5.539
1747066138.85,-0.011,0.071,0.012,0.705,0.220,-0.055,-62.197,1.250,5.435
1747066138.87,-0.044,0.053,-0.086,0.634,0.051,-0.046,-61.392,1.208,5.249
1747066138.89,0.011,-0.006,0.028,0.468,0.345,0.055,-60.796,1.401,5.221
1747066138.91,0.083,-0.017,0.033,0.524,0.290,0.130,-60.228,1.973,5.420
1747066138.93,0.098,0.005,0.035,0.652,0.124,0.141,-59.557,2.447,5.684
1747066138.95,0.064,0.009,-0.017,0.636,-0.026,0.139,-58.781,2.711,5.918
1747066138.97,0.012,-0.023,-0.037,0.433,0.118,0.155,-58.181,2.965,6.188
1747066138.99,0.031,-0.061,-0.033,0.348,0.158,0.248,-57.728,3.458,6.562
1747066139.01,0.039,-0.056,0.000,0.516,0.069,0.276,-57.242,4.037,7.090
1747066139.03,-0.015,-0.020,-0.021,0.683,-0.076,0.177,-56.513,4.358,7.481
1747066139.05,-0.089,0.001,-0.011,0.668,-0.005,0.086,-55.734,4.432,7.636
1747066139.07,-0.130,-0.025,-0.039,0.517,0.044,0.098,-55.033,4.495,7.706
1747066139.09,-0.088,-0.037,-0.015,0.495,0.159,0.149,-54.456,4.761,7.871
1747066139.11,-0.041,-0.005,-0.007,0.509,0.235,0.131,-53.872,5.144,8.068
1747066139.13,-0.008,0.046,0.001,0.574,0.209,0.104,-53.248,5.510,8.202
1747066139.15,-0.008,0.076,0.034,0.682,0.044,0.065,-52.519,5.699,8.238
1747066139.17,-0.002,0.003,-0.009,0.649,0.045,0.143,-51.746,5.776,8.301
1747066139.19,0.024,-0.036,-0.006,0.625,0.123,0.180,-51.012,6.035,8.487
1747066139.21,-0.010,-0.044,-0.020,0.814,-0.023,0.101,-50.191,6.188,8.614
1747066139.23,-0.066,-0.050,-0.028,0.855,-0.020,-0.003,-49.213,6.074,8.537
1747066139.25,-0.036,-0.043,0.039,0.748,-0.057,0.003,-48.312,5.932,8.375
1747066139.27,0.016,0.000,0.045,0.714,-0.079,0.109,-47.480,5.839,8.339
1747066139.29,0.006,0.040,-0.006,0.712,-0.200,0.175,-46.653,5.762,8.474
1747066139.31,-0.065,0.045,-0.048,0.759,-0.240,0.074,-45.806,5.597,8.571
1747066139.33,-0.143,0.047,-0.030,0.930,-0.342,-0.142,-44.844,5.136,8.393
1747066139.35,-0.165,0.040,0.006,0.927,-0.205,-0.219,-43.792,4.468,7.953
1747066139.37,-0.100,-0.028,-0.002,0.823,0.104,-0.121,-42.804,4.157,7.575
1747066139.39,0.010,-0.027,0.027,0.791,0.222,-0.019,-41.899,4.227,7.379
1747066139.41,0.115,-0.048,0.050,0.764,0.182,0.059,-41.016,4.434,7.322
1747066139.43,0.214,-0.081,0.021,0.816,0.134,0.112,-40.113,4.620,7.365
1747066139.45,0.195,-0.074,0.020,0.784,0.169,0.164,-39.184,4.867,7.456
1747066139.47,0.134,-0.098,0.044,0.775,0.319,0.198,-38.286,5.253,7.628
1747066139.49,0.054,-0.096,0.033,0.775,0.375,0.247,-37.379,5.792,7.839
1747066139.51,0.030,-0.030,-0.005,0.783,0.322,0.252,-36.467,6.329,8.085
1747066139.53,0.083,0.012,0.049,0.833,0.192,0.320,-35.524,6.801,8.351
1747066139.55,0.057,0.008,-0.021,0.858,0.148,0.315,-34.511,7.152,8.660
1747066139.57,-0.033,-0.025,-0.034,0.765,0.220,0.315,-33.540,7.520,8.943
1747066139.59,-0.047,-0.043,-0.031,0.751,0.198,0.281,-32.651,7.911,9.222
1747066139.61,-0.033,0.023,0.014,0.816,0.085,0.200,-31.734,8.169,9.395
1747066139.63,-0.029,0.018,0.047,0.904,0.030,0.178,-30.729,8.274,9.478
1747066139.65,-0.063,0.015,-0.021,0.872,0.075,0.156,-29.686,8.328,9.524
1747066139.67,-0.059,0.064,-0.020,0.822,0.122,0.134,-28.706,8.472,9.554
1747066139.69,-0.081,0.101,0.022,0.763,0.153,0.135,-27.797,8.641,9.562
1747066139.71,-0.081,0.060,0.014,0.809,0.144,0.124,-26.900,8.815,9.574
1747066139.73,-0.039,0.021,-0.016,0.849,0.086,0.054,-25.937,8.913,9.534
1747066139.75,0.020,0.033,0.018,0.899,-0.011,-0.056,-24.957,8.898,9.361
1747066139.77,0.034,0.002,0.013,0.947,-0.068,-0.047,-23.908,8.711,9.111
1747066139.79,-0.024,-0.028,-0.020,0.844,0.058,0.001,-22.899,8.616,8.906
1747066139.81,-0.048,-0.033,0.006,0.792,0.154,0.026,-21.982,8.688,8.791
1747066139.83,-0.030,-0.037,0.026,0.808,0.205,0.025,-21.069,8.867,8.669
1747066139.85,0.032,-0.024,0.049,0.863,0.173,0.036,-20.127,9.051,8.548
1747066139.87,0.111,-0.027,0.053,0.966,0.040,0.054,-19.084,9.136,8.424
1747066139.89,0.110,-0.100,0.017,1.002,0.046,0.116,-17.952,9.147,8.333
1747066139.91,0.070,-0.039,0.053,0.994,0.194,0.232,-16.804,9.290,8.343
1747066139.93,-0.013,0.020,0.150,0.976,0.324,0.335,-15.636,9.616,8.498
1747066139.95,-0.003,-0.069,0.055,0.959,0.466,0.389,-14.469,10.134,8.723
1747066139.97,0.016,-0.004,0.006,0.866,0.352,0.431,-13.359,10.682,8.998
1747066139.99,-0.004,-0.074,-0.034,0.884,0.307,0.343,-12.314,11.123,9.288
1747066140.01,0.074,-0.047,-0.006,0.995,0.292,0.356,-11.186,11.499,9.443
1747066140.03,-0.070,0.044,0.090,1.014,0.420,0.408,-9.971,11.904,9.654
1747066140.05,-0.197,0.124,0.074,1.039,0.641,0.452,-8.700,12.584,9.880
1747066140.07,-0.153,-0.022,0.052,1.019,0.644,0.445,-7.459,13.383,10.133
1747066140.09,-0.019,-0.050,-0.017,1.034,0.482,0.363,-6.195,14.077,10.304
1747066140.11,0.061,-0.053,-0.087,1.116,0.269,0.281,-4.937,14.464,10.363
1747066140.13,-0.025,0.047,0.025,1.168,0.144,0.249,-3.572,14.704,10.309
1747066140.15,-0.025,-0.018,-0.069,1.180,0.236,0.315,-2.215,14.892,10.285
1747066140.17,-0.127,0.097,-0.022,1.232,0.365,0.260,-0.782,15.236,10.268
1747066140.19,-0.111,0.026,0.028,1.296,0.346,0.118,0.670,15.658,10.114
1747066140.21,0.099,-0.119,0.049,1.306,0.271,0.056,2.104,16.039,9.769
1747066140.23,0.182,-0.001,-0.063,1.334,-0.103,0.214,3.591,16.105,9.481
1747066140.25,-0.037,0.099,-0.072,1.306,0.175,0.293,5.137,16.105,9.401
1747066140.27,-0.310,0.170,0.034,1.336,0.544,0.253,6.660,16.550,9.260
1747066140.29,-0.172,0.013,0.027,1.345,0.628,0.049,8.171,17.293,8.994
1747066140.31,0.147,-0.060,-0.036,1.413,0.389,-0.106,9.642,17.970,8.467
1747066140.33,0.190,-0.041,-0.091,1.421,0.106,-0.102,11.157,18.362,7.800
1747066140.35,0.042,-0.072,-0.060,1.308,0.070,0.027,12.614,18.550,7.261
1747066140.37,-0.068,0.035,-0.052,1.275,0.209,0.011,14.023,18.812,6.807
1747066140.39,-0.078,-0.028,-0.024,1.268,0.270,-0.123,15.379,19.254,6.255
1747066140.41,0.187,-0.108,-0.081,1.172,0.210,-0.096,16.636,19.692,5.619
1747066140.43,0.215,-0.120,-0.135,1.058,0.260,0.042,17.824,20.080,5.137
1747066140.45,0.043,-0.085,-0.074,0.947,0.403,0.109,18.926,20.558,4.829
1747066140.47,-0.011,0.024,-0.087,0.934,0.416,0.096,19.973,21.132,4.548
1747066140.49,0.080,0.004,-0.120,0.878,0.296,0.068,20.963,21.647,4.223
1747066140.51,0.081,-0.028,-0.098,0.824,0.219,0.070,21.910,22.052,3.912
1747066140.53,0.064,-0.110,-0.094,0.657,0.236,0.116,22.728,22.385,3.676
1747066140.55,0.017,-0.102,-0.142,0.560,0.251,0.127,23.419,22.718,3.529
1747066140.57,-0.010,-0.045,-0.073,0.469,0.230,0.072,24.009,23.063,3.394
1747066140.59,0.023,-0.031,-0.076,0.352,0.198,0.062,24.475,23.364,3.256
1747066140.61,0.030,-0.078,-0.124,0.252,0.121,0.113,24.817,23.564,3.206
1747066140.63,0.077,-0.050,-0.115,0.187,0.126,0.177,25.114,23.669,3.266
1747066140.65,-0.004,-0.054,-0.062,0.119,0.181,0.190,25.363,23.780,3.411
1747066140.67,-0.041,-0.036,-0.049,0.078,0.190,0.147,25.543,23.937,3.551
1747066140.69,0.031,-0.020,-0.058,0.046,0.140,0.151,25.674,24.075,3.687
1747066140.71,0.017,-0.005,-0.077,0.033,0.100,0.143,25.783,24.144,3.844
1747066140.72,-0.038,0.002,-0.079,0.019,0.101,0.125,25.873,24.191,3.983
1747066140.75,-0.020,-0.013,-0.036,0.006,0.096,0.098,25.936,24.254,4.106
1747066140.77,0.016,-0.003,0.012,0.013,0.053,0.068,25.988,24.302,4.198
1747066140.78,-0.011,0.009,-0.020,0.031,0.019,0.044,26.031,24.316,4.250
1747066140.80,-0.018,0.024,-0.063,0.047,0.013,0.043,26.093,24.315,4.279
1747066140.82,-0.029,0.017,-0.037,0.052,0.021,0.048,26.166,24.315,4.309
1747066140.84,-0.038,0.032,-0.014,0.060,0.044,0.027,26.242,24.351,4.326
1747066140.86,-0.034,0.038,-0.001,0.092,0.032,-0.006,26.321,24.408,4.300
1747066140.88,-0.001,0.010,-0.018,0.118,-0.016,-0.010,26.405,24.430,4.241
1747066140.90,-0.022,0.008,-0.002,0.125,-0.004,-0.003,26.509,24.419,4.180
1747066140.92,-0.037,0.019,-0.031,0.143,0.017,-0.011,26.621,24.433,4.119
1747066140.94,-0.014,0.003,-0.013,0.153,-0.014,-0.024,26.742,24.460,4.029
1747066140.96,0.025,-0.008,0.005,0.158,-0.014,-0.008,26.878,24.467,3.933
1747066140.98,0.007,-0.028,0.018,0.146,0.007,0.002,27.023,24.491,3.859
1747066141.00,-0.001,-0.007,-0.007,0.168,0.008,-0.002,27.172,24.510,3.788
1747066141.02,0.016,-0.021,-0.022,0.170,-0.022,0.005,27.337,24.523,3.707
1747066141.04,0.002,-0.047,0.010,0.131,-0.002,0.012,27.496,24.548,3.633
1747066141.06,-0.007,-0.046,-0.009,0.108,0.033,0.020,27.630,24.598,3.585
1747066141.08,0.013,-0.037,-0.028,0.101,0.042,0.029,27.753,24.647,3.558
1747066141.10,0.009,-0.042,0.022,0.074,0.046,0.016,27.853,24.709,3.539
1747066141.12,0.006,-0.030,-0.015,0.059,0.050,0.014,27.938,24.772,3.519
1747066141.14,-0.001,-0.039,-0.008,0.019,0.042,0.027,27.993,24.816,3.526
1747066141.16,0.000,-0.028,-0.038,0.011,-0.011,0.012,28.022,24.836,3.544
1747066141.18,0.015,-0.037,-0.020,-0.010,-0.030,0.016,28.038,24.806,3.555
1747066141.20,-0.019,-0.035,0.019,-0.106,-0.118,0.003,27.985,24.701,3.600
1747066141.22,0.048,-0.029,-0.038,-0.152,-0.125,-0.000,27.872,24.533,3.671
1747066141.24,0.001,-0.027,-0.062,-0.236,-0.171,0.007,27.668,24.303,3.779
1747066141.26,0.061,-0.074,-0.100,-0.304,-0.146,0.016,27.403,24.061,3.935
1747066141.28,0.126,-0.112,-0.155,-0.403,-0.206,0.044,27.052,23.765,4.146
1747066141.30,0.114,-0.128,-0.134,-0.587,-0.193,0.069,26.565,23.373,4.464
1747066141.32,0.021,-0.139,-0.148,-0.782,-0.073,0.034,25.875,23.027,4.886
1747066141.34,0.016,-0.090,-0.167,-0.922,-0.019,-0.038,24.974,22.810,5.295
1747066141.36,0.051,-0.098,-0.200,-1.038,-0.122,-0.054,23.913,22.546,5.713
1747066141.38,0.035,-0.094,-0.185,-1.169,-0.240,-0.082,22.722,22.169,6.161
1747066141.40,0.020,-0.100,-0.151,-1.239,-0.294,-0.160,21.395,21.688,6.595
1747066141.42,0.017,-0.101,-0.079,-1.328,-0.328,-0.250,19.946,21.224,6.917
1747066141.44,0.052,-0.087,-0.080,-1.434,-0.318,-0.211,18.381,20.750,7.255
1747066141.46,0.028,-0.028,-0.132,-1.438,-0.337,-0.155,16.772,20.281,7.650
1747066141.48,-0.008,-0.014,-0.078,-1.441,-0.284,-0.172,15.170,19.816,8.063
1747066141.50,-0.010,-0.028,-0.036,-1.461,-0.271,-0.166,13.541,19.414,8.439
1747066141.52,0.050,-0.028,-0.077,-1.458,-0.245,-0.101,11.912,19.027,8.855
1747066141.54,0.012,-0.060,0.008,-1.472,-0.180,-0.103,10.294,18.683,9.313
1747066141.56,-0.046,-0.062,0.054,-1.531,-0.082,-0.211,8.635,18.470,9.692
1747066141.58,-0.023,-0.106,0.026,-1.577,-0.043,-0.302,6.829,18.379,9.976
1747066141.60,0.071,-0.054,-0.034,-1.515,-0.143,-0.278,5.051,18.265,10.206
1747066141.62,0.024,-0.029,-0.052,-1.525,-0.245,-0.246,3.305,18.025,10.473
1747066141.64,-0.019,-0.016,-0.052,-1.497,-0.335,-0.268,1.580,17.681,10.730
1747066141.66,-0.051,-0.058,-0.045,-1.471,-0.304,-0.318,-0.141,17.295,10.910
1747066141.68,-0.082,-0.050,-0.019,-1.454,-0.295,-0.407,-1.878,16.951,11.025
1747066141.70,-0.044,-0.037,-0.065,-1.480,-0.276,-0.501,-3.615,16.622,11.000
1747066141.72,0.018,-0.054,-0.106,-1.567,-0.252,-0.420,-5.436,16.315,10.976
1747066141.74,0.088,0.001,-0.082,-1.661,-0.288,-0.266,-7.336,16.040,11.128
1747066141.76,0.146,0.050,-0.003,-1.667,-0.388,-0.243,-9.237,15.711,11.371
1747066141.78,0.091,-0.007,-0.047,-1.745,-0.406,-0.230,-11.167,15.252,11.620
1747066141.80,0.091,-0.057,-0.093,-1.927,-0.209,-0.096,-13.258,15.014,11.999
1747066141.82,0.127,-0.026,-0.052,-1.896,-0.318,-0.148,-15.412,14.847,12.469
1747066141.84,0.113,-0.040,0.018,-1.796,-0.525,-0.292,-17.512,14.436,12.762
1747066141.86,0.058,-0.089,0.050,-1.690,-0.467,-0.294,-19.526,13.897,12.925
1747066141.88,-0.067,-0.091,0.101,-1.609,-0.329,-0.308,-21.435,13.490,13.049
1747066141.90,-0.132,-0.104,0.052,-1.635,-0.268,-0.375,-23.310,13.157,13.105
1747066141.92,-0.101,-0.115,-0.028,-1.629,-0.008,-0.502,-25.248,12.979,13.040
1747066141.94,-0.030,-0.094,-0.059,-1.636,-0.057,-0.640,-27.210,12.856,12.792
1747066141.96,0.010,-0.066,0.010,-1.619,-0.200,-0.712,-29.194,12.519,12.394
1747066141.98,0.010,-0.048,0.168,-1.579,-0.150,-0.736,-31.178,12.070,11.905
1747066142.00,0.017,-0.126,0.055,-1.275,-0.223,-0.631,-32.922,11.574,11.391
1747066142.02,0.059,-0.151,-0.060,-1.436,0.031,-0.588,-34.546,11.203,10.936
1747066142.04,0.029,-0.179,-0.007,-1.616,0.134,-0.580,-36.395,11.084,10.551
1747066142.06,0.063,-0.164,0.117,-1.620,0.254,-0.549,-38.362,11.094,10.209
1747066142.08,0.102,-0.117,0.009,-1.492,0.162,-0.507,-40.196,11.159,9.881
1747066142.10,0.132,-0.052,-0.029,-1.655,-0.166,-0.464,-42.054,10.988,9.619
1747066142.12,0.115,-0.027,-0.000,-1.599,-0.432,-0.409,-44.004,10.501,9.430
1747066142.14,0.051,-0.025,-0.001,-1.539,-0.509,-0.338,-45.824,9.851,9.274
1747066142.16,0.053,-0.029,0.045,-1.598,-0.514,-0.315,-47.649,9.201,9.180
1747066142.18,0.087,-0.024,0.055,-1.654,-0.607,-0.370,-49.550,8.444,9.029
1747066142.20,0.074,-0.021,0.011,-1.667,-0.566,-0.408,-51.493,7.561,8.756
1747066142.22,0.037,-0.006,-0.023,-1.603,-0.774,-0.404,-53.411,6.529,8.373
1747066142.24,0.014,-0.003,0.019,-1.588,-1.002,-0.383,-55.248,5.122,7.918
1747066142.26,0.035,-0.034,0.065,-1.651,-0.992,-0.277,-57.138,3.614,7.484
1747066142.28,0.061,-0.067,0.009,-1.492,-0.953,-0.128,-58.949,2.291,7.225
1747066142.30,0.024,-0.131,0.068,-1.439,-0.949,-0.056,-60.595,1.143,7.149
1747066142.32,-0.002,-0.115,0.023,-1.519,-0.976,-0.045,-62.291,-0.042,7.051
1747066142.34,0.028,-0.107,-0.057,-1.478,-0.779,0.075,-64.018,-1.084,7.041
1747066142.36,-0.010,-0.132,0.016,-1.193,-0.588,0.081,-65.570,-1.652,7.227
1747066142.38,-0.133,-0.075,-0.133,-0.786,-1.056,-0.320,-66.690,-2.839,6.889
1747066142.40,-0.312,-0.024,-0.185,-0.600,-1.816,-0.880,-67.374,-6.289,4.943
1747066142.42,-0.382,-0.054,-0.159,-0.959,-1.831,-1.008,-68.041,-11.539,1.651
1747066142.44,-0.288,-0.127,-0.046,-1.372,-0.586,-0.669,-69.105,-16.226,-1.858
1747066142.46,-0.055,-0.202,0.238,-1.740,0.531,-0.171,-70.660,-18.961,-4.771
1747066142.48,0.107,-0.208,0.232,-1.870,1.184,0.226,-72.645,-19.913,-6.855
1747066142.50,0.232,-0.141,0.003,-1.639,0.917,0.533,-74.707,-19.540,-7.834
1747066142.52,0.301,-0.081,-0.052,-1.173,0.217,0.776,-76.489,-18.102,-7.000
1747066142.54,0.282,0.091,-0.091,-0.721,-0.225,0.544,-77.738,-16.134,-4.937
1747066142.56,0.232,0.226,-0.131,-0.635,-0.599,-0.076,-78.526,-16.317,-4.664
1747066142.58,0.134,0.160,-0.145,-0.848,-1.157,-0.289,-79.227,-19.908,-7.325
1747066142.60,-0.037,-0.030,-0.129,-1.021,-1.737,-0.075,-80.149,-24.981,-10.782
1747066142.62,-0.146,-0.106,-0.036,-1.063,-1.609,0.116,-81.219,-30.222,-14.069
1747066142.64,-0.117,-0.148,0.105,-1.013,-1.010,0.263,-82.359,-34.813,-17.196
1747066142.66,-0.103,-0.091,0.130,-0.753,-0.480,0.202,-83.343,-38.742,-20.328
1747066142.68,-0.065,-0.026,0.077,-0.449,-0.250,0.117,-83.975,-41.812,-23.023
1747066142.70,-0.046,0.005,0.060,-0.377,-0.110,0.108,-84.391,-44.113,-25.130
1747066142.72,-0.047,0.029,0.010,-0.340,-0.016,0.105,-84.775,-46.424,-27.388
1747066142.74,-0.025,0.026,0.030,-0.145,-0.027,0.101,-85.056,-47.928,-28.886
1747066142.76,-0.026,0.015,0.045,-0.043,-0.136,0.124,-85.204,-47.701,-28.559
1747066142.78,-0.034,0.025,0.065,-0.178,-0.151,0.143,-85.403,-47.712,-28.400
1747066142.80,-0.036,0.029,0.059,-0.168,-0.132,0.093,-85.647,-48.756,-29.280
1747066142.82,-0.040,0.020,0.052,-0.007,-0.135,0.076,-85.788,-49.184,-29.563
1747066142.84,-0.055,0.008,0.079,0.046,-0.127,0.120,-85.838,-47.860,-28.077
1747066142.86,-0.100,-0.007,0.066,-0.053,-0.124,0.092,-85.941,-47.096,-27.170
1747066142.88,-0.140,-0.005,0.015,-0.064,-0.108,-0.006,-86.032,-47.876,-27.806
1747066142.90,-0.116,0.028,-0.004,-0.032,0.083,-0.062,-86.037,-49.080,-28.980
1747066142.92,-0.039,0.039,0.010,-0.008,0.189,-0.079,-85.987,-50.150,-30.235
1747066142.94,0.013,-0.009,0.036,0.017,0.002,-0.055,-85.916,-50.895,-31.104
1747066142.96,0.040,-0.067,0.086,-0.043,-0.108,0.014,-85.893,-51.409,-31.539
1747066142.98,0.018,-0.023,0.049,-0.134,-0.098,0.053,-86.004,-52.499,-32.526
1747066143.00,-0.041,0.027,-0.069,0.097,-0.159,-0.026,-86.018,-52.759,-32.598
1747066143.02,-0.070,0.033,-0.103,0.150,0.060,-0.025,-85.904,-51.470,-31.271
1747066143.04,-0.009,0.006,0.029,0.144,0.161,-0.010,-85.782,-49.656,-29.572
1747066143.06,0.058,-0.021,0.112,0.003,0.210,0.014,-85.731,-48.537,-28.695
1747066143.08,0.046,-0.020,0.010,-0.010,-0.120,-0.005,-85.746,-48.564,-28.775
1747066143.10,0.043,-0.011,-0.009,0.014,-0.196,0.001,-85.737,-48.805,-28.813
1747066143.12,0.050,-0.014,-0.021,0.068,-0.203,0.040,-85.720,-48.346,-28.114
1747066143.14,0.028,0.011,-0.044,0.065,-0.205,0.039,-85.714,-47.345,-26.887
1747066143.16,-0.004,0.024,-0.023,0.061,-0.241,0.021,-85.690,-46.592,-25.870
1747066143.18,-0.042,0.004,0.017,0.025,-0.191,0.027,-85.680,-46.065,-25.087
1747066143.20,-0.069,-0.019,0.025,-0.028,-0.097,0.022,-85.708,-45.977,-24.832
1747066143.22,-0.062,-0.013,0.007,0.002,-0.008,0.008,-85.736,-46.025,-24.822
1747066143.24,-0.032,0.017,-0.009,0.064,0.045,0.014,-85.717,-45.505,-24.330
1747066143.26,-0.018,0.027,-0.015,0.128,-0.015,0.030,-85.655,-44.290,-23.134
1747066143.28,-0.018,0.010,-0.028,0.145,-0.043,0.034,-85.553,-42.716,-21.518
1747066143.30,-0.016,-0.022,-0.017,0.109,0.029,0.036,-85.462,-41.458,-20.235
1747066143.32,-0.014,-0.023,0.033,0.148,0.084,0.029,-85.364,-40.090,-18.936
1747066143.34,-0.023,-0.008,0.056,0.211,-0.008,0.004,-85.216,-38.374,-17.271
1747066143.36,-0.034,-0.001,0.015,0.276,-0.115,-0.018,-84.978,-36.587,-15.400
1747066143.38,-0.022,-0.006,-0.000,0.309,-0.122,-0.029,-84.682,-34.883,-13.541
1747066143.40,-0.010,0.008,-0.007,0.332,-0.052,-0.019,-84.371,-33.227,-11.778
1747066143.42,-0.002,0.012,0.019,0.356,-0.012,-0.015,-84.048,-31.546,-10.052
1747066143.44,-0.007,-0.004,0.077,0.394,-0.006,-0.010,-83.683,-29.819,-8.302
1747066143.46,-0.035,0.003,0.090,0.437,0.034,-0.035,-83.258,-27.980,-6.467
1747066143.48,-0.055,0.005,0.060,0.507,0.097,-0.100,-82.746,-26.464,-5.018
1747066143.50,-0.042,-0.001,0.061,0.599,0.148,-0.124,-82.114,-25.135,-3.820
1747066143.52,-0.032,-0.003,0.049,0.607,0.158,-0.107,-81.423,-23.802,-2.650
1747066143.54,-0.040,-0.006,0.010,0.629,0.214,-0.112,-80.733,-22.551,-1.584
1747066143.56,-0.046,0.006,0.036,0.636,0.519,-0.138,-80.003,-21.309,-0.732
1747066143.58,-0.048,0.001,0.106,0.631,0.729,-0.152,-79.279,-20.036,-0.199
1747066143.60,-0.061,-0.033,0.045,0.692,0.626,-0.148,-78.493,-18.784,0.278
1747066143.62,-0.042,-0.055,0.032,0.436,0.438,-0.148,-77.806,-17.924,0.529
1747066143.64,-0.024,-0.008,-0.048,0.342,0.275,-0.175,-77.368,-17.764,0.308
1747066143.66,-0.015,0.037,0.029,0.566,0.456,-0.238,-76.819,-17.612,0.004
1747066143.67,-0.028,0.044,-0.032,0.698,0.260,-0.299,-76.004,-17.470,-0.285
1747066143.70,0.060,0.021,-0.070,0.540,0.416,-0.318,-75.218,-17.647,-0.804
1747066143.71,0.103,-0.012,-0.000,0.583,0.670,-0.232,-74.540,-17.426,-1.267
1747066143.73,0.051,-0.023,-0.019,0.711,0.558,-0.181,-73.755,-16.700,-1.248
1747066143.75,-0.027,0.017,-0.039,0.619,0.481,-0.191,-72.955,-16.059,-1.185
1747066143.77,0.002,0.029,-0.036,0.601,0.790,-0.221,-72.234,-15.499,-1.325
1747066143.79,0.072,-0.040,-0.045,0.752,0.969,-0.270,-71.443,-14.690,-1.575
1747066143.81,0.108,-0.069,-0.068,1.054,0.835,-0.278,-70.354,-13.800,-1.752
1747066143.83,0.017,-0.049,-0.085,1.135,0.078,-0.274,-69.031,-13.227,-1.746
1747066143.85,-0.102,-0.032,-0.084,0.942,0.058,-0.333,-67.784,-13.452,-1.910
1747066143.87,-0.126,-0.064,-0.056,0.568,0.795,-0.283,-66.854,-13.274,-2.319
1747066143.89,-0.025,-0.057,-0.089,0.537,0.702,-0.206,-66.239,-12.709,-2.640
1747066143.91,0.151,0.002,0.036,1.013,0.654,-0.160,-65.329,-12.006,-2.715
1747066143.93,0.149,0.001,0.025,1.080,0.344,-0.014,-64.099,-11.054,-2.339
1747066143.95,-0.017,-0.018,-0.074,0.880,0.097,-0.105,-62.996,-10.541,-1.987
1747066143.97,-0.118,-0.061,-0.131,0.646,0.300,-0.117,-62.084,-10.326,-1.968
1747066143.99,0.026,-0.030,0.084,0.628,0.442,0.038,-61.425,-9.711,-1.807
1747066144.01,0.084,0.020,0.076,0.962,0.336,0.099,-60.525,-8.843,-1.319
1747066144.03,0.018,0.055,-0.009,0.956,0.156,0.028,-59.424,-8.127,-0.838
1747066144.05,-0.008,-0.004,-0.040,0.652,0.175,0.058,-58.508,-7.731,-0.525
1747066144.07,0.075,-0.056,0.076,0.632,0.361,0.171,-57.847,-7.048,-0.112
1747066144.09,0.080,-0.063,0.028,0.854,0.422,0.267,-57.020,-6.051,0.541
1747066144.11,0.038,-0.007,-0.026,0.880,0.285,0.251,-56.047,-5.003,1.282
1747066144.13,-0.011,0.024,-0.058,0.810,0.030,0.151,-55.110,-4.452,1.809
1747066144.15,0.033,-0.003,0.055,0.766,0.386,0.166,-54.219,-3.854,2.219
1747066144.17,0.034,-0.074,-0.009,0.749,0.325,0.243,-53.373,-3.033,2.711
1747066144.19,0.036,-0.082,-0.020,0.807,0.294,0.287,-52.493,-2.247,3.275
1747066144.21,0.060,-0.025,-0.018,0.828,0.361,0.254,-51.573,-1.426,3.831
1747066144.23,0.005,0.028,0.038,0.821,0.124,0.205,-50.628,-0.780,4.293
1747066144.25,-0.021,0.029,0.075,0.830,0.175,0.238,-49.708,-0.337,4.687
1747066144.27,-0.094,-0.012,-0.003,0.915,0.069,0.233,-48.715,0.153,5.123
1747066144.29,-0.134,-0.014,-0.053,1.002,0.089,0.114,-47.615,0.432,5.415
1747066144.31,-0.091,0.020,0.006,0.967,0.065,0.020,-46.467,0.607,5.495
1747066144.33,-0.057,0.009,-0.005,0.777,0.133,0.132,-45.461,0.740,5.586
1747066144.35,-0.013,-0.011,0.071,0.646,0.332,0.222,-44.659,1.222,5.866
1747066144.37,-0.002,-0.003,0.033,0.790,0.263,0.239,-43.850,1.802,6.211
1747066144.39,0.017,0.106,0.022,0.880,0.291,0.167,-42.872,2.324,6.494
1747066144.41,0.007,0.138,0.010,0.886,0.080,0.108,-41.858,2.629,6.631
1747066144.43,0.003,0.047,0.024,0.953,0.029,0.114,-40.809,2.745,6.726
1747066144.45,-0.031,-0.067,-0.054,0.940,0.098,0.147,-39.700,2.892,6.856
1747066144.47,-0.023,-0.054,-0.025,0.811,0.171,0.116,-38.702,3.140,6.986
1747066144.49,0.013,0.013,0.054,0.839,0.262,0.106,-37.762,3.435,7.079
1747066144.51,0.036,0.017,0.115,0.931,0.300,0.109,-36.751,3.808,7.147
1747066144.53,0.053,-0.031,0.038,0.991,0.344,0.161,-35.633,4.231,7.240
1747066144.55,0.055,-0.102,-0.022,0.916,0.247,0.225,-34.534,4.675,7.408
1747066144.57,0.080,-0.139,-0.016,0.919,0.302,0.228,-33.476,5.088,7.619
1747066144.59,0.078,-0.105,0.041,0.972,0.280,0.222,-32.375,5.556,7.809
1747066144.61,0.043,-0.119,0.064,0.992,0.284,0.285,-31.233,5.965,8.004
1747066144.63,0.022,-0.111,0.021,0.966,0.313,0.378,-30.070,6.457,8.306
1747066144.65,0.031,-0.082,0.042,1.013,0.337,0.442,-28.908,7.038,8.691
1747066144.67,0.014,-0.044,0.019,1.004,0.471,0.449,-27.685,7.666,9.098
1747066144.69,-0.019,-0.017,0.048,0.998,0.498,0.434,-26.493,8.388,9.482
1747066144.71,0.057,0.024,0.032,1.026,0.461,0.431,-25.277,9.103,9.838
1747066144.73,0.082,0.008,0.057,1.107,0.409,0.420,-24.001,9.728,10.129
1747066144.75,0.021,-0.041,-0.018,1.160,0.356,0.380,-22.636,10.270,10.374
1747066144.77,-0.049,0.037,-0.018,1.096,0.312,0.408,-21.286,10.724,10.594
1747066144.79,-0.131,0.081,0.060,1.072,0.454,0.384,-19.992,11.237,10.823
1747066144.81,-0.108,0.061,0.017,1.031,0.534,0.429,-18.722,11.869,11.047
1747066144.83,-0.062,0.024,-0.039,1.045,0.527,0.429,-17.466,12.578,11.300
1747066144.85,-0.004,0.016,-0.011,1.091,0.434,0.332,-16.182,13.179,11.461
1747066144.87,0.005,0.007,0.042,1.221,0.244,0.207,-14.836,13.564,11.450
1747066144.89,-0.014,0.023,0.040,1.306,0.186,0.200,-13.374,13.761,11.321
1747066144.91,-0.084,0.023,0.044,1.310,0.264,0.244,-11.857,13.976,11.202
1747066144.93,-0.136,-0.021,0.011,1.205,0.501,0.232,-10.403,14.403,11.124
1747066144.95,-0.090,-0.050,-0.002,1.242,0.586,0.172,-8.994,15.021,11.004
1747066144.97,-0.025,0.065,0.009,1.311,0.545,0.140,-7.549,15.635,10.779
1747066144.99,-0.117,0.152,0.014,1.329,0.365,0.104,-6.054,16.134,10.501
1747066145.01,0.036,0.033,-0.062,1.390,0.054,0.014,-4.554,16.366,10.131
1747066145.03,0.131,-0.004,-0.050,1.518,-0.228,0.003,-2.953,16.188,9.666
1747066145.05,0.025,-0.060,-0.019,1.533,-0.115,-0.069,-1.288,15.955,9.149
1747066145.07,-0.028,-0.186,0.110,1.419,0.054,-0.054,0.333,15.933,8.599
1747066145.09,0.048,-0.099,0.120,1.334,0.269,0.097,1.836,16.137,8.178
1747066145.11,0.030,0.047,0.027,1.292,0.323,0.308,3.328,16.449,7.983
1747066145.13,0.054,0.072,-0.030,1.289,0.225,0.391,4.872,16.807,7.973
1747066145.15,0.153,-0.058,-0.066,1.316,0.278,0.489,6.425,17.072,8.016
1747066145.17,0.135,-0.062,0.003,1.313,0.417,0.483,8.055,17.436,8.127
1747066145.19,-0.011,0.001,0.085,1.308,0.630,0.520,9.659,18.040,8.231
1747066145.21,-0.163,0.121,-0.003,1.304,0.572,0.496,11.253,18.696,8.332
1747066145.23,-0.040,0.119,-0.084,1.318,0.445,0.378,12.844,19.276,8.326
1747066145.25,0.143,-0.108,-0.154,1.365,0.311,0.307,14.412,19.741,8.175
1747066145.27,0.023,-0.163,-0.057,1.305,0.531,0.311,15.981,20.240,7.970
1747066145.29,-0.079,-0.210,-0.007,1.160,0.788,0.269,17.412,21.082,7.764
1747066145.31,-0.000,-0.076,-0.033,1.069,0.863,0.227,18.680,22.098,7.565
1747066145.33,-0.056,0.167,-0.090,1.101,0.701,0.179,19.913,23.107,7.279
1747066145.35,0.082,0.103,-0.220,1.175,0.486,0.133,21.195,23.903,6.913
1747066145.37,0.143,-0.088,-0.216,1.058,0.385,0.193,22.439,24.516,6.527
1747066145.39,0.095,-0.195,-0.120,0.898,0.431,0.231,23.549,25.067,6.261
1747066145.41,-0.025,-0.070,-0.104,0.820,0.507,0.180,24.544,25.723,6.040
1747066145.43,0.013,-0.020,-0.092,0.698,0.438,0.116,25.386,26.372,5.789
1747066145.45,0.070,-0.024,-0.147,0.629,0.270,0.073,26.109,26.886,5.517
1747066145.47,0.068,-0.042,-0.135,0.537,0.259,0.085,26.743,27.294,5.269
1747066145.49,-0.004,-0.087,-0.092,0.436,0.279,0.085,27.284,27.675,5.082
1747066145.51,0.038,-0.053,-0.097,0.365,0.266,0.094,27.737,28.063,4.940
1747066145.53,0.076,-0.047,-0.074,0.307,0.252,0.117,28.128,28.400,4.858
1747066145.55,0.038,-0.060,-0.053,0.253,0.205,0.086,28.469,28.689,4.807
1747066145.57,0.068,-0.085,-0.094,0.183,0.098,0.077,28.731,28.886,4.757
1747066145.59,0.116,-0.113,-0.064,0.066,0.048,0.113,28.916,28.948,4.781
1747066145.61,0.037,-0.086,-0.008,-0.064,0.138,0.142,28.985,28.975,4.936
1747066145.63,-0.021,-0.042,-0.052,-0.112,0.142,0.085,28.961,29.059,5.126
1747066145.65,-0.013,-0.041,-0.008,-0.235,0.053,0.026,28.817,29.080,5.293
1747066145.67,0.048,-0.048,-0.030,-0.328,0.017,0.003,28.545,29.046,5.490
1747066145.69,-0.010,-0.050,-0.044,-0.395,-0.057,-0.004,28.189,28.901,5.716
1747066145.71,0.033,-0.102,-0.121,-0.506,-0.089,-0.075,27.717,28.704,5.956
1747066145.73,0.092,-0.121,-0.201,-0.627,-0.148,-0.072,27.106,28.445,6.213
1747066145.75,0.072,-0.125,-0.144,-0.740,-0.260,-0.128,26.364,28.086,6.525
1747066145.77,0.107,-0.119,-0.202,-0.838,-0.325,-0.187,25.486,27.604,6.811
1747066145.79,0.077,-0.129,-0.101,-0.981,-0.367,-0.235,24.455,27.092,7.098
1747066145.81,0.084,-0.153,-0.134,-1.146,-0.376,-0.201,23.261,26.528,7.450
1747066145.83,0.075,-0.115,-0.165,-1.279,-0.378,-0.190,21.909,25.922,7.900
1747066145.85,0.046,-0.097,-0.171,-1.381,-0.407,-0.230,20.439,25.300,8.375
1747066145.87,0.051,-0.107,-0.115,-1.492,-0.363,-0.263,18.832,24.717,8.830
1747066145.89,0.083,-0.083,-0.055,-1.546,-0.308,-0.231,17.129,24.185,9.312
1747066145.91,0.065,-0.028,-0.062,-1.620,-0.273,-0.152,15.384,23.694,9.875
1747066145.93,0.016,-0.028,-0.098,-1.705,-0.245,-0.158,13.580,23.228,10.497
1747066145.95,0.073,-0.082,-0.110,-1.797,-0.131,-0.147,11.667,22.879,11.131
1747066145.97,0.085,-0.081,-0.089,-1.863,-0.149,-0.093,9.679,22.603,11.822
1747066145.99,0.102,-0.053,-0.101,-1.800,-0.049,0.001,7.725,22.373,12.582
1747066146.01,0.045,-0.042,0.020,-1.933,-0.127,0.026,5.759,22.184,13.417
1747066146.03,0.026,-0.063,-0.003,-1.999,-0.099,-0.023,3.674,21.978,14.257
1747066146.05,0.057,-0.153,0.051,-1.913,-0.281,-0.111,1.553,21.744,15.027
1747066146.07,-0.007,-0.106,-0.028,-1.867,-0.395,-0.139,-0.478,21.311,15.676
1747066146.09,-0.132,-0.079,-0.018,-1.887,-0.161,-0.175,-2.560,21.029,16.281
1747066146.11,-0.152,-0.088,0.072,-1.848,-0.175,-0.366,-4.649,20.880,16.780
1747066146.13,-0.077,-0.148,0.045,-1.778,-0.385,-0.630,-6.778,20.598,16.965
1747066146.15,0.014,-0.182,-0.041,-1.746,-0.202,-0.674,-8.918,20.206,16.960
1747066146.17,0.013,-0.072,-0.050,-1.782,-0.088,-0.653,-11.086,20.085,16.950
1747066146.19,0.029,-0.008,-0.006,-1.687,-0.263,-0.672,-13.209,19.890,16.921
1747066146.21,0.052,-0.033,-0.031,-1.683,-0.389,-0.754,-15.270,19.467,16.791
1747066146.23,0.032,-0.123,-0.012,-1.738,-0.346,-0.796,-17.414,18.975,16.582
1747066146.25,0.079,-0.140,0.048,-1.768,-0.218,-0.684,-19.588,18.607,16.403
1747066146.27,0.062,-0.055,0.037,-1.792,-0.280,-0.592,-21.730,18.325,16.363
1747066146.29,-0.028,0.057,-0.030,-1.795,-0.159,-0.587,-23.900,18.043,16.365
1747066146.31,-0.052,0.079,-0.022,-1.787,0.042,-0.538,-26.037,17.996,16.384
1747066146.33,-0.023,-0.007,0.097,-1.570,-0.097,-0.518,-28.068,18.030,16.423
1747066146.35,-0.027,-0.080,0.068,-1.404,-0.380,-0.626,-29.856,17.668,16.304
1747066146.37,-0.025,-0.104,-0.065,-1.436,-0.243,-0.709,-31.625,17.136,16.013
1747066146.39,-0.110,-0.089,0.011,-1.613,-0.016,-0.774,-33.515,16.788,15.648
1747066146.41,-0.106,-0.057,0.225,-1.604,0.026,-0.786,-35.600,16.616,15.266
1747066146.43,-0.046,-0.062,0.013,-1.273,0.217,-0.682,-37.378,16.454,14.824
1747066146.45,0.062,-0.064,0.036,-1.543,0.209,-0.567,-39.075,16.569,14.523
1747066146.47,0.104,-0.106,0.060,-1.707,-0.190,-0.447,-41.072,16.576,14.506
1747066146.49,0.070,-0.094,-0.097,-1.563,0.032,-0.355,-42.968,16.482,14.630
1747066146.51,0.013,-0.034,0.065,-1.746,0.355,-0.407,-44.889,16.909,14.816
1747066146.53,0.028,-0.028,0.061,-1.688,0.001,-0.492,-46.949,17.225,14.946
1747066146.55,0.101,-0.031,0.032,-1.536,-0.247,-0.474,-48.862,17.073,14.955
1747066146.57,0.106,-0.003,0.071,-1.520,-0.279,-0.443,-50.682,16.775,14.969
1747066146.58,0.071,0.015,-0.060,-1.496,-0.294,-0.450,-52.466,16.463,14.977
1747066146.60,0.038,-0.013,-0.002,-1.552,-0.415,-0.452,-54.291,16.057,14.967
1747066146.62,-0.012,-0.055,0.076,-1.552,-0.589,-0.451,-56.134,15.472,14.941
1747066146.64,-0.044,-0.059,0.085,-1.621,-0.622,-0.435,-58.011,14.709,14.903
1747066146.66,-0.013,-0.076,0.093,-1.645,-0.409,-0.348,-59.946,14.186,14.956
1747066146.68,0.029,-0.132,-0.003,-1.406,-0.492,-0.140,-61.705,13.951,15.267
1747066146.70,0.046,-0.105,-0.024,-1.323,-0.571,-0.097,-63.221,13.816,15.826
1747066146.72,0.020,-0.078,-0.008,-1.497,-0.550,-0.146,-64.822,13.697,16.387
1747066146.74,-0.060,-0.083,0.046,-1.519,-0.658,-0.160,-66.546,13.522,16.951
1747066146.76,-0.104,-0.049,0.054,-1.470,-0.827,-0.204,-68.262,13.161,17.476
1747066146.78,-0.089,0.010,-0.049,-1.279,-0.808,-0.310,-69.870,12.360,17.658
1747066146.80,0.010,-0.007,-0.117,-1.179,-0.446,-0.327,-71.291,11.377,17.381
1747066146.82,0.114,-0.104,-0.037,-1.380,-0.329,-0.158,-72.772,10.968,17.365
1747066146.84,0.135,-0.171,-0.042,-1.495,-0.496,0.059,-74.408,11.402,18.308
1747066146.86,0.101,-0.187,-0.032,-1.377,-0.643,0.228,-76.011,12.716,20.339
1747066146.88,0.072,-0.161,-0.046,-1.051,-0.757,0.307,-77.288,14.598,23.101
1747066146.90,0.081,-0.082,-0.125,-0.784,-0.617,0.212,-78.190,16.437,25.822
1747066146.92,0.054,0.031,-0.193,-0.698,-0.590,-0.018,-78.965,17.544,27.597
1747066146.94,-0.072,0.065,-0.101,-0.530,-0.945,-0.212,-79.689,17.149,28.084
1747066146.96,-0.275,0.110,-0.155,-0.320,-1.114,-0.475,-80.247,14.549,26.669
1747066146.98,-0.448,0.073,-0.139,-0.409,-0.913,-0.637,-80.763,10.041,23.304
1747066147.00,-0.498,-0.050,-0.080,-0.718,-0.191,-0.624,-81.487,5.263,19.162
1747066147.02,-0.319,-0.195,0.002,-0.980,0.933,-0.595,-82.512,1.039,14.473
1747066147.04,0.072,-0.215,0.071,-1.048,1.361,-0.336,-83.678,-2.242,9.731
1747066147.06,0.418,-0.089,0.028,-0.738,0.848,0.143,-84.738,-2.621,8.059
1747066147.08,0.588,0.099,-0.020,-0.131,0.573,0.647,-85.226,3.441,13.373
1747066147.10,0.585,0.218,0.015,0.147,0.743,0.741,-85.046,13.974,23.213
1747066147.12,0.385,0.130,-0.143,0.174,0.297,0.235,-84.704,20.257,28.825
1747066147.14,0.049,-0.097,-0.278,0.106,-1.213,0.092,-84.462,20.437,29.473
1747066147.16,-0.179,-0.141,-0.084,-0.436,-2.359,0.299,-84.556,20.896,32.090
1747066147.18,-0.177,-0.063,0.178,-0.804,-2.009,0.391,-85.085,25.902,39.733
1747066147.20,-0.143,0.066,0.265,-0.453,-1.056,0.160,-85.609,32.313,47.926
1747066147.22,-0.164,0.087,0.246,0.115,-0.186,0.067,-85.693,33.862,50.169
1747066147.24,-0.233,0.017,0.158,0.173,0.231,0.104,-85.460,33.571,49.795
1747066147.26,-0.232,-0.020,0.129,-0.163,0.319,0.068,-85.386,34.820,50.725
1747066147.28,-0.107,-0.009,0.161,-0.318,0.092,-0.012,-85.614,37.649,53.293
1747066147.30,-0.059,-0.012,0.117,-0.293,-0.206,-0.030,-85.904,40.201,55.943
1747066147.32,-0.042,0.019,0.067,-0.301,-0.228,-0.009,-86.175,42.956,58.962
1747066147.34,-0.075,0.063,0.004,-0.164,-0.293,-0.021,-86.385,45.568,61.875
1747066147.36,-0.119,0.057,-0.020,0.010,-0.218,-0.064,-86.473,45.434,62.063
1747066147.38,-0.111,0.030,0.051,-0.036,0.123,-0.049,-86.525,44.720,61.400
1747066147.40,-0.107,0.026,-0.008,0.015,0.285,-0.080,-86.586,44.429,60.869
1747066147.42,-0.075,0.013,-0.065,0.087,0.432,-0.118,-86.624,42.707,58.727
1747066147.44,0.010,-0.018,-0.037,0.075,0.470,-0.094,-86.628,40.443,55.931
1747066147.46,0.101,-0.049,0.035,0.017,0.352,-0.035,-86.640,39.466,54.469
1747066147.48,0.133,-0.041,0.056,0.099,0.108,0.026,-86.605,39.164,53.892
1747066147.50,0.053,-0.003,0.018,0.207,-0.062,0.057,-86.418,37.875,52.598
1747066147.52,-0.023,0.022,-0.033,0.135,-0.054,0.014,-86.235,36.436,51.227
1747066147.54,-0.004,0.005,-0.084,0.088,-0.011,0.000,-86.135,35.382,50.204
1747066147.56,0.054,-0.011,-0.012,0.099,0.018,0.060,-86.033,34.775,49.600
1747066147.58,0.063,-0.023,0.058,0.076,-0.035,0.110,-85.881,35.188,50.009
1747066147.60,0.029,-0.014,0.021,0.016,-0.279,0.092,-85.778,35.960,50.949
1747066147.62,-0.007,-0.007,-0.042,0.038,-0.383,0.063,-85.700,36.166,51.564
1747066147.64,-0.030,0.010,0.008,0.040,-0.246,0.070,-85.610,36.276,52.044
1747066147.66,-0.044,0.029,0.043,0.053,-0.145,0.075,-85.521,36.646,52.628
1747066147.68,-0.058,0.015,0.022,0.087,-0.147,0.061,-85.412,36.828,52.966
1747066147.70,-0.068,-0.004,0.008,0.110,-0.071,0.029,-85.286,36.307,52.591
1747066147.72,-0.030,-0.009,0.015,0.145,0.057,0.031,-85.153,35.584,51.864
1747066147.74,-0.004,-0.007,0.027,0.126,0.029,0.040,-85.010,34.945,51.151
1747066147.76,-0.002,-0.012,0.048,0.077,-0.139,0.024,-84.915,34.337,50.607
1747066147.78,0.018,0.013,0.031,0.022,-0.123,0.014,-84.883,33.838,50.274
1747066147.80,0.020,0.042,-0.007,0.090,-0.070,0.033,-84.827,33.553,50.095
1747066147.82,-0.012,0.039,-0.011,0.110,-0.143,0.024,-84.713,33.046,49.691
1747066147.84,-0.030,-0.003,0.009,0.099,-0.261,0.034,-84.610,32.486,49.366
1747066147.86,-0.043,-0.043,0.041,0.102,-0.250,0.040,-84.504,32.048,49.227
1747066147.88,-0.047,-0.039,0.015,0.190,-0.183,0.046,-84.345,31.401,48.829
1747066147.90,-0.042,0.009,-0.003,0.316,-0.074,0.071,-84.065,30.343,47.914
1747066147.92,-0.044,0.037,0.033,0.358,0.039,0.091,-83.681,29.240,46.822
1747066147.94,-0.058,0.010,0.051,0.373,0.018,0.085,-83.287,28.299,45.830
1747066147.96,-0.094,-0.007,0.031,0.487,-0.016,0.069,-82.809,27.071,44.607
1747066147.98,-0.126,0.003,0.041,0.503,0.197,0.025,-82.268,25.622,43.049
1747066148.00,-0.137,0.018,0.039,0.525,0.351,-0.071,-81.747,24.013,41.094
1747066148.02,-0.100,0.030,0.053,0.504,0.506,-0.115,-81.244,22.270,38.844
1747066148.04,-0.049,0.013,0.120,0.476,0.670,-0.126,-80.782,20.864,36.732
1747066148.06,-0.026,-0.010,0.090,0.611,0.663,-0.168,-80.266,19.459,34.522
1747066148.08,-0.023,-0.025,0.079,0.684,0.565,-0.229,-79.629,17.621,31.934
1747066148.10,-0.041,-0.019,0.092,0.659,0.386,-0.277,-78.961,15.517,29.238
1747066148.12,-0.065,0.008,0.090,0.544,0.280,-0.279,-78.382,13.476,26.787
1747066148.14,-0.129,0.036,0.027,0.509,0.271,-0.288,-77.867,11.656,24.608
1747066148.16,-0.139,0.032,-0.009,0.405,0.626,-0.291,-77.416,10.209,22.649
1747066148.18,-0.070,-0.012,0.045,0.583,0.871,-0.367,-76.968,9.137,20.600
1747066148.20,0.000,-0.013,-0.127,0.826,0.623,-0.442,-76.189,7.541,18.086
1747066148.22,0.043,-0.015,-0.096,0.513,0.503,-0.438,-75.471,5.802,15.629
1747066148.24,0.076,-0.030,-0.135,0.488,0.523,-0.294,-74.976,4.535,13.764
1747066148.26,0.138,-0.051,-0.003,0.546,0.864,-0.094,-74.407,4.396,12.769
1747066148.28,0.167,-0.033,0.001,0.623,0.793,0.055,-73.733,5.098,12.502
1747066148.30,0.170,-0.010,-0.064,0.684,0.816,0.100,-72.992,6.101,12.605
1747066148.32,0.068,-0.043,-0.123,0.992,0.550,0.010,-72.038,6.818,12.497
1747066148.34,-0.042,-0.058,-0.101,0.904,0.241,-0.137,-70.917,6.612,11.849
1747066148.36,-0.054,-0.034,-0.007,0.662,0.394,-0.188,-70.086,6.133,10.965
1747066148.38,0.008,0.017,0.018,0.799,0.776,-0.077,-69.271,6.081,10.232
1747066148.40,0.127,0.031,0.096,0.900,0.803,0.116,-68.311,6.860,10.008
1747066148.42,0.105,0.008,-0.189,0.869,-0.266,0.112,-67.272,7.298,10.089
1747066148.44,0.006,0.010,-0.096,0.898,-0.931,-0.170,-66.274,6.235,9.752
1747066148.46,-0.083,-0.040,-0.045,0.842,-0.526,-0.377,-65.315,4.348,8.688
1747066148.48,-0.038,-0.091,-0.114,0.927,-0.197,-0.304,-64.352,3.047,7.633
1747066148.50,-0.032,-0.013,-0.049,1.341,-0.420,-0.398,-63.104,1.837,6.635
1747066148.52,0.010,0.057,-0.057,1.595,-0.477,-0.443,-61.393,0.242,5.510
1747066148.54,-0.003,0.042,-0.086,1.501,-0.033,-0.443,-59.602,-0.874,4.519
1747066148.56,-0.065,-0.018,-0.012,1.226,0.353,-0.445,-58.038,-1.507,3.579
1747066148.58,0.024,-0.130,0.093,1.118,0.671,-0.210,-56.701,-1.476,2.911
1747066148.60,0.180,-0.234,0.122,1.219,0.906,0.171,-55.368,-0.572,2.895
1747066148.62,0.229,-0.253,0.069,1.115,0.783,0.414,-54.027,0.939,3.534
1747066148.64,0.165,-0.154,-0.022,1.101,0.321,0.351,-52.742,2.144,4.227
1747066148.66,0.131,-0.004,-0.052,0.973,0.018,0.256,-51.542,2.669,4.687
1747066148.68,0.019,0.125,-0.030,0.902,-0.089,0.197,-50.466,2.884,5.038
1747066148.70,-0.088,0.191,0.128,1.027,0.197,0.071,-49.380,3.035,5.188
1747066148.72,-0.185,0.107,0.025,1.058,0.289,0.001,-48.166,3.292,5.127
1747066148.74,-0.076,0.054,0.055,0.968,0.304,0.101,-47.008,3.621,5.088
1747066148.76,0.022,0.017,0.019,0.925,-0.013,0.195,-45.926,3.896,5.252
1747066148.78,0.044,0.004,-0.093,0.863,-0.037,0.163,-44.880,3.977,5.450
1747066148.80,0.044,0.012,-0.003,0.801,-0.071,0.120,-43.947,4.028,5.591
1747066148.82,0.039,0.051,0.044,0.853,0.070,0.113,-42.996,4.067,5.679
1747066148.84,-0.044,0.025,-0.002,0.775,0.285,0.110,-42.039,4.338,5.751
1747066148.86,-0.102,0.014,0.035,0.730,0.191,0.188,-41.184,4.681,5.889
1747066148.88,-0.081,-0.005,0.053,0.767,0.192,0.132,-40.313,5.008,6.054
1747066148.90,-0.021,-0.051,0.028,0.786,0.247,0.128,-39.434,5.316,6.125
1747066148.92,0.085,-0.045,0.054,0.940,0.199,0.166,-38.435,5.640,6.242
1747066148.94,0.030,0.008,0.027,1.085,0.126,0.041,-37.258,5.814,6.244
1747066148.96,0.029,-0.028,-0.011,1.074,0.309,0.087,-36.039,6.039,6.165
1747066148.98,-0.001,-0.097,-0.018,1.033,0.342,0.177,-34.812,6.443,6.180
1747066149.00,0.018,-0.146,0.041,0.979,0.413,0.271,-33.657,6.947,6.337
1747066149.02,0.023,-0.148,0.033,1.024,0.378,0.290,-32.479,7.535,6.543
1747066149.04,0.090,-0.052,0.066,1.071,0.322,0.271,-31.245,8.029,6.718
1747066149.06,0.074,0.011,0.157,1.113,0.385,0.275,-29.973,8.500,6.874
1747066149.08,-0.022,-0.051,0.027,1.114,0.394,0.333,-28.635,9.024,7.053
1747066149.10,0.019,-0.011,0.011,1.049,0.367,0.382,-27.368,9.583,7.286
1747066149.12,0.017,-0.002,0.006,1.092,0.368,0.380,-26.094,10.136,7.536
1747066149.14,-0.022,0.040,0.053,1.122,0.296,0.364,-24.765,10.584,7.748
1747066149.16,-0.051,0.052,0.046,1.158,0.370,0.335,-23.412,11.025,7.901
1747066149.18,-0.105,0.028,-0.022,1.044,0.496,0.344,-22.091,11.573,8.051
1747066149.20,-0.019,0.039,-0.002,1.037,0.442,0.310,-20.872,12.173,8.181
1747066149.22,0.051,0.051,0.040,1.128,0.312,0.301,-19.586,12.626,8.250
1747066149.24,0.007,0.036,0.064,1.160,0.253,0.323,-18.226,12.953,8.305
1747066149.26,-0.093,-0.057,0.032,1.151,0.456,0.431,-16.849,13.390,8.427
1747066149.28,-0.085,-0.073,0.004,1.101,0.603,0.376,-15.489,14.040,8.610
1747066149.30,0.075,-0.064,0.038,1.218,0.377,0.338,-14.118,14.647,8.657
1747066149.32,0.083,0.062,0.060,1.317,0.109,0.394,-12.600,14.920,8.690
1747066149.34,-0.085,-0.030,0.077,1.287,0.211,0.422,-11.025,15.089,8.760
1747066149.36,-0.127,-0.112,-0.002,1.178,0.514,0.474,-9.532,15.534,8.882
1747066149.38,-0.004,-0.031,-0.063,1.201,0.560,0.418,-8.112,16.207,9.017
1747066149.40,0.111,0.037,0.028,1.295,0.164,0.462,-6.600,16.632,9.087
1747066149.42,0.075,-0.006,0.054,1.354,0.067,0.510,-4.988,16.745,9.183
1747066149.44,-0.085,-0.045,0.069,1.360,0.236,0.536,-3.334,16.914,9.320
1747066149.46,-0.101,-0.108,0.035,1.303,0.482,0.525,-1.682,17.333,9.458
1747066149.48,-0.043,0.097,0.044,1.320,0.528,0.482,-0.090,17.931,9.550
1747066149.49,0.051,0.128,-0.024,1.366,0.302,0.520,1.522,18.448,9.610
1747066149.51,0.167,0.054,-0.002,1.527,0.041,0.546,3.290,18.629,9.642
1747066149.54,0.015,-0.107,0.004,1.540,0.177,0.470,5.163,18.701,9.635
1747066149.55,-0.117,-0.189,-0.007,1.464,0.582,0.431,6.940,19.159,9.557
1747066149.57,-0.002,-0.061,-0.069,1.420,0.754,0.406,8.640,19.967,9.452
1747066149.59,-0.062,0.237,-0.037,1.432,0.664,0.300,10.312,20.825,9.255
1747066149.61,-0.021,0.175,-0.163,1.466,0.338,0.236,11.974,21.461,8.929
1747066149.63,0.203,-0.079,-0.248,1.434,0.182,0.261,13.621,21.830,8.588
1747066149.65,0.088,-0.134,-0.162,1.365,0.266,0.228,15.214,22.141,8.233
1747066149.67,-0.076,-0.183,-0.046,1.191,0.680,0.231,16.669,22.755,7.916
1747066149.69,-0.104,-0.061,-0.063,1.081,0.813,0.169,17.946,23.721,7.607
1747066149.71,0.138,0.052,-0.176,1.048,0.568,0.147,19.114,24.640,7.249
1747066149.73,0.181,0.070,-0.219,1.029,0.251,0.156,20.271,25.223,6.879
1747066149.75,0.076,-0.047,-0.196,0.901,0.248,0.220,21.365,25.582,6.577
1747066149.77,-0.041,-0.005,-0.138,0.843,0.468,0.237,22.358,26.071,6.370
1747066149.79,-0.041,0.011,-0.109,0.807,0.469,0.141,23.319,26.684,6.171
1747066149.81,0.014,0.003,-0.054,0.730,0.304,0.019,24.137,27.284,5.800
1747066149.83,0.082,-0.137,-0.121,0.559,0.040,0.016,24.806,27.640,5.434
1747066149.85,0.071,-0.156,-0.144,0.402,0.019,0.063,25.310,27.778,5.203
1747066149.87,0.012,-0.147,-0.156,0.254,0.021,0.049,25.675,27.842,5.058
1747066149.89,0.003,-0.124,-0.055,0.068,0.071,0.008,25.854,27.926,5.001
1747066149.91,0.091,-0.130,-0.066,-0.096,0.025,-0.035,25.840,27.998,4.985
1747066149.93,0.120,-0.136,-0.120,-0.288,-0.003,-0.009,25.633,27.963,5.070
1747066149.95,0.086,-0.136,-0.159,-0.567,0.042,0.072,25.225,27.846,5.359
1747066149.97,0.068,-0.184,-0.201,-0.780,0.052,0.050,24.578,27.737,5.828
1747066149.99,0.161,-0.212,-0.202,-0.981,-0.079,0.002,23.698,27.508,6.356
1747066150.01,0.136,-0.246,-0.176,-1.163,-0.219,-0.095,22.594,27.118,6.924
1747066150.03,0.100,-0.225,-0.195,-1.283,-0.302,-0.188,21.265,26.626,7.447
1747066150.05,0.072,-0.134,-0.196,-1.368,-0.384,-0.311,19.784,26.075,7.892
1747066150.07,0.021,-0.115,-0.137,-1.503,-0.341,-0.384,18.134,25.527,8.265
1747066150.09,0.009,-0.071,-0.151,-1.576,-0.301,-0.463,16.333,25.073,8.593
1747066150.11,0.067,-0.038,-0.137,-1.611,-0.328,-0.508,14.444,24.631,8.870
1747066150.13,0.087,-0.037,-0.066,-1.720,-0.374,-0.490,12.481,24.158,9.137
1747066150.15,0.069,-0.055,-0.049,-1.795,-0.237,-0.450,10.419,23.762,9.469
1747066150.17,0.099,-0.042,-0.079,-1.825,-0.328,-0.353,8.337,23.362,9.883
1747066150.19,0.098,-0.020,-0.109,-1.839,-0.384,-0.316,6.270,22.921,10.346
1747066150.21,0.031,-0.053,-0.003,-1.864,-0.425,-0.300,4.181,22.380,10.847
1747066150.23,-0.005,-0.044,-0.030,-1.843,-0.316,-0.321,2.085,21.950,11.316
1747066150.25,-0.018,-0.016,-0.018,-1.793,-0.305,-0.394,0.011,21.586,11.711
1747066150.27,-0.016,-0.026,0.020,-1.745,-0.386,-0.554,-2.060,21.201,11.930
1747066150.29,0.054,-0.134,-0.022,-1.753,-0.307,-0.475,-4.146,20.819,12.080
1747066150.31,0.055,-0.075,0.002,-1.739,-0.342,-0.388,-6.185,20.469,12.349
1747066150.33,-0.032,-0.050,0.075,-1.717,-0.355,-0.486,-8.202,20.094,12.566
1747066150.35,-0.037,-0.168,0.031,-1.664,-0.213,-0.582,-10.220,19.790,12.650
1747066150.37,0.015,-0.207,-0.030,-1.672,-0.202,-0.590,-12.246,19.533,12.661
1747066150.39,0.020,-0.123,-0.008,-1.613,-0.374,-0.682,-14.246,19.212,12.604
1747066150.41,-0.013,-0.094,0.041,-1.595,-0.263,-0.763,-16.240,18.771,12.391
1747066150.43,0.057,-0.083,0.052,-1.595,-0.359,-0.647,-18.245,18.391,12.196
1747066150.45,0.090,-0.066,0.024,-1.558,-0.460,-0.538,-20.151,17.878,12.121
1747066150.47,-0.004,-0.048,0.083,-1.560,-0.404,-0.543,-22.052,17.372,12.082
1747066150.49,-0.057,-0.060,0.016,-1.536,-0.162,-0.519,-23.911,17.030,12.012
1747066150.51,-0.004,-0.041,0.045,-1.355,-0.228,-0.526,-25.693,16.804,11.931
1747066150.53,0.011,-0.047,-0.024,-1.237,-0.266,-0.634,-27.272,16.409,11.693
1747066150.55,0.018,-0.074,0.035,-1.345,-0.503,-0.699,-28.882,15.805,11.305
1747066150.57,-0.001,-0.085,0.021,-1.460,-0.356,-0.655,-30.649,15.076,10.942
1747066150.59,-0.068,-0.077,0.057,-1.381,-0.139,-0.609,-32.416,14.640,10.615
1747066150.61,-0.096,-0.047,0.017,-1.362,-0.037,-0.581,-34.084,14.379,10.295
1747066150.63,-0.053,-0.027,-0.006,-1.326,-0.082,-0.603,-35.749,14.150,9.970
1747066150.65,-0.028,-0.050,-0.023,-1.283,-0.053,-0.655,-37.357,13.780,9.534
1747066150.67,0.001,-0.068,0.044,-1.359,0.106,-0.633,-38.994,13.525,9.075
1747066150.69,0.006,-0.075,0.050,-1.429,0.151,-0.574,-40.706,13.427,8.684
1747066150.71,-0.007,-0.070,0.042,-1.481,0.255,-0.486,-42.458,13.467,8.404
1747066150.73,0.039,-0.037,0.065,-1.654,0.371,-0.381,-44.314,13.792,8.330
1747066150.75,0.066,-0.021,0.034,-1.702,0.269,-0.358,-46.279,14.242,8.424
1747066150.77,0.110,-0.006,0.017,-1.619,0.017,-0.419,-48.236,14.451,8.496
1747066150.79,0.123,0.025,0.021,-1.462,-0.241,-0.534,-50.088,14.229,8.368
1747066150.81,0.055,0.022,-0.042,-1.396,-0.295,-0.576,-51.801,13.601,7.982
1747066150.83,0.044,-0.047,0.069,-1.558,-0.177,-0.434,-53.566,13.057,7.663
1747066150.85,0.066,-0.075,0.079,-1.623,-0.208,-0.226,-55.453,12.962,7.754
1747066150.87,0.076,-0.071,-0.003,-1.460,-0.368,-0.121,-57.215,12.931,8.132
1747066150.89,0.068,-0.080,0.009,-1.365,-0.576,-0.154,-58.787,12.750,8.547
1747066150.91,0.016,-0.022,0.042,-1.354,-0.923,-0.392,-60.392,11.985,8.640
1747066150.93,-0.042,-0.027,-0.020,-1.280,-0.852,-0.537,-61.946,10.411,8.082
1747066150.95,0.030,-0.060,0.060,-1.491,-0.482,-0.321,-63.599,9.253,7.574
1747066150.97,0.049,-0.121,-0.016,-1.387,-0.818,-0.097,-65.276,8.602,7.652
1747066150.99,0.089,-0.143,0.043,-1.406,-1.002,0.067,-66.825,8.021,8.170
1747066151.01,0.102,-0.124,0.128,-1.643,-0.978,0.218,-68.527,7.851,9.234
1747066151.03,0.071,-0.062,0.035,-1.702,-0.903,0.261,-70.406,8.259,10.807
1747066151.05,0.028,-0.059,-0.005,-1.485,-0.968,0.245,-72.175,8.868,12.559
1747066151.07,0.045,-0.049,-0.027,-1.233,-1.128,0.237,-73.648,9.297,14.290
1747066151.09,0.102,-0.004,-0.031,-1.270,-1.008,0.232,-75.002,9.920,16.185
1747066151.11,0.031,-0.007,-0.029,-1.169,-1.219,0.114,-76.352,10.455,18.031
1747066151.13,-0.055,-0.021,-0.090,-1.055,-1.391,-0.051,-77.581,9.996,19.120
1747066151.15,-0.053,-0.052,-0.074,-1.129,-1.131,0.071,-78.805,9.429,20.051
1747066151.17,-0.039,-0.089,0.026,-1.120,-0.658,0.350,-80.047,10.955,22.627
1747066151.19,-0.107,-0.078,-0.035,-0.830,-0.443,0.398,-81.050,14.484,26.834
1747066151.21,-0.095,-0.066,-0.079,-0.517,-0.302,0.216,-81.687,17.806,30.608
1747066151.23,-0.127,0.011,-0.178,-0.174,-0.316,-0.134,-82.054,18.794,31.929
1747066151.25,-0.304,0.086,-0.257,0.191,-0.510,-0.537,-82.129,15.541,29.143
1747066151.27,-0.446,0.093,-0.090,-0.093,-0.200,-0.727,-82.181,9.557,23.557
1747066151.29,-0.372,0.009,0.146,-0.712,0.511,-0.436,-82.718,4.776,18.583
1747066151.31,-0.119,-0.044,0.263,-1.193,0.949,-0.047,-83.848,4.365,17.249
1747066151.33,0.082,-0.054,0.206,-1.127,0.495,0.120,-85.230,7.162,19.155
1747066151.35,0.248,-0.040,0.079,-0.442,-0.252,0.259,-86.098,12.344,24.255
1747066151.37,0.313,0.026,0.015,-0.011,-0.152,0.020,-86.242,15.752,27.978
1747066151.39,0.187,0.003,-0.094,-0.043,-0.230,-0.248,-86.305,12.898,25.239
1747066151.41,-0.003,-0.077,-0.205,-0.207,-0.903,-0.010,-86.456,9.970,22.975
1747066151.43,-0.116,-0.035,-0.109,-0.474,-0.800,0.215,-86.824,12.541,26.611
1747066151.45,-0.139,0.048,-0.023,-0.362,-0.107,0.242,-87.253,19.946,34.551
1747066151.47,-0.120,0.054,0.050,0.096,0.418,0.189,-87.296,26.310,40.719
1747066151.49,-0.089,0.033,0.069,0.298,0.509,0.088,-86.991,27.342,41.177
1747066151.51,-0.034,-0.000,0.095,0.182,0.148,0.015,-86.707,26.282,39.707
1747066151.53,0.031,-0.031,0.103,-0.017,-0.295,0.022,-86.619,25.665,39.191
1747066151.55,0.048,-0.022,0.008,-0.129,-0.484,0.057,-86.684,26.728,40.719
1747066151.57,-0.002,0.003,-0.048,-0.119,-0.444,0.082,-86.778,28.618,43.165
1747066151.59,-0.072,0.015,-0.010,-0.048,-0.307,0.084,-86.813,30.572,45.548
1747066151.61,-0.147,0.033,0.028,-0.037,-0.198,0.006,-86.817,31.540,46.809
1747066151.63,-0.159,0.025,0.020,-0.072,-0.016,-0.078,-86.895,31.214,46.618
1747066151.65,-0.087,0.015,0.022,-0.071,0.192,-0.072,-87.019,30.724,46.017
1747066151.67,-0.010,0.019,0.011,0.018,0.176,-0.056,-87.083,30.042,45.107
1747066151.69,0.001,-0.008,0.018,0.073,0.090,-0.052,-87.059,28.592,43.503
1747066151.71,-0.032,-0.044,-0.022,0.081,-0.028,-0.037,-87.009,26.857,41.732
1747066151.73,-0.026,-0.020,-0.043,0.103,0.041,0.009,-86.930,25.562,40.454
1747066151.75,0.008,0.028,-0.010,0.184,0.248,0.043,-86.774,25.014,39.730
1747066151.77,0.002,0.011,0.029,0.235,0.223,0.049,-86.530,24.445,38.862
1747066151.79,-0.022,-0.026,0.038,0.159,0.075,0.023,-86.298,23.656,37.903
1747066151.81,-0.022,-0.019,0.053,0.105,-0.022,-0.006,-86.157,22.702,36.921
1747066151.83,0.003,-0.008,0.050,0.149,-0.060,-0.005,-86.030,21.701,35.970
1747066151.85,0.010,-0.008,0.029,0.247,-0.049,0.020,-85.831,20.706,35.030
1747066151.87,-0.024,0.001,-0.012,0.410,-0.052,-0.018,-85.487,19.064,33.449
1747066151.89,-0.043,-0.006,-0.072,0.442,0.039,-0.068,-85.040,16.648,31.030
1747066151.91,-0.033,-0.014,-0.098,0.357,0.121,-0.053,-84.607,14.561,28.842
1747066151.93,0.027,-0.012,-0.037,0.284,0.058,-0.027,-84.278,13.392,27.548
1747066151.95,0.065,-0.003,-0.010,0.442,-0.007,-0.036,-83.900,12.236,26.357
1747066151.97,0.050,-0.010,-0.010,0.730,-0.099,-0.017,-83.247,10.648,24.825
1747066151.99,-0.002,-0.021,-0.005,0.887,-0.137,0.012,-82.320,9.259,23.563
1747066152.01,-0.104,-0.035,-0.024,0.836,-0.064,-0.040,-81.323,8.002,22.427
1747066152.03,-0.169,-0.032,0.015,0.579,0.179,-0.101,-80.531,6.889,21.236
1747066152.05,-0.115,0.001,0.063,0.414,0.404,-0.101,-79.997,6.161,20.159
1747066152.07,-0.007,0.031,0.048,0.486,0.551,-0.088,-79.511,5.829,19.257
1747066152.09,0.065,0.039,0.029,0.639,0.605,-0.067,-78.884,5.697,18.434
1747066152.11,0.085,0.022,-0.024,0.706,0.516,-0.038,-78.106,5.674,17.755
1747066152.13,0.066,-0.014,-0.029,0.520,0.396,-0.043,-77.406,5.717,17.243
1747066152.15,0.024,-0.027,0.006,0.441,0.241,-0.057,-76.876,5.546,16.726
1747066152.17,-0.003,-0.009,0.003,0.511,0.293,-0.043,-76.351,5.386,16.252
1747066152.19,-0.010,0.016,-0.034,0.619,0.225,-0.020,-75.709,5.299,15.854
1747066152.21,-0.008,0.015,-0.019,0.560,0.372,-0.014,-75.019,5.302,15.526
1747066152.23,-0.018,-0.019,-0.049,0.516,0.429,-0.026,-74.422,5.492,15.224
1747066152.25,-0.035,-0.044,0.009,0.420,0.343,-0.049,-73.883,5.594,14.877
1747066152.27,-0.036,-0.030,0.009,0.375,0.372,-0.035,-73.454,5.665,14.539
1747066152.29,0.021,0.010,0.023,0.572,0.461,-0.024,-72.923,5.844,14.233
1747066152.31,0.058,0.007,0.014,0.670,0.444,0.027,-72.203,6.143,13.991
1747066152.33,0.026,0.001,-0.020,0.585,0.353,0.028,-71.468,6.464,15.554
1747066152.35,-0.024,0.008,-0.003,0.407,0.346,0.031,-70.897,6.740,18.804
1747066152.37,-0.019,0.008,0.047,0.411,0.262,0.055,-70.459,7.142,22.135
1747066152.38,-0.058,0.026,-0.045,0.620,-0.012,-0.033,-69.869,7.104,25.197
1747066152.41,-0.037,0.034,-0.042,0.603,0.212,-0.088,-69.171,6.744,27.909
1747066152.43,0.006,-0.008,0.043,0.582,0.525,-0.064,-68.525,6.803,30.557
1747066152.44,-0.025,-0.052,-0.044,0.519,0.107,-0.046,-67.877,6.816,33.212
1747066152.46,-0.032,-0.021,-0.015,0.362,0.192,-0.019,-67.401,6.676,35.944
1747066152.48,0.040,0.029,0.024,0.324,0.380,0.088,-67.009,7.054,38.834
1747066152.50,0.071,-0.000,-0.044,0.502,0.061,0.069,-66.566,7.424,41.823
1747066152.52,0.060,-0.033,0.016,0.702,0.268,0.038,-65.844,7.442,44.496
1747066152.54,0.041,-0.034,-0.008,0.589,0.260,0.083,-65.085,7.731,47.155
1747066152.56,-0.006,-0.035,0.019,0.404,0.144,0.148,-64.510,8.039,49.956
1747066152.58,-0.037,-0.026,0.038,0.449,0.171,0.181,-64.023,8.451,52.856
1747066152.60,-0.064,-0.004,-0.018,0.570,0.148,0.148,-63.420,8.889,55.664
1747066152.62,-0.056,0.022,-0.041,0.686,0.255,0.103,-62.674,9.118,58.223
1747066152.64,-0.037,0.042,-0.024,0.731,0.256,0.056,-61.851,9.372,60.569
1747066152.66,-0.028,0.017,0.006,0.585,0.309,0.018,-61.101,9.457,62.763
1747066152.68,0.018,-0.043,0.069,0.496,0.402,0.137,-60.485,9.880,65.047
1747066152.70,0.041,-0.053,0.003,0.517,0.191,0.200,-59.907,10.407,67.562
1747066152.72,0.035,-0.018,-0.065,0.775,0.018,0.117,-59.141,10.586,69.892
1747066152.74,0.027,0.025,-0.094,0.793,0.044,0.062,-58.211,10.488,71.945
1747066152.76,-0.023,0.040,0.030,0.630,0.118,0.006,-57.410,10.435,73.875
1747066152.78,-0.058,-0.022,0.016,0.538,0.119,0.102,-56.755,10.425,75.816
1747066152.80,-0.018,-0.057,0.019,0.557,0.337,0.226,-56.105,10.830,78.001
1747066152.82,0.038,-0.002,-0.024,0.670,0.192,0.188,-55.373,11.311,80.179
1747066152.84,0.046,0.053,0.036,0.728,0.170,0.144,-54.550,11.555,82.157
1747066152.86,-0.019,0.031,-0.022,0.634,0.065,0.127,-53.742,11.650,84.029
1747066152.88,0.005,-0.014,-0.008,0.522,0.111,0.194,-53.065,11.817,85.932
1747066152.90,0.055,-0.018,0.012,0.513,0.050,0.290,-52.440,12.122,87.976
1747066152.92,0.045,0.015,0.028,0.568,0.156,0.280,-51.775,12.462,90.047
1747066152.94,0.001,0.003,0.011,0.678,0.208,0.162,-51.016,12.828,91.903
1747066152.96,-0.031,-0.035,-0.032,0.611,0.133,0.181,-50.245,13.026,93.563
1747066152.98,-0.011,-0.039,-0.039,0.600,0.079,0.262,-49.520,13.244,95.325
1747066153.00,-0.036,-0.033,-0.030,0.648,0.138,0.253,-48.759,13.512,97.084
1747066153.02,-0.067,-0.018,-0.020,0.629,0.309,0.168,-47.991,13.850,98.709
1747066153.04,-0.027,-0.011,0.043,0.633,0.288,0.170,-47.255,14.217,100.186
1747066153.06,0.021,0.029,0.024,0.684,0.091,0.178,-46.471,14.438,101.635
1747066153.08,0.003,0.045,-0.037,0.699,0.032,0.202,-45.650,14.486,101.651
1747066153.10,-0.007,0.032,-0.022,0.699,0.153,0.241,-44.809,14.648,101.712
1747066153.12,0.014,0.024,0.061,0.733,0.166,0.226,-43.956,14.882,101.777
1747066153.14,0.024,-0.031,0.087,0.788,0.131,0.317,-43.034,15.129,101.870
1747066153.16,-0.022,-0.070,-0.042,0.706,0.121,0.383,-42.091,15.378,102.091
1747066153.18,0.016,-0.028,0.013,0.644,0.336,0.295,-41.278,15.903,102.319
1747066153.20,-0.055,0.001,-0.038,0.734,0.064,0.288,-40.437,16.163,102.459
1747066153.22,-0.098,0.044,0.034,0.867,0.053,0.206,-39.476,16.267,102.485
1747066153.24,-0.053,0.027,0.109,1.045,0.064,0.129,-38.408,16.267,102.290
1747066153.26,0.005,-0.093,-0.033,0.948,-0.000,0.311,-37.214,16.200,102.207
1747066153.28,0.050,-0.046,-0.030,0.809,-0.085,0.373,-36.152,16.258,102.338
1747066153.30,-0.052,-0.013,-0.013,0.777,0.098,0.390,-35.158,16.369,102.537
1747066153.32,-0.122,-0.005,0.023,0.763,0.334,0.347,-34.209,16.725,103.331
1747066153.34,-0.036,-0.027,0.071,0.890,0.220,0.328,-33.207,17.111,104.036
1747066153.36,-0.002,-0.000,0.069,1.072,0.272,0.271,-32.004,17.364,105.167
1747066153.38,-0.009,-0.000,-0.087,0.933,0.235,0.364,-30.762,17.646,105.135
1747066153.40,-0.003,0.046,-0.022,0.811,0.272,0.424,-29.710,18.031,105.300
1747066153.42,-0.075,0.006,-0.024,0.836,0.329,0.375,-28.668,18.441,105.474
1747066153.44,-0.030,-0.073,0.016,0.950,0.214,0.281,-27.602,18.786,105.517
1747066153.46,0.076,0.009,0.080,1.111,0.117,0.148,-26.426,18.945,105.331
1747066153.48,-0.039,-0.035,0.004,0.995,0.173,0.226,-25.197,18.970,105.098
1747066153.50,-0.026,0.024,0.017,0.941,0.246,0.338,-24.065,19.209,105.053
1747066153.52,0.018,0.032,0.030,0.954,0.281,0.371,-22.899,19.521,105.079
1747066153.54,0.059,0.027,0.071,0.982,0.412,0.278,-21.750,19.939,105.049
1747066153.56,-0.000,-0.055,0.001,1.052,0.245,0.298,-20.521,20.237,104.948
1747066153.58,-0.045,0.032,0.024,1.014,0.259,0.367,-19.280,20.498,104.870
1747066153.60,-0.002,0.048,0.048,0.988,0.287,0.459,-18.037,20.845,104.909
1747066153.62,0.009,-0.001,0.082,0.986,0.456,0.405,-16.808,21.261,104.977
1747066153.64,0.026,-0.109,0.012,1.040,0.376,0.377,-15.557,21.724,104.973
1747066153.66,-0.034,-0.084,0.019,1.044,0.338,0.338,-14.307,22.114,104.894
1747066153.68,-0.028,-0.022,0.014,1.061,0.306,0.381,-13.045,22.457,104.820
1747066153.70,0.005,0.018,0.065,1.109,0.302,0.474,-11.715,22.802,104.783
1747066153.72,0.033,-0.027,0.102,1.119,0.321,0.519,-10.326,23.173,104.827
1747066153.74,0.072,-0.147,0.073,1.102,0.305,0.498,-8.930,23.530,104.863
1747066153.76,0.039,-0.067,0.015,1.162,0.326,0.592,-7.497,23.908,104.906
1747066153.78,-0.019,0.057,0.018,1.222,0.342,0.619,-5.965,24.299,104.986
1747066153.80,-0.018,0.001,0.013,1.253,0.325,0.599,-4.386,24.687,105.029
1747066153.82,-0.027,-0.066,0.052,1.172,0.198,0.593,-2.832,25.003,105.066
1747066153.84,0.016,-0.058,0.015,1.182,0.096,0.493,-1.359,25.162,105.050
1747066153.86,0.045,-0.033,-0.135,1.249,0.052,0.500,0.130,25.253,104.986
1747066153.88,-0.129,0.081,-0.083,1.300,0.153,0.407,1.674,25.361,104.829
1747066153.90,-0.136,0.025,0.007,1.388,0.237,0.288,3.222,25.618,104.541
1747066153.92,-0.031,0.007,0.067,1.483,0.163,0.253,4.827,25.891,104.109
1747066153.94,0.054,0.008,0.021,1.544,-0.127,0.224,6.525,25.983,103.575
1747066153.96,0.001,0.006,0.016,1.414,-0.222,0.271,8.135,25.794,103.064
1747066153.98,-0.008,-0.004,-0.122,1.444,-0.010,0.303,9.749,25.730,102.675
1747066154.00,0.008,-0.026,-0.013,1.432,0.134,0.305,11.377,25.854,102.259
1747066154.02,-0.051,-0.062,0.057,1.385,0.259,0.261,12.968,26.175,101.841
1747066154.04,-0.026,-0.012,-0.008,1.358,0.216,0.308,14.501,26.549,101.417
1747066154.06,0.179,0.089,-0.078,1.452,0.020,0.411,16.123,26.798,101.053
1747066154.08,0.141,-0.019,-0.089,1.433,0.035,0.358,17.807,26.899,100.692
1747066154.10,-0.018,-0.070,-0.040,1.388,0.223,0.354,19.423,27.152,100.308
1747066154.12,-0.011,-0.164,-0.020,1.278,0.383,0.360,20.958,27.638,99.938
1747066154.14,0.050,-0.112,-0.014,1.180,0.382,0.402,22.405,28.201,99.648
1747066154.16,0.017,-0.063,-0.060,1.025,0.346,0.407,23.737,28.695,99.443
1747066154.18,0.091,-0.076,-0.170,0.968,0.358,0.435,24.964,29.161,99.295
1747066154.20,0.009,-0.106,-0.188,0.847,0.363,0.343,26.087,29.616,99.154
1747066154.22,0.006,-0.061,-0.191,0.764,0.400,0.268,27.065,30.141,98.993
1747066154.24,0.044,-0.069,-0.162,0.615,0.365,0.161,27.871,30.698,98.778
1747066154.26,0.103,-0.110,-0.240,0.449,0.146,0.055,28.464,31.112,98.535
1747066154.28,0.151,-0.132,-0.221,0.208,0.020,0.036,28.802,31.262,98.367
1747066154.30,0.031,-0.154,-0.232,-0.042,-0.057,-0.016,28.900,31.260,98.318
1747066154.32,0.127,-0.205,-0.168,-0.300,-0.053,-0.081,28.704,31.184,98.371
1747066154.34,0.099,-0.176,-0.214,-0.480,-0.100,-0.139,28.258,31.032,98.508
1747066154.36,0.113,-0.155,-0.160,-0.698,-0.123,-0.175,27.590,30.808,98.721
1747066154.38,0.152,-0.149,-0.167,-0.977,-0.174,-0.209,26.659,30.512,99.055
1747066154.40,0.137,-0.154,-0.199,-1.136,-0.238,-0.221,25.473,30.071,99.511
1747066154.42,0.121,-0.154,-0.110,-1.246,-0.291,-0.298,24.162,29.562,99.972
1747066154.44,0.066,-0.123,-0.099,-1.356,-0.247,-0.352,22.684,29.091,100.404
1747066154.46,0.065,-0.080,-0.103,-1.470,-0.252,-0.376,21.058,28.636,100.856
1747066154.48,0.110,-0.092,-0.185,-1.547,-0.298,-0.355,19.350,28.161,101.349
1747066154.50,0.082,-0.078,-0.091,-1.576,-0.258,-0.388,17.562,27.685,101.828
1747066154.52,0.055,-0.046,0.008,-1.659,-0.229,-0.364,15.726,27.256,102.313
1747066154.54,0.024,-0.031,-0.076,-1.673,-0.217,-0.350,13.850,26.895,102.842
1747066154.56,-0.004,-0.032,-0.074,-1.697,-0.262,-0.477,11.910,26.502,103.301
1747066154.58,0.048,-0.054,-0.024,-1.730,-0.300,-0.468,9.914,26.108,103.676
1747066154.60,0.046,-0.052,-0.058,-1.692,-0.214,-0.368,7.946,25.748,104.109
1747066154.62,-0.027,0.007,-0.027,-1.718,-0.298,-0.334,6.027,25.381,104.595
1747066154.64,-0.068,0.011,-0.059,-1.677,-0.179,-0.429,4.092,25.106,105.031
1747066154.66,-0.017,-0.041,-0.012,-1.718,-0.270,-0.460,2.093,24.823,105.386
1747066154.68,0.037,-0.063,-0.069,-1.620,-0.296,-0.505,0.158,24.494,105.671
1747066154.70,-0.038,-0.060,-0.024,-1.617,-0.460,-0.540,-1.785,24.054,105.906
1747066154.72,-0.082,-0.068,-0.066,-1.612,-0.386,-0.594,-3.723,23.556,106.036
1747066154.74,-0.038,-0.070,0.002,-1.674,-0.258,-0.547,-5.691,23.211,106.190
1747066154.76,0.095,-0.091,0.071,-1.743,-0.280,-0.529,-7.753,22.945,106.397
1747066154.78,0.174,-0.165,0.022,-1.745,-0.307,-0.421,-9.782,22.622,106.659
1747066154.80,0.094,-0.145,0.069,-1.705,-0.194,-0.264,-11.763,22.411,107.067
1747066154.82,-0.027,-0.076,0.065,-1.767,0.036,-0.195,-13.683,22.430,107.594
1747066154.84,-0.035,-0.053,0.017,-1.693,0.144,-0.176,-15.586,22.708,108.185
1747066154.86,-0.031,-0.069,0.028,-1.685,0.097,-0.356,-17.469,22.988,108.694
1747066154.88,-0.011,-0.103,-0.020,-1.707,0.053,-0.528,-19.461,23.178,108.983
1747066154.90,0.012,-0.080,0.052,-1.625,-0.089,-0.528,-21.462,23.232,109.190
1747066154.92,0.004,-0.001,0.079,-1.460,-0.147,-0.528,-23.314,23.152,109.348
1747066154.94,-0.029,0.022,0.038,-1.437,-0.151,-0.509,-25.050,23.001,109.446
1747066154.96,-0.056,-0.039,-0.099,-1.433,0.059,-0.530,-26.787,22.971,109.557
1747066154.98,-0.094,-0.104,0.042,-1.422,0.078,-0.605,-28.549,23.138,109.618
1747066155.00,-0.134,-0.130,0.037,-1.387,-0.141,-0.734,-30.311,23.027,109.522
1747066155.02,-0.068,-0.090,0.050,-1.500,-0.089,-0.775,-32.182,22.798,109.338
1747066155.04,0.008,-0.045,-0.023,-1.410,0.107,-0.698,-34.048,22.699,109.171
1747066155.06,0.030,-0.039,-0.004,-1.341,0.277,-0.621,-35.783,22.875,109.068
1747066155.08,0.079,-0.078,-0.008,-1.329,0.320,-0.582,-37.448,23.194,109.019
1747066155.10,0.073,-0.121,0.038,-1.367,0.188,-0.537,-39.124,23.518,109.046
1747066155.12,0.056,-0.145,-0.050,-1.385,0.202,-0.454,-40.779,23.794,109.183
1747066155.14,0.037,-0.092,-0.037,-1.443,0.197,-0.411,-42.462,24.246,109.478
1747066155.16,0.001,-0.020,-0.015,-1.295,0.041,-0.518,-44.110,24.562,109.727
1747066155.18,-0.025,0.016,-0.002,-1.249,-0.108,-0.715,-45.701,24.455,109.656
1747066155.20,0.057,-0.016,-0.002,-1.439,-0.058,-0.736,-47.449,24.205,109.446
1747066155.22,0.152,-0.053,0.066,-1.448,-0.165,-0.550,-49.287,24.104,109.456
1747066155.24,0.071,-0.014,0.008,-1.230,-0.362,-0.465,-50.908,23.951,109.646
1747066155.26,-0.087,0.060,-0.072,-1.195,-0.492,-0.627,-52.404,23.431,109.625
1747066155.28,-0.145,0.036,-0.036,-1.149,-0.408,-0.748,-53.956,22.625,109.280
1747066155.29,-0.110,-0.041,-0.022,-1.169,-0.290,-0.754,-55.496,21.803,108.750
1747066155.31,-0.042,-0.096,0.032,-1.236,-0.266,-0.706,-57.084,21.073,108.251
1747066155.33,0.031,-0.161,0.034,-1.235,-0.335,-0.529,-58.669,20.468,107.931
1747066155.35,0.056,-0.146,0.032,-1.124,-0.383,-0.331,-60.104,20.079,107.972
1747066155.37,0.042,-0.086,-0.040,-1.061,-0.325,-0.325,-61.385,19.815,108.138
1747066155.39,0.040,-0.109,0.009,-1.145,-0.346,-0.397,-62.710,19.528,108.221
1747066155.41,0.037,-0.144,0.009,-1.254,-0.403,-0.344,-64.119,19.099,108.264
1747066155.43,0.061,-0.143,0.105,-1.490,-0.234,-0.091,-65.709,19.382,108.949
1747066155.45,0.012,-0.066,0.006,-1.289,-0.421,0.010,-67.240,20.255,110.281
1747066155.47,-0.028,0.040,-0.059,-1.023,-0.660,-0.152,-68.476,20.583,111.315
1747066155.49,0.010,0.089,-0.046,-0.944,-0.743,-0.384,-69.633,20.034,111.599
1747066155.51,0.046,0.039,-0.067,-1.004,-0.649,-0.486,-70.836,18.919,111.250
1747066155.53,-0.018,-0.040,-0.056,-1.125,-0.932,-0.472,-72.151,17.588,110.789
1747066155.55,-0.036,-0.108,0.032,-1.433,-0.982,-0.314,-73.682,16.415,110.718
1747066155.57,-0.008,-0.102,0.025,-1.529,-0.874,-0.023,-75.389,16.446,111.861
1747066155.59,0.034,-0.099,0.051,-1.317,-0.753,0.189,-76.927,17.919,114.330
1747066155.61,0.089,-0.050,0.016,-0.919,-0.609,0.147,-78.069,19.905,117.178
1747066155.63,0.160,-0.024,-0.034,-0.614,-0.467,-0.026,-78.852,21.119,119.016
1747066155.65,0.127,-0.060,-0.119,-0.419,-0.692,-0.159,-79.438,21.006,119.549
1747066155.67,-0.047,-0.073,-0.225,-0.438,-0.978,-0.096,-79.922,20.048,119.562
1747066155.69,-0.184,-0.028,-0.096,-0.677,-0.976,0.100,-80.531,20.269,120.938
1747066155.71,-0.268,0.018,0.023,-0.492,-0.868,0.077,-81.143,21.436,123.202
1747066155.73,-0.250,0.055,0.111,-0.320,-0.412,-0.027,-81.541,21.925,124.464
1747066155.75,-0.188,0.058,0.154,-0.276,0.119,-0.177,-81.893,21.911,124.607
1747066155.77,-0.128,0.025,0.123,-0.332,0.245,-0.265,-82.306,21.265,123.697
1747066155.79,-0.019,0.018,0.070,-0.398,0.183,-0.191,-82.797,20.715,122.901
1747066155.81,0.113,-0.002,0.006,-0.373,0.093,-0.109,-83.274,20.923,122.942
1747066155.83,0.131,0.005,-0.045,-0.305,-0.086,-0.061,-83.665,21.353,123.368
1747066155.85,0.021,0.002,0.001,-0.333,-0.144,0.015,-84.013,22.120,124.281
1747066155.87,-0.065,-0.036,0.043,-0.244,-0.079,0.118,-84.290,24.087,126.404
1747066155.89,-0.152,-0.013,0.027,-0.279,0.193,0.083,-84.489,26.514,128.778
1747066155.91,-0.136,0.005,-0.058,-0.332,0.230,-0.014,-84.790,28.957,130.962
1747066155.93,-0.006,-0.003,-0.025,-0.242,0.105,-0.067,-85.105,30.506,132.320
1747066155.95,0.071,-0.003,0.033,-0.142,-0.090,-0.096,-85.339,30.894,132.691
1747066155.97,0.042,-0.003,-0.006,-0.078,-0.304,-0.086,-85.495,30.194,132.227
1747066155.99,-0.004,-0.022,-0.008,-0.108,-0.247,-0.012,-85.613,29.845,132.223
1747066156.01,-0.030,-0.016,0.025,-0.072,0.003,0.102,-85.686,31.055,133.575
1747066156.03,-0.059,0.010,0.038,0.001,0.250,0.163,-85.627,33.168,135.551
1747066156.05,-0.104,0.050,-0.000,0.016,0.314,0.096,-85.533,35.276,137.316
1747066156.07,-0.109,0.028,-0.015,0.071,0.277,-0.017,-85.464,35.569,137.279
1747066156.09,-0.016,-0.014,0.068,0.006,0.300,-0.021,-85.440,35.318,136.682
1747066156.11,0.033,-0.013,0.030,0.036,0.077,-0.042,-85.448,35.098,136.243
1747066156.13,0.022,0.010,-0.027,0.091,0.014,-0.032,-85.416,34.021,135.127
1747066156.15,-0.039,0.020,-0.025,0.118,0.013,-0.055,-85.343,32.612,133.699
1747066156.17,-0.068,0.010,0.013,0.127,0.032,-0.115,-85.283,30.744,131.800
1747066156.19,-0.046,-0.012,0.042,0.132,0.105,-0.131,-85.228,28.485,129.462
1747066156.21,-0.042,-0.010,-0.008,0.153,0.168,-0.129,-85.146,26.190,127.002
1747066156.23,-0.010,0.005,-0.030,0.184,0.236,-0.122,-85.037,23.913,124.475
1747066156.25,0.008,0.019,-0.052,0.253,0.157,-0.141,-84.867,21.435,121.748
1747066156.27,0.013,0.011,-0.048,0.209,0.032,-0.148,-84.679,18.666,118.866
1747066156.29,0.030,-0.023,-0.051,0.086,0.000,-0.113,-84.570,16.531,116.717
1747066156.31,0.079,-0.061,-0.015,0.013,0.050,-0.025,-84.549,15.584,115.732
1747066156.33,0.118,-0.050,-0.032,0.150,-0.071,0.044,-84.464,15.518,115.664
1747066156.35,0.093,-0.009,-0.018,0.207,-0.312,0.090,-84.224,15.482,115.840
1747066156.37,0.002,0.008,-0.027,0.170,-0.534,0.068,-83.988,15.331,116.184
1747066156.39,-0.063,0.019,-0.029,0.113,-0.493,0.039,-83.810,14.850,116.321
1747066156.41,-0.053,0.011,0.069,0.046,-0.220,0.037,-83.720,14.581,116.459
1747066156.43,-0.055,-0.010,0.088,0.059,-0.079,0.064,-83.652,14.770,116.805
1747066156.45,-0.076,0.022,0.044,0.122,-0.106,0.059,-83.536,15.070,117.204
1747066156.47,-0.073,0.043,0.000,0.169,-0.191,0.009,-83.360,14.880,117.181
1747066156.49,-0.051,0.027,-0.034,0.149,-0.190,-0.030,-83.183,14.078,116.609
1747066156.51,-0.004,-0.011,0.005,0.171,-0.121,-0.004,-83.024,13.383,116.086
1747066156.53,0.024,-0.033,0.032,0.262,-0.086,0.051,-82.781,13.034,115.849
1747066156.55,0.015,-0.041,0.052,0.366,-0.087,0.091,-82.417,12.889,115.802
1747066156.57,-0.015,-0.025,0.063,0.423,-0.101,0.083,-81.951,12.712,115.733
1747066156.59,-0.060,-0.006,0.030,0.466,-0.133,0.044,-81.443,12.310,115.458
1747066156.61,-0.094,0.014,-0.009,0.547,-0.165,-0.015,-80.879,11.482,114.794
1747066156.63,-0.083,0.046,-0.036,0.571,0.042,-0.050,-80.242,10.372,113.774
1747066156.65,-0.031,0.037,0.036,0.542,0.355,-0.041,-79.635,9.683,112.834
1747066156.67,0.009,0.004,0.075,0.566,0.554,0.028,-79.016,9.605,112.212
1747066156.69,-0.003,-0.017,0.030,0.667,0.572,0.063,-78.313,9.952,111.896
1747066156.71,-0.040,-0.027,0.003,0.758,0.457,0.010,-77.497,10.075,111.425
1747066156.73,-0.033,-0.013,0.073,0.603,0.549,-0.033,-76.716,9.966,110.738
1747066156.75,0.017,0.011,0.065,0.502,0.481,-0.028,-76.122,9.989,110.127
1747066156.77,0.040,0.021,0.035,0.573,0.106,-0.006,-75.526,9.862,109.634
1747066156.79,-0.013,0.035,-0.004,0.586,-0.060,-0.061,-74.865,9.304,109.075
1747066156.81,-0.068,0.025,0.012,0.519,0.180,-0.142,-74.256,8.563,108.265
1747066156.83,-0.078,0.022,0.076,0.510,0.570,-0.148,-73.712,8.114,107.332
1747066156.85,-0.069,0.021,-0.005,0.567,0.677,-0.063,-73.109,8.142,106.591
1747066156.87,-0.027,-0.017,0.051,0.535,0.663,-0.025,-72.487,8.478,106.144
1747066156.89,-0.018,-0.071,0.011,0.543,0.609,-0.052,-71.895,8.784,105.703
1747066156.91,-0.040,-0.094,-0.113,0.546,0.654,-0.051,-71.279,8.998,105.190
1747066156.93,-0.018,-0.049,-0.100,0.638,0.697,-0.047,-70.644,9.335,104.723
1747066156.95,0.000,0.003,-0.092,0.948,0.559,-0.108,-69.770,9.441,104.046
1747066156.97,-0.027,0.018,-0.074,0.985,0.524,-0.137,-68.661,9.149,103.118
1747066156.99,-0.052,-0.013,-0.081,0.766,0.560,-0.104,-67.699,9.070,102.328
1747066157.01,-0.060,-0.071,-0.110,0.673,0.773,-0.034,-66.900,9.233,101.755
1747066157.03,0.048,-0.075,0.031,0.696,0.929,0.104,-66.154,10.111,101.556
1747066157.05,0.095,-0.038,0.014,0.814,0.637,0.153,-65.251,10.949,101.521
1747066157.07,0.144,-0.017,-0.047,0.806,0.428,0.198,-64.303,11.585,101.542
1747066157.09,0.151,-0.046,-0.105,0.636,0.029,0.282,-63.453,12.079,101.787
1747066157.11,0.121,-0.060,-0.017,0.711,0.000,0.257,-62.640,12.329,102.105
1747066157.13,0.101,-0.051,0.066,0.789,-0.015,0.230,-61.755,12.529,102.304
1747066157.15,-0.006,-0.014,0.007,0.960,-0.194,0.166,-60.726,12.398,102.312
1747066157.17,-0.097,0.015,-0.017,0.868,-0.063,0.190,-59.622,12.137,102.220
1747066157.19,-0.100,-0.006,0.064,0.660,0.197,0.283,-58.750,12.389,102.395
1747066157.21,-0.074,-0.048,0.040,0.809,0.222,0.291,-57.864,12.861,102.672
1747066157.23,-0.001,-0.026,0.045,0.870,0.303,0.270,-56.849,13.294,102.829
1747066157.25,0.040,0.007,-0.059,0.900,0.160,0.324,-55.785,13.715,103.002
1747066157.27,0.030,0.043,0.038,0.968,0.034,0.292,-54.671,13.989,103.166
1747066157.29,-0.020,0.002,-0.013,0.891,-0.083,0.299,-53.548,13.978,103.255
1747066157.31,0.020,-0.043,0.002,0.788,0.170,0.336,-52.541,14.221,103.469
1747066157.33,0.006,-0.033,-0.014,0.932,0.050,0.295,-51.510,14.483,103.653
1747066157.35,0.012,0.029,-0.003,1.058,0.067,0.186,-50.337,14.560,103.635
1747066157.37,-0.002,0.056,0.069,1.076,-0.088,0.141,-49.093,14.387,103.403
1747066157.39,-0.018,-0.000,-0.021,0.931,-0.136,0.292,-47.909,14.173,103.319
1747066157.41,0.029,-0.034,-0.050,0.873,-0.047,0.384,-46.832,14.214,103.523
1747066157.43,0.016,-0.040,-0.000,0.986,-0.013,0.319,-45.699,14.311,103.725
1747066157.45,0.005,-0.021,0.000,0.944,0.173,0.252,-44.540,14.422,103.771
1747066157.47,0.035,-0.015,0.082,0.949,0.147,0.256,-43.427,14.657,103.769
1747066157.49,0.025,-0.052,0.074,0.833,0.203,0.432,-42.334,14.926,103.924
1747066157.51,0.083,-0.027,0.006,0.737,0.239,0.512,-41.340,15.467,104.332
1747066157.53,0.059,0.054,0.000,0.833,0.060,0.497,-40.328,15.892,104.750
1747066157.55,-0.029,0.058,-0.024,0.830,0.063,0.389,-39.259,16.166,105.044
1747066157.57,-0.042,0.001,-0.010,0.882,-0.045,0.333,-38.231,16.278,105.202
1747066157.59,-0.050,0.001,-0.012,0.902,0.004,0.351,-37.111,16.262,105.320
1747066157.61,-0.059,0.031,-0.005,0.883,0.006,0.364,-36.013,16.368,105.433
1747066157.63,-0.129,0.054,-0.032,0.948,0.132,0.306,-34.903,16.480,105.527
1747066157.65,-0.117,0.017,-0.060,0.946,0.191,0.220,-33.772,16.664,105.497
1747066157.67,-0.014,0.011,0.063,1.004,0.092,0.138,-32.689,16.818,105.336
1747066157.69,-0.072,-0.097,0.059,1.165,0.024,0.141,-31.467,16.703,105.105
1747066157.71,-0.044,-0.106,0.013,1.187,0.175,0.151,-30.115,16.678,104.842
1747066157.73,0.073,0.014,0.036,1.125,0.119,0.159,-28.798,16.729,104.586
1747066157.75,0.087,0.018,0.026,1.011,0.280,0.269,-27.554,16.893,104.452
1747066157.77,-0.011,-0.055,0.001,0.907,0.314,0.359,-26.403,17.256,104.476
1747066157.79,0.037,-0.002,0.044,0.899,0.280,0.379,-25.298,17.662,104.586
1747066157.81,0.028,0.042,0.054,0.952,0.202,0.387,-24.165,17.956,104.689
1747066157.83,-0.072,-0.023,0.017,0.970,0.366,0.351,-22.981,18.309,104.758
1747066157.85,-0.067,-0.014,-0.039,0.893,0.500,0.350,-21.847,18.819,104.794
1747066157.87,0.018,0.008,-0.010,0.938,0.307,0.424,-20.724,19.298,104.881
1747066157.89,0.010,0.012,0.108,1.059,0.201,0.403,-19.485,19.592,104.966
1747066157.91,-0.004,0.013,0.150,1.087,0.374,0.398,-18.193,19.951,104.961
1747066157.93,-0.071,-0.113,-0.009,1.070,0.486,0.396,-16.877,20.437,104.964
1747066157.95,-0.012,-0.035,-0.033,1.047,0.519,0.400,-15.587,21.022,104.966
1747066157.97,0.025,0.006,0.030,1.063,0.398,0.379,-14.309,21.557,104.950
1747066157.99,0.014,-0.017,0.114,1.134,0.222,0.350,-12.994,21.901,104.862
1747066158.01,-0.007,0.023,0.042,1.132,0.192,0.469,-11.612,22.084,104.789
1747066158.03,-0.047,0.057,0.012,1.032,0.444,0.656,-10.224,22.487,104.927
1747066158.05,-0.060,-0.076,-0.000,0.982,0.656,0.571,-8.902,23.176,105.164
1747066158.07,0.044,-0.086,0.062,1.113,0.482,0.529,-7.565,23.872,105.244
1747066158.09,0.108,0.025,0.073,1.199,0.132,0.607,-6.087,24.207,105.290
1747066158.11,-0.010,0.054,0.013,1.186,0.151,0.707,-4.530,24.351,105.405
1747066158.13,-0.117,-0.008,-0.041,1.122,0.386,0.759,-2.977,24.667,105.637
1747066158.15,-0.078,-0.058,-0.063,1.098,0.479,0.598,-1.513,25.192,105.810
1747066158.17,0.137,-0.097,-0.056,1.157,0.201,0.567,-0.072,25.600,105.849
1747066158.18,0.094,0.026,0.011,1.277,-0.031,0.554,1.469,25.686,105.825
1747066158.20,-0.079,0.114,0.025,1.314,0.005,0.597,3.091,25.658,105.764
1747066158.22,-0.109,-0.006,-0.090,1.244,0.197,0.542,4.695,25.801,105.725
1747066158.24,0.018,-0.100,-0.118,1.163,0.232,0.468,6.172,26.063,105.652
1747066158.26,0.055,-0.086,-0.109,1.208,0.121,0.393,7.608,26.296,105.491
1747066158.28,-0.012,0.012,-0.011,1.216,-0.105,0.353,9.049,26.359,105.244
1747066158.30,-0.036,0.035,-0.005,1.269,-0.169,0.363,10.485,26.226,104.975
1747066158.32,-0.039,0.026,-0.027,1.278,-0.069,0.296,11.962,26.166,104.666
1747066158.34,0.013,-0.070,-0.014,1.301,0.051,0.272,13.429,26.228,104.296
1747066158.36,0.028,-0.069,0.017,1.296,0.174,0.277,14.903,26.457,103.906
1747066158.38,-0.015,0.016,0.058,1.289,0.219,0.241,16.356,26.824,103.488
1747066158.40,0.051,-0.011,-0.017,1.243,0.185,0.295,17.772,27.146,103.091
1747066158.42,0.121,0.049,-0.095,1.255,0.114,0.401,19.229,27.433,102.764
1747066158.44,0.080,-0.054,-0.071,1.207,0.269,0.425,20.714,27.699,102.541
1747066158.46,-0.035,-0.041,0.002,1.144,0.470,0.395,22.110,28.219,102.300
1747066158.48,-0.014,-0.014,-0.005,1.116,0.547,0.409,23.456,28.878,102.078
1747066158.50,0.099,0.021,-0.070,1.124,0.453,0.352,24.790,29.582,101.806
1747066158.52,0.022,-0.028,-0.096,1.075,0.316,0.317,26.077,30.176,101.474
1747066158.54,0.040,-0.053,-0.148,1.008,0.226,0.319,27.294,30.613,101.169
1747066158.56,0.023,-0.106,-0.139,0.907,0.161,0.263,28.400,30.954,100.860
1747066158.58,0.032,-0.087,-0.131,0.765,0.122,0.217,29.357,31.265,100.564
1747066158.60,0.051,-0.102,-0.151,0.603,0.129,0.187,30.147,31.526,100.324
1747066158.62,0.057,-0.146,-0.179,0.384,0.105,0.105,30.722,31.753,100.135
1747066158.64,0.105,-0.165,-0.177,0.113,0.034,0.017,31.000,31.895,100.035
1747066158.66,0.142,-0.245,-0.236,-0.166,-0.035,-0.041,30.971,31.899,100.037
1747066158.68,0.121,-0.207,-0.190,-0.431,-0.097,-0.074,30.637,31.732,100.182
1747066158.70,0.087,-0.200,-0.228,-0.740,-0.103,-0.120,30.018,31.479,100.480
1747066158.72,0.114,-0.215,-0.235,-1.015,-0.098,-0.200,29.069,31.147,100.902
1747066158.74,0.158,-0.203,-0.201,-1.248,-0.187,-0.210,27.846,30.746,101.432
1747066158.76,0.153,-0.150,-0.223,-1.380,-0.264,-0.257,26.413,30.219,102.039
1747066158.78,0.089,-0.140,-0.146,-1.547,-0.299,-0.329,24.795,29.617,102.639
1747066158.80,0.048,-0.137,-0.171,-1.630,-0.329,-0.347,23.026,29.015,103.242
1747066158.82,0.074,-0.110,-0.121,-1.691,-0.343,-0.349,21.167,28.405,103.855
1747066158.84,0.037,-0.065,-0.124,-1.704,-0.372,-0.422,19.252,27.797,104.418
1747066158.86,-0.038,-0.038,-0.062,-1.730,-0.279,-0.514,17.267,27.272,104.868
1747066158.88,0.021,-0.020,-0.064,-1.730,-0.201,-0.514,15.242,26.916,105.262
1747066158.90,0.028,0.011,-0.089,-1.730,-0.201,-0.468,13.227,26.594,105.658
1747066158.92,-0.050,-0.033,-0.018,-1.762,-0.220,-0.457,11.202,26.232,106.077
1747066158.94,-0.034,-0.059,-0.002,-1.746,-0.114,-0.409,9.175,25.976,106.526
1747066158.96,0.014,-0.034,0.032,-1.651,-0.245,-0.410,7.226,25.705,106.976
1747066158.98,-0.035,-0.029,0.063,-1.568,-0.104,-0.459,5.362,25.440,107.314
1747066159.00,-0.113,-0.061,-0.021,-1.525,-0.008,-0.552,3.526,25.373,107.562
1747066159.02,0.007,-0.063,0.025,-1.576,-0.132,-0.626,1.632,25.336,107.706
1747066159.04,0.117,-0.088,0.053,-1.533,-0.357,-0.606,-0.291,24.998,107.816
1747066159.06,0.064,-0.092,0.025,-1.485,-0.250,-0.456,-2.098,24.645,107.981
1747066159.08,-0.048,-0.034,0.022,-1.470,-0.036,-0.407,-3.828,24.479,108.249
1747066159.10,-0.093,0.007,0.057,-1.509,0.047,-0.486,-5.596,24.528,108.496
1747066159.12,-0.038,0.000,0.017,-1.511,0.098,-0.567,-7.413,24.627,108.664
1747066159.14,0.044,-0.023,-0.006,-1.475,0.033,-0.599,-9.242,24.725,108.763
1747066159.16,-0.004,-0.044,-0.007,-1.405,-0.042,-0.635,-11.029,24.711,108.819
1747066159.18,-0.052,-0.051,-0.054,-1.324,-0.017,-0.664,-12.742,24.665,108.782
1747066159.20,-0.044,-0.050,0.032,-1.363,0.052,-0.649,-14.451,24.674,108.746
1747066159.22,0.003,-0.064,0.023,-1.284,0.043,-0.708,-16.149,24.726,108.678
1747066159.24,0.061,-0.102,0.002,-1.237,0.005,-0.787,-17.805,24.681,108.483
1747066159.26,0.101,-0.139,0.005,-1.232,-0.107,-0.750,-19.461,24.574,108.254
1747066159.28,0.094,-0.151,0.028,-1.199,-0.222,-0.651,-21.055,24.334,108.092
1747066159.30,0.039,-0.137,0.019,-1.298,-0.050,-0.607,-22.631,24.093,108.007
1747066159.32,0.010,-0.089,0.006,-1.423,0.041,-0.584,-24.337,24.141,108.027
1747066159.34,0.002,-0.037,0.056,-1.387,0.189,-0.553,-26.073,24.276,108.102
1747066159.36,0.036,0.012,0.053,-1.404,0.245,-0.502,-27.777,24.622,108.222
1747066159.38,0.076,-0.021,-0.022,-1.279,-0.043,-0.437,-29.401,24.809,108.409
1747066159.40,0.058,-0.094,-0.002,-1.158,-0.140,-0.458,-30.864,24.764,108.548
1747066159.42,0.004,-0.145,0.020,-1.201,0.047,-0.519,-32.311,24.731,108.605
1747066159.44,-0.014,-0.150,0.042,-1.316,0.235,-0.495,-33.865,24.951,108.686
1747066159.46,-0.048,-0.120,-0.014,-1.275,0.249,-0.443,-35.438,25.318,108.871
1747066159.48,-0.031,-0.073,-0.016,-1.261,0.427,-0.481,-36.965,25.826,109.063
1747066159.50,0.004,-0.059,-0.069,-1.301,0.226,-0.579,-38.542,26.298,109.188
1747066159.52,0.032,-0.057,-0.019,-1.341,0.156,-0.616,-40.201,26.553,109.258
1747066159.54,0.008,-0.036,-0.005,-1.282,-0.089,-0.633,-41.864,26.609,109.305
1747066159.56,-0.002,0.004,-0.065,-1.246,-0.131,-0.641,-43.479,26.476,109.289
1747066159.58,0.052,0.011,-0.041,-1.252,-0.063,-0.613,-45.072,26.352,109.272
1747066159.60,0.092,-0.013,-0.003,-1.260,-0.154,-0.569,-46.658,26.262,109.311
1747066159.62,0.088,-0.020,-0.037,-1.241,-0.324,-0.543,-48.222,26.070,109.412
1747066159.64,0.006,-0.021,0.016,-1.277,-0.438,-0.625,-49.794,25.666,109.462
1747066159.66,-0.051,-0.043,-0.001,-1.294,-0.393,-0.696,-51.464,25.102,109.381
1747066159.68,-0.031,-0.075,-0.073,-1.170,-0.447,-0.671,-53.074,24.490,109.182
1747066159.70,-0.005,-0.059,-0.038,-1.169,-0.536,-0.667,-54.583,23.713,108.919
1747066159.72,-0.006,-0.046,-0.002,-1.229,-0.628,-0.660,-56.154,22.816,108.636
1747066159.74,-0.019,-0.099,0.083,-1.282,-0.625,-0.564,-57.734,21.924,108.430
1747066159.76,-0.046,-0.094,0.097,-1.315,-0.621,-0.480,-59.344,21.223,108.440
1747066159.78,-0.061,-0.068,-0.041,-1.223,-0.523,-0.486,-60.902,20.556,108.436
1747066159.80,0.005,-0.078,0.007,-1.296,-0.320,-0.360,-62.398,20.126,108.487
1747066159.82,0.040,-0.072,0.053,-1.392,-0.418,-0.177,-63.955,20.217,109.044
1747066159.84,0.036,-0.056,0.050,-1.348,-0.614,-0.101,-65.492,20.522,110.025
1747066159.86,0.028,-0.024,-0.053,-1.134,-0.775,-0.198,-66.867,20.485,110.873
1747066159.88,0.034,-0.018,-0.018,-1.228,-0.830,-0.287,-68.202,20.025,111.363
1747066159.90,0.019,-0.044,0.056,-1.454,-0.815,-0.310,-69.777,19.636,111.939
1747066159.92,-0.028,-0.036,-0.060,-1.303,-1.058,-0.355,-71.412,19.041,112.429
1747066159.94,-0.022,-0.030,-0.040,-1.136,-1.122,-0.293,-72.829,17.961,112.652
1747066159.96,0.002,-0.045,0.088,-1.208,-0.797,-0.146,-74.173,17.437,113.264
1747066159.98,-0.022,-0.057,0.043,-1.234,-0.508,-0.182,-75.571,17.720,114.299
1747066160.00,-0.014,-0.077,-0.069,-1.124,-0.380,-0.253,-76.920,17.850,114.972
1747066160.02,0.041,-0.078,-0.082,-1.196,-0.403,-0.151,-78.253,18.239,115.786
1747066160.04,0.051,-0.064,-0.063,-1.145,-0.548,0.097,-79.535,19.716,117.865
1747066160.06,0.048,-0.024,-0.028,-1.117,-0.524,0.252,-80.657,23.003,121.819
1747066160.08,0.029,-0.012,-0.075,-0.933,-0.629,0.141,-81.635,27.010,126.521
1747066160.10,-0.025,-0.045,-0.075,-0.631,-0.778,-0.053,-82.400,29.476,129.841
1747066160.12,-0.079,-0.081,-0.033,-0.291,-0.895,-0.098,-82.919,29.861,131.192
1747066160.14,-0.172,-0.015,-0.066,0.093,-0.961,-0.051,-83.046,28.635,131.049
1747066160.16,-0.254,0.030,-0.000,0.179,-0.673,0.020,-82.893,26.817,130.193
1747066160.18,-0.253,0.011,0.115,-0.000,-0.182,0.055,-82.767,26.211,130.085
1747066160.20,-0.243,0.014,0.145,-0.239,0.167,-0.008,-82.873,27.029,130.883
1747066160.22,-0.180,0.031,0.134,-0.388,0.191,-0.141,-83.235,28.039,131.683
1747066160.24,-0.076,0.040,0.151,-0.386,0.085,-0.248,-83.744,28.250,131.730
1747066160.26,0.027,0.062,0.138,-0.317,0.064,-0.177,-84.223,27.993,131.398
1747066160.28,0.122,0.034,0.046,-0.173,0.147,-0.076,-84.540,28.201,131.493
1747066160.30,0.167,-0.033,-0.082,-0.141,0.152,0.016,-84.697,28.825,131.932
1747066160.32,0.166,-0.064,-0.129,-0.328,-0.008,0.155,-84.874,31.281,134.299
1747066160.34,0.109,-0.037,-0.071,-0.395,-0.439,0.222,-85.112,35.953,139.224
1747066160.36,-0.012,0.031,0.022,-0.255,-0.797,0.151,-85.275,40.060,144.085
1747066160.38,-0.112,0.042,0.074,-0.083,-0.767,0.068,-85.333,41.787,146.739
1747066160.40,-0.195,0.022,0.016,-0.048,-0.568,-0.005,-85.348,41.757,147.492
1747066160.42,-0.214,0.004,0.039,-0.212,0.151,0.037,-85.452,42.847,148.865
1747066160.44,-0.090,0.016,0.042,-0.152,0.566,0.037,-85.587,45.836,151.393
1747066160.46,0.037,0.018,0.004,0.112,0.595,0.017,-85.583,47.009,151.883
1747066160.48,0.156,0.007,0.006,0.212,0.360,0.058,-85.409,45.896,150.203
1747066160.50,0.162,-0.030,-0.026,0.091,-0.075,0.097,-85.218,45.313,149.435
1747066160.52,0.095,-0.048,-0.078,-0.069,-0.435,0.112,-85.122,45.850,150.298
1747066160.54,0.036,-0.026,-0.059,-0.182,-0.461,0.161,-85.115,47.857,152.854
1747066160.56,-0.008,0.003,-0.033,-0.113,-0.363,0.155,-85.091,50.469,155.954
1747066160.58,-0.030,0.013,0.017,0.026,-0.207,0.092,-85.014,51.618,157.429
1747066160.60,-0.025,0.020,0.020,0.118,-0.191,0.080,-84.883,51.204,157.229
1747066160.62,-0.048,0.032,-0.015,0.090,-0.261,0.113,-84.719,50.726,157.002
1747066160.64,-0.122,0.015,-0.057,0.069,-0.175,0.067,-84.575,50.446,157.006
1747066160.66,-0.111,-0.007,-0.026,0.064,0.197,0.044,-84.491,50.219,156.770
1747066160.68,0.014,-0.004,-0.038,0.113,0.365,0.092,-84.371,50.376,156.576
1747066160.70,0.129,-0.007,0.015,0.183,0.251,0.158,-84.152,50.275,156.098
1747066160.72,0.148,-0.040,0.040,0.207,0.016,0.255,-83.834,50.242,155.908
1747066160.74,0.088,-0.045,-0.025,0.227,-0.259,0.280,-83.422,50.196,156.009
1747066160.76,-0.004,0.007,-0.021,0.128,-0.446,0.206,-83.072,49.918,156.144
1747066160.78,-0.097,0.037,0.029,0.031,-0.482,0.149,-82.861,49.899,156.673
1747066160.80,-0.150,0.039,0.037,0.011,-0.230,0.102,-82.744,50.039,157.258
1747066160.82,-0.136,0.035,0.041,0.092,0.132,0.061,-82.639,50.229,157.479
1747066160.84,-0.089,0.020,0.016,0.182,0.195,-0.026,-82.519,49.543,156.581
1747066160.86,-0.012,0.003,0.012,0.186,0.153,-0.046,-82.413,48.294,155.118
1747066160.88,0.026,-0.007,-0.010,0.186,0.058,-0.031,-82.305,47.025,153.707
1747066160.90,0.018,-0.021,0.005,0.155,-0.055,0.002,-82.180,45.873,152.543
1747066160.92,-0.023,-0.016,0.033,0.148,-0.182,-0.003,-82.056,44.935,151.733
1747066160.94,-0.065,0.018,0.016,0.191,-0.254,-0.072,-81.953,43.535,150.580
1747066160.96,-0.099,0.018,-0.009,0.271,-0.148,-0.140,-81.842,41.427,148.700
1747066160.98,-0.132,0.011,-0.017,0.394,-0.004,-0.204,-81.676,38.623,145.956
1747066161.00,-0.133,0.013,0.003,0.413,0.249,-0.226,-81.447,35.506,142.666
1747066161.01,-0.089,0.011,0.006,0.398,0.444,-0.219,-81.211,32.836,139.556
1747066161.04,0.000,-0.009,0.017,0.447,0.528,-0.183,-80.930,30.554,136.666
1747066161.06,0.048,-0.026,0.014,0.578,0.403,-0.139,-80.506,28.347,133.888
1747066161.07,0.048,-0.029,0.070,0.578,0.298,-0.107,-79.973,26.247,131.349
1747066161.09,0.032,-0.013,0.033,0.585,0.135,-0.103,-79.435,24.356,129.171
1747066161.11,-0.011,0.002,0.001,0.675,0.042,-0.089,-78.816,22.434,127.131
1747066161.13,-0.068,0.019,0.040,0.666,0.137,-0.159,-78.145,20.533,125.088
1747066161.15,-0.097,0.015,0.033,0.734,0.176,-0.268,-77.487,18.421,122.748
1747066161.17,-0.089,0.016,0.072,0.765,0.420,-0.278,-76.749,16.230,120.178
1747066161.19,-0.093,0.035,0.061,0.690,0.562,-0.208,-76.025,14.852,118.123
1747066161.21,-0.120,0.030,0.006,0.645,0.351,-0.246,-75.345,13.657,116.370
1747066161.23,-0.089,0.016,0.031,0.624,0.506,-0.299,-74.709,12.341,114.550
1747066161.25,-0.008,-0.002,-0.003,0.723,0.898,-0.304,-74.055,11.390,112.722
1747066161.27,0.056,-0.023,0.030,0.851,0.850,-0.262,-73.223,10.746,110.950
1747066161.29,0.074,-0.037,-0.037,0.944,0.506,-0.214,-72.247,10.005,109.406
1747066161.31,0.060,-0.052,-0.006,0.807,0.591,-0.169,-71.301,9.518,108.192
1747066161.33,0.022,-0.068,-0.136,0.816,0.461,-0.151,-70.417,9.118,107.174
1747066161.35,0.087,-0.056,0.009,0.851,0.525,-0.089,-69.514,8.934,106.356
1747066161.37,0.077,-0.016,-0.014,1.024,0.378,-0.034,-68.466,8.852,105.698
1747066161.39,-0.004,-0.022,-0.124,0.998,0.256,0.018,-67.291,8.722,105.198
1747066161.41,-0.049,-0.028,-0.039,0.797,0.403,0.004,-66.286,8.781,104.859
1747066161.43,-0.050,-0.019,-0.078,0.781,0.350,-0.020,-65.411,8.886,104.488
1747066161.45,0.039,-0.016,-0.003,0.862,0.399,-0.034,-64.491,8.915,104.074
1747066161.47,0.080,-0.031,0.007,0.900,0.205,-0.039,-63.499,8.922,103.623
1747066161.49,0.032,-0.066,-0.103,0.948,-0.177,-0.035,-62.436,8.438,103.148
1747066161.51,0.113,-0.070,0.022,0.836,0.173,0.086,-61.450,8.191,102.882
1747066161.53,0.176,-0.028,0.040,0.820,0.032,0.283,-60.485,8.525,103.043
1747066161.55,0.148,0.007,0.073,0.880,-0.219,0.347,-59.456,8.724,103.464
1747066161.57,0.022,-0.016,0.052,0.823,-0.105,0.366,-58.431,8.977,103.966
1747066161.59,-0.068,-0.030,-0.021,0.719,0.012,0.354,-57.486,9.314,104.464
1747066161.61,-0.051,-0.005,0.018,0.754,0.092,0.307,-56.608,9.771,104.904
1747066161.63,-0.063,0.021,-0.017,0.933,-0.004,0.227,-55.613,10.024,105.149
1747066161.65,-0.080,0.015,-0.048,1.040,-0.057,0.193,-54.440,10.011,105.204
1747066161.67,-0.076,0.003,0.052,0.927,0.024,0.160,-53.288,9.973,105.192
1747066161.69,-0.053,-0.038,0.034,0.914,0.193,0.236,-52.219,10.148,105.243
1747066161.71,-0.040,-0.041,0.023,0.943,0.212,0.275,-51.133,10.527,105.415
1747066161.73,-0.041,0.012,-0.008,0.910,0.329,0.251,-50.027,10.958,105.570
1747066161.75,-0.005,0.092,-0.001,0.906,0.240,0.203,-48.956,11.378,105.633
1747066161.77,0.039,0.118,0.039,0.865,-0.055,0.276,-47.920,11.514,105.735
1747066161.79,0.014,0.045,0.005,0.957,-0.114,0.333,-46.831,11.566,105.943
1747066161.81,-0.024,-0.057,-0.073,0.868,0.198,0.278,-45.715,11.721,106.116
1747066161.83,0.013,-0.076,-0.002,0.764,0.112,0.286,-44.762,12.052,106.283
1747066161.85,0.040,-0.007,0.005,0.847,-0.100,0.326,-43.803,12.219,106.510
1747066161.87,0.021,0.043,-0.007,0.963,-0.214,0.276,-42.710,12.130,106.670
1747066161.89,-0.014,-0.028,0.014,0.973,-0.015,0.202,-41.560,12.015,106.701
1747066161.91,-0.009,-0.085,-0.019,0.906,0.156,0.252,-40.465,12.113,106.730
1747066161.93,0.068,-0.073,0.043,0.825,0.126,0.357,-39.422,12.414,106.898
1747066161.95,0.076,-0.008,0.094,0.940,0.168,0.321,-38.402,12.716,107.106
1747066161.97,-0.062,-0.083,-0.004,1.029,0.196,0.347,-37.195,12.988,107.257
1747066161.99,-0.037,-0.033,-0.002,1.022,0.264,0.345,-35.961,13.326,107.402
1747066162.01,0.044,-0.026,-0.004,0.952,0.326,0.394,-34.752,13.791,107.571
1747066162.03,0.078,-0.061,0.019,0.842,0.292,0.413,-33.658,14.290,107.827
1747066162.05,0.064,0.003,0.021,0.876,0.181,0.397,-32.612,14.710,108.055
1747066162.07,-0.021,0.038,0.071,0.921,0.197,0.450,-31.504,15.037,108.304
1747066162.09,-0.084,0.040,0.062,0.987,0.313,0.422,-30.327,15.448,108.534
1747066162.11,-0.121,-0.022,0.026,0.966,0.375,0.453,-29.113,15.934,108.732
1747066162.13,-0.039,-0.024,-0.016,1.041,0.317,0.399,-27.869,16.418,108.914
1747066162.15,0.035,0.056,-0.022,1.083,0.183,0.365,-26.588,16.762,108.976
1747066162.17,-0.039,0.055,0.060,1.110,0.179,0.324,-25.282,16.955,109.005
1747066162.19,-0.091,0.019,0.061,1.194,0.210,0.257,-23.942,17.194,108.898
1747066162.21,-0.097,-0.025,-0.016,1.103,0.284,0.238,-22.598,17.426,108.766
1747066162.23,0.035,0.077,0.041,1.082,0.234,0.296,-21.337,17.702,108.677
1747066162.25,-0.020,0.053,0.046,1.062,0.355,0.300,-20.041,17.985,108.632
1747066162.27,-0.028,-0.046,-0.010,1.075,0.365,0.372,-18.742,18.409,108.606
1747066162.29,-0.015,-0.032,0.022,1.021,0.424,0.401,-17.483,18.869,108.638
1747066162.31,0.002,0.002,0.055,1.079,0.422,0.420,-16.204,19.366,108.700
1747066162.33,0.016,0.044,0.077,1.172,0.349,0.440,-14.825,19.820,108.725
1747066162.35,-0.006,0.002,0.080,1.247,0.326,0.405,-13.358,20.216,108.717
1747066162.37,0.045,-0.020,0.073,1.308,0.279,0.296,-11.851,20.535,108.558
1747066162.39,0.037,-0.101,-0.034,1.265,0.258,0.365,-10.332,20.798,108.389
1747066162.41,-0.011,-0.016,-0.051,1.258,0.315,0.417,-8.838,21.118,108.289
1747066162.43,-0.037,0.146,0.030,1.304,0.261,0.447,-7.298,21.450,108.212
1747066162.45,-0.061,0.058,0.064,1.349,0.194,0.444,-5.699,21.695,108.135
1747066162.47,-0.087,-0.006,0.095,1.349,0.129,0.449,-4.070,21.855,108.028
1747066162.49,-0.044,-0.067,-0.079,1.349,0.252,0.391,-2.476,22.048,107.908
1747066162.51,-0.041,-0.011,-0.042,1.385,0.156,0.320,-0.877,22.291,107.696
1747066162.53,0.024,0.023,0.044,1.398,0.106,0.337,0.746,22.432,107.442
1747066162.55,-0.055,0.001,0.036,1.477,0.241,0.389,2.434,22.643,107.186
1747066162.57,-0.112,0.076,0.031,1.455,0.294,0.451,4.156,22.964,106.975
1747066162.59,-0.021,0.048,-0.002,1.429,0.284,0.406,5.868,23.330,106.795
1747066162.61,0.109,-0.122,-0.024,1.469,0.159,0.374,7.555,23.623,106.531
1747066162.63,0.140,-0.199,0.080,1.419,0.023,0.447,9.260,23.755,106.286
1747066162.65,0.015,-0.139,0.082,1.419,0.152,0.543,10.968,23.859,106.150
1747066162.67,-0.079,-0.035,-0.002,1.387,0.306,0.558,12.683,24.150,106.081
1747066162.69,-0.050,0.036,-0.011,1.413,0.320,0.492,14.397,24.543,105.973
1747066162.71,0.197,-0.047,-0.120,1.501,0.064,0.482,16.132,24.825,105.770
1747066162.73,0.155,-0.107,-0.044,1.402,-0.038,0.511,17.874,24.852,105.583
1747066162.75,-0.024,-0.040,-0.039,1.405,0.179,0.508,19.563,24.966,105.437
1747066162.77,-0.102,0.044,-0.008,1.478,0.318,0.430,21.297,25.361,105.216
1747066162.79,-0.001,-0.019,-0.046,1.437,0.334,0.335,22.982,25.873,104.850
1747066162.81,0.144,-0.089,-0.182,1.339,0.251,0.398,24.588,26.357,104.495
1747066162.83,0.145,-0.127,-0.189,1.202,0.141,0.418,26.112,26.690,104.243
1747066162.85,0.007,-0.117,-0.135,1.030,0.197,0.348,27.444,26.951,104.040
1747066162.87,-0.047,-0.076,-0.100,0.855,0.217,0.220,28.554,27.289,103.832
1747066162.89,0.069,-0.102,-0.186,0.703,0.037,0.142,29.438,27.587,103.554
1747066162.91,0.209,-0.181,-0.322,0.423,-0.151,0.102,30.081,27.611,103.350
1747066162.93,0.081,-0.263,-0.287,0.114,-0.117,0.024,30.400,27.493,103.271
1747066162.95,0.030,-0.292,-0.195,-0.245,-0.044,-0.153,30.296,27.434,103.240
1747066162.97,0.183,-0.218,-0.248,-0.509,-0.135,-0.233,29.800,27.333,103.235
1747066162.99,0.135,-0.211,-0.284,-0.776,-0.097,-0.234,29.027,27.140,103.348
1747066163.01,0.072,-0.213,-0.302,-1.072,-0.093,-0.306,27.948,26.919,103.585
1747066163.03,0.170,-0.262,-0.226,-1.360,-0.187,-0.309,26.547,26.603,103.935
1747066163.05,0.141,-0.225,-0.199,-1.550,-0.313,-0.372,24.894,26.108,104.374
1747066163.07,0.124,-0.196,-0.127,-1.721,-0.309,-0.421,23.009,25.577,104.815
1747066163.09,0.078,-0.159,-0.195,-1.843,-0.330,-0.433,20.949,25.025,105.290
1747066163.11,0.084,-0.043,-0.246,-1.878,-0.303,-0.394,18.814,24.507,105.779
1747066163.13,0.001,0.040,-0.099,-1.900,-0.204,-0.339,16.676,24.046,106.321
1747066163.15,-0.072,0.047,-0.023,-1.985,-0.139,-0.446,14.488,23.739,106.824
1747066163.17,-0.048,0.010,-0.072,-1.997,-0.105,-0.514,12.161,23.498,107.245
1747066163.19,0.019,0.027,-0.168,-1.926,-0.096,-0.460,9.884,23.297,107.624
1747066163.21,-0.068,0.051,-0.058,-1.932,-0.066,-0.413,7.678,23.136,108.043
1747066163.23,-0.086,0.005,0.058,-1.983,0.097,-0.528,5.399,23.131,108.422
1747066163.25,-0.013,-0.115,0.049,-1.895,-0.045,-0.489,3.139,23.134,108.762
1747066163.27,0.013,-0.145,-0.049,-1.823,-0.064,-0.580,0.937,23.068,109.038
1747066163.29,-0.056,-0.142,-0.087,-1.847,0.071,-0.628,-1.242,23.079,109.218
1747066163.31,-0.042,-0.114,-0.008,-1.862,0.037,-0.710,-3.497,23.158,109.343
1747066163.33,0.041,-0.143,0.017,-1.846,-0.030,-0.682,-5.759,23.164,109.440
1747066163.35,0.024,-0.213,-0.022,-1.835,-0.044,-0.634,-7.987,23.102,109.579
1747066163.37,-0.019,-0.208,0.019,-1.887,0.019,-0.684,-10.226,23.134,109.729
1747066163.39,0.006,-0.145,0.015,-1.910,-0.019,-0.741,-12.549,23.132,109.827
1747066163.41,0.081,-0.117,0.005,-1.840,-0.175,-0.704,-14.856,23.093,109.918
1747066163.43,0.059,-0.118,0.051,-1.851,-0.329,-0.722,-17.093,22.798,109.988
1747066163.45,0.008,-0.120,0.061,-1.856,-0.251,-0.698,-19.367,22.447,110.046
1747066163.47,0.008,-0.084,0.112,-1.859,-0.040,-0.557,-21.618,22.355,110.197
1747066163.49,-0.004,-0.031,0.093,-1.769,-0.056,-0.480,-23.744,22.408,110.467
1747066163.51,-0.001,-0.007,0.092,-1.687,-0.189,-0.519,-25.800,22.387,110.729
1747066163.53,0.014,-0.038,-0.001,-1.634,-0.094,-0.535,-27.754,22.284,110.894
1747066163.55,-0.006,-0.075,0.014,-1.822,-0.008,-0.531,-29.808,22.337,111.099
1747066163.57,0.019,-0.089,0.065,-1.827,-0.052,-0.454,-31.980,22.467,111.428
1747066163.59,-0.005,-0.051,0.057,-1.621,-0.048,-0.427,-33.977,22.592,111.780
1747066163.61,-0.030,-0.021,0.097,-1.633,0.022,-0.479,-35.873,22.737,112.067
1747066163.63,0.016,-0.043,0.011,-1.731,0.099,-0.501,-37.860,22.971,112.340
1747066163.65,0.068,-0.074,0.052,-1.752,0.090,-0.382,-39.915,23.357,112.754
1747066163.67,0.041,-0.084,-0.006,-1.474,-0.051,-0.296,-41.763,23.732,113.283
1747066163.69,-0.002,-0.063,-0.067,-1.383,-0.114,-0.391,-43.382,23.896,113.689
1747066163.71,-0.005,-0.070,0.025,-1.435,-0.283,-0.534,-45.072,23.860,113.927
1747066163.73,-0.017,-0.093,0.069,-1.453,-0.391,-0.559,-46.840,23.516,114.031
1747066163.75,0.054,-0.105,-0.002,-1.462,-0.298,-0.417,-48.595,23.301,114.254
1747066163.77,0.057,-0.079,0.013,-1.370,-0.378,-0.330,-50.253,23.227,114.651
1747066163.79,-0.002,-0.041,0.040,-1.326,-0.430,-0.334,-51.796,23.056,115.049
1747066163.81,-0.003,-0.042,-0.009,-1.335,-0.341,-0.367,-53.358,22.940,115.442
1747066163.83,-0.011,-0.050,-0.080,-1.235,-0.479,-0.455,-54.892,22.647,115.659
1747066163.85,0.008,-0.113,0.090,-1.322,-0.535,-0.368,-56.415,22.217,115.839
1747066163.87,0.021,-0.122,0.089,-1.352,-0.586,-0.200,-57.969,22.013,116.364
1747066163.89,0.013,-0.090,-0.041,-1.190,-0.602,-0.139,-59.393,21.963,117.093
1747066163.91,0.022,-0.083,-0.082,-1.153,-0.520,-0.143,-60.659,21.877,117.759
1747066163.92,0.026,-0.091,-0.013,-1.292,-0.492,-0.169,-62.031,21.991,118.524
1747066163.95,-0.032,-0.099,0.020,-1.110,-0.726,-0.216,-63.407,21.929,119.221
1747066163.97,-0.054,-0.061,0.058,-0.972,-0.924,-0.256,-64.588,21.326,119.625
1747066163.98,-0.030,0.009,0.024,-0.998,-0.922,-0.297,-65.752,20.501,119.887
1747066164.01,0.007,0.041,-0.053,-1.152,-0.712,-0.307,-67.017,19.756,120.100
1747066164.02,0.020,-0.025,0.038,-1.090,-0.775,-0.248,-68.350,19.260,120.455
1747066164.04,0.010,0.002,0.064,-1.109,-0.866,-0.194,-69.600,18.720,120.895
1747066164.06,0.009,0.032,0.090,-1.144,-1.049,-0.127,-70.896,18.360,121.635
1747066164.08,-0.029,0.052,0.052,-1.057,-1.085,-0.150,-72.125,17.796,122.397
1747066164.10,-0.055,0.028,0.020,-1.109,-0.589,-0.210,-73.356,17.398,122.998
1747066164.12,-0.059,-0.040,-0.022,-1.074,-0.395,-0.240,-74.640,17.308,123.432
1747066164.14,-0.020,-0.090,0.031,-1.096,-0.416,-0.119,-75.875,17.457,124.074
1747066164.16,-0.004,-0.084,-0.027,-1.029,-0.477,-0.001,-77.066,18.273,125.432
1747066164.18,0.004,-0.077,0.003,-0.831,-0.463,0.068,-78.056,19.452,127.209
1747066164.20,-0.003,-0.053,0.011,-0.778,-0.344,0.117,-78.864,20.991,129.249
1747066164.22,-0.006,-0.047,-0.061,-0.801,-0.314,0.119,-79.664,23.171,131.825
1747066164.24,-0.037,-0.046,-0.116,-0.675,-0.386,0.078,-80.381,25.275,134.377
1747066164.26,-0.003,-0.035,-0.004,-0.546,-0.508,0.149,-80.952,27.267,136.920
1747066164.28,-0.006,0.003,0.069,-0.509,-0.462,0.203,-81.372,29.729,139.987
1747066164.30,-0.105,0.061,-0.010,-0.532,-0.300,0.139,-81.778,32.500,143.236
1747066164.32,-0.172,0.058,-0.070,-0.442,-0.223,0.012,-82.199,34.988,146.047
1747066164.34,-0.127,-0.004,-0.011,-0.344,-0.104,-0.065,-82.580,36.465,147.729
1747066164.36,-0.073,-0.013,0.003,-0.406,0.036,-0.048,-82.954,38.044,149.357
1747066164.38,-0.070,0.005,-0.028,-0.406,0.071,-0.051,-83.366,40.298,151.547
1747066164.40,-0.009,-0.021,0.023,-0.283,0.031,-0.030,-83.691,42.215,153.435
1747066164.42,0.050,-0.050,0.105,-0.397,0.226,0.080,-83.941,44.832,155.924
1747066164.44,0.056,-0.035,0.068,-0.478,0.096,0.122,-84.203,49.560,160.449
1747066164.46,0.017,0.001,-0.013,-0.403,-0.137,0.145,-84.398,54.386,165.351
1747066164.48,0.003,0.038,-0.046,-0.322,-0.105,0.166,-84.481,58.852,169.985
1747066164.50,-0.046,0.038,-0.094,-0.153,-0.099,0.193,-84.439,62.305,173.566
1747066164.52,-0.110,0.039,-0.078,0.035,-0.070,0.197,-84.264,63.726,175.113
1747066164.54,-0.130,0.057,0.020,0.066,0.202,0.158,-84.048,64.195,175.506
1747066164.56,-0.114,0.032,0.072,0.152,0.318,0.046,-83.888,63.970,174.973
1747066164.58,-0.059,-0.023,0.123,0.156,0.389,-0.001,-83.789,62.823,173.401
1747066164.60,-0.026,-0.033,0.052,0.048,0.293,0.007,-83.732,62.275,172.445
1747066164.62,0.010,0.012,-0.015,-0.022,0.211,0.006,-83.722,62.516,172.411
1747066164.64,0.032,0.014,0.015,0.021,0.204,0.017,-83.715,62.905,172.559
1747066164.66,0.032,-0.009,0.035,0.047,0.159,0.015,-83.677,62.742,172.188
1747066164.68,-0.023,-0.004,0.012,-0.035,0.040,0.012,-83.656,62.920,172.248
1747066164.70,-0.055,-0.006,-0.009,-0.046,0.083,-0.011,-83.685,63.420,172.704
1747066164.72,-0.028,-0.016,0.005,0.071,0.137,-0.017,-83.696,63.460,172.601
1747066164.74,0.023,0.001,-0.016,0.091,0.122,0.013,-83.647,62.779,171.772
1747066164.76,0.006,0.006,-0.079,0.087,0.085,0.054,-83.572,62.450,171.310
1747066164.78,-0.023,0.024,-0.076,0.132,0.114,0.029,-83.478,61.707,170.462
1747066164.80,0.011,0.007,-0.007,0.130,0.126,0.016,-83.387,60.719,169.322
1747066164.82,0.056,-0.021,0.028,-0.039,0.103,0.040,-83.336,60.547,168.998
1747066164.84,0.041,-0.034,-0.044,-0.086,-0.044,0.081,-83.308,61.481,169.913
1747066164.86,0.012,-0.011,-0.051,0.017,-0.052,0.088,-83.234,61.969,170.476
1747066164.88,-0.018,0.027,-0.017,-0.002,-0.040,0.061,-83.147,62.044,170.603
1747066164.90,-0.053,0.021,-0.025,-0.030,-0.027,0.021,-83.110,62.498,171.100
1747066164.92,-0.041,-0.004,-0.026,0.056,0.048,0.003,-83.084,62.450,171.037
1747066164.94,-0.023,-0.009,-0.031,0.057,0.020,0.002,-83.032,61.839,170.381
1747066164.96,-0.013,-0.009,0.003,-0.039,0.011,0.004,-83.031,61.790,170.320
1747066164.98,0.013,-0.020,0.017,-0.025,0.019,0.024,-83.045,62.068,170.586
1747066165.00,0.023,-0.005,-0.026,-0.016,-0.018,0.036,-83.033,62.238,170.746
1747066165.02,-0.009,0.006,-0.047,0.029,-0.098,0.020,-83.007,62.127,170.716
1747066165.04,-0.024,0.015,-0.016,0.058,-0.055,0.009,-82.970,61.664,170.336
1747066165.06,-0.024,0.018,-0.017,0.054,-0.066,0.000,-82.935,61.264,169.999
1747066165.08,-0.015,0.004,-0.008,0.046,-0.021,0.012,-82.891,60.834,169.621
1747066165.10,-0.011,-0.006,0.034,0.056,-0.032,0.041,-82.824,60.372,169.179
1747066165.12,-0.035,0.016,0.021,0.085,-0.094,0.030,-82.752,59.841,168.726
1747066165.14,-0.067,0.036,0.005,0.135,-0.022,0.030,-82.670,58.994,167.952
1747066165.16,-0.111,0.035,0.048,0.178,0.102,0.021,-82.558,57.960,166.859
1747066165.18,-0.112,0.021,0.085,0.213,0.247,-0.017,-82.434,56.746,165.438
1747066165.20,-0.070,0.015,0.084,0.216,0.238,-0.048,-82.340,55.407,163.788
1747066165.22,-0.010,-0.014,0.068,0.242,0.170,-0.030,-82.241,53.846,161.974
1747066165.24,0.012,-0.026,0.043,0.281,0.088,0.011,-82.082,52.186,160.151
1747066165.26,-0.027,-0.021,0.044,0.313,0.001,-0.011,-81.887,50.376,158.268
1747066165.28,-0.070,-0.018,0.069,0.348,-0.068,-0.068,-81.683,48.149,156.060
1747066165.30,-0.090,0.005,0.059,0.352,-0.098,-0.103,-81.481,45.575,153.560
1747066165.32,-0.068,0.035,0.019,0.308,-0.018,-0.135,-81.307,43.117,151.151
1747066165.34,0.002,0.011,0.023,0.367,0.075,-0.149,-81.139,40.734,148.697
1747066165.36,0.033,-0.020,0.028,0.526,0.005,-0.116,-80.845,38.009,145.879
1747066165.38,0.010,-0.034,0.013,0.628,-0.090,-0.070,-80.372,35.042,142.928
1747066165.40,-0.044,-0.036,0.020,0.704,-0.056,-0.077,-79.780,32.189,140.130
1747066165.42,-0.106,-0.009,-0.006,0.755,0.105,-0.186,-79.130,29.233,137.109
1747066165.44,-0.126,0.013,-0.021,0.816,0.349,-0.312,-78.480,26.153,133.697
1747066165.46,-0.095,0.034,-0.073,0.931,0.534,-0.353,-77.721,22.965,129.927
1747066165.48,-0.068,0.022,-0.005,0.793,0.635,-0.328,-76.931,20.409,126.599
1747066165.50,-0.041,0.004,0.043,0.597,0.358,-0.318,-76.315,18.446,123.970
1747066165.52,0.031,-0.008,0.048,0.649,0.531,-0.313,-75.774,16.661,121.676
1747066165.54,0.071,-0.019,-0.003,0.861,0.719,-0.192,-75.015,15.390,119.599
1747066165.56,0.029,-0.023,-0.075,0.843,0.509,-0.162,-74.111,14.561,117.974
1747066165.58,-0.014,-0.029,-0.043,0.788,0.494,-0.221,-73.258,13.557,116.400
1747066165.60,-0.025,-0.014,0.003,0.748,0.775,-0.231,-72.471,12.828,114.856
1747066165.62,-0.009,-0.006,-0.097,0.687,0.740,-0.189,-71.715,12.406,113.496
1747066165.64,0.082,-0.014,-0.012,0.649,0.857,-0.197,-71.036,12.232,112.332
1747066165.66,0.107,-0.035,-0.001,0.904,0.566,-0.188,-70.229,11.943,111.132
1747066165.68,0.056,-0.027,-0.079,1.020,0.328,-0.148,-69.149,11.274,109.910
1747066165.70,-0.003,0.004,-0.019,0.824,0.395,-0.141,-68.153,10.767,108.949
1747066165.72,-0.025,-0.010,0.015,0.841,0.747,-0.115,-67.257,10.600,108.069
1747066165.74,0.030,-0.056,0.045,0.806,0.787,0.090,-66.337,11.051,107.569
1747066165.76,0.025,-0.049,-0.055,0.901,0.306,0.155,-65.357,11.650,107.511
1747066165.78,0.017,-0.033,0.011,0.827,0.499,0.097,-64.347,11.893,107.349
1747066165.80,0.043,-0.060,-0.054,0.747,0.522,0.142,-63.439,12.418,107.204
1747066165.82,0.112,-0.066,-0.079,0.753,0.352,0.136,-62.585,12.856,107.159
1747066165.84,0.142,-0.045,-0.038,0.820,0.042,0.142,-61.666,13.033,107.049
1747066165.86,0.104,-0.013,0.032,0.871,-0.250,0.104,-60.691,12.703,106.882
1747066165.88,0.047,-0.008,0.028,0.748,-0.164,0.182,-59.764,12.413,106.802
1747066165.90,-0.012,-0.003,-0.047,0.787,-0.231,0.176,-58.867,12.222,106.843
1747066165.92,-0.032,0.018,-0.034,0.971,-0.305,0.079,-57.873,11.835,106.737
1747066165.94,-0.036,0.052,-0.042,1.160,-0.232,-0.066,-56.657,11.179,106.308
1747066165.96,-0.083,0.086,0.002,0.917,-0.251,-0.194,-55.492,10.270,105.613
1747066165.98,-0.131,0.009,-0.010,0.799,0.158,-0.058,-54.556,9.783,105.017
1747066166.00,-0.034,-0.054,0.089,0.721,0.162,0.207,-53.732,9.876,104.949
1747066166.02,0.088,-0.020,0.099,0.903,0.269,0.251,-52.765,10.309,105.135
1747066166.04,0.070,-0.008,0.074,1.044,0.102,0.199,-51.618,10.604,105.217
1747066166.06,-0.012,-0.040,0.021,1.066,0.174,0.157,-50.381,10.673,105.185
1747066166.08,0.003,-0.075,-0.053,0.867,0.354,0.224,-49.239,10.997,105.165
1747066166.10,0.117,-0.073,0.005,0.744,0.263,0.335,-48.301,11.517,105.385
1747066166.12,0.129,-0.026,0.062,0.893,0.112,0.394,-47.307,12.002,105.716
1747066166.14,0.072,0.033,0.036,1.029,-0.169,0.372,-46.135,12.181,106.010
1747066166.16,-0.028,0.004,-0.098,0.999,-0.119,0.372,-44.894,12.122,106.240
1747066166.18,-0.001,-0.054,-0.035,0.826,0.048,0.430,-43.786,12.349,106.551
1747066166.20,0.035,-0.092,0.042,0.784,0.046,0.441,-42.792,12.669,106.969
1747066166.22,0.045,-0.080,0.059,0.950,-0.082,0.433,-41.720,12.917,107.324
1747066166.24,-0.007,0.014,0.012,0.915,-0.080,0.451,-40.552,13.016,107.662
1747066166.26,-0.033,0.071,0.044,0.964,-0.092,0.470,-39.385,13.144,108.016
1747066166.28,-0.107,0.015,-0.030,0.875,0.221,0.470,-38.227,13.438,108.370
