Time,AccX,AccY,AccZ,GyroX,GyroY,GyroZ,Pitch,Roll,Yaw
1747663015.01,0.009,0.011,0.018,0.018,0.013,0.023,-88.305,145.065,177.292
1747663015.02,0.006,-0.014,0.006,0.013,-0.010,0.018,-88.313,144.495,176.720
1747663015.03,0.002,-0.014,-0.010,0.013,-0.020,0.022,-88.317,143.950,176.184
1747663015.03,0.003,-0.010,-0.018,0.022,-0.022,0.021,-88.324,143.379,175.624
1747663015.04,0.001,-0.007,-0.027,0.021,-0.010,0.009,-88.336,142.729,174.984
1747663015.05,-0.006,-0.002,-0.022,-0.000,0.007,-0.006,-88.343,142.419,174.674
1747663015.06,-0.013,0.000,-0.017,-0.002,0.005,-0.004,-88.343,142.441,174.693
1747663015.07,-0.011,0.001,-0.019,0.017,0.016,0.014,-88.341,142.287,174.534
1747663015.08,0.003,0.001,-0.010,0.017,0.026,0.038,-88.335,141.701,173.935
1747663015.09,0.014,0.004,-0.008,0.011,0.019,0.041,-88.325,140.973,173.193
1747663015.10,0.015,-0.003,-0.009,0.008,0.002,0.041,-88.316,140.205,172.420
1747663015.11,0.012,-0.010,-0.003,0.018,-0.007,0.034,-88.311,139.368,171.585
1747663015.12,-0.000,-0.006,-0.002,0.010,-0.000,0.029,-88.310,138.602,170.821
1747663015.13,-0.014,-0.008,0.002,-0.001,0.012,0.042,-88.303,137.949,170.164
1747663015.14,-0.022,-0.014,0.007,-0.000,0.022,0.039,-88.292,137.381,169.587
1747663015.15,-0.017,0.003,0.008,0.003,0.030,0.035,-88.282,136.862,169.052
1747663015.16,-0.007,0.011,0.017,0.005,0.042,0.025,-88.274,136.368,168.538
1747663015.17,0.005,0.011,0.018,0.003,0.031,0.021,-88.266,135.927,168.074
1747663015.18,0.001,0.007,0.009,0.004,-0.008,0.016,-88.259,135.559,167.699
1747663015.19,-0.009,0.004,0.000,0.011,-0.045,0.014,-88.256,135.191,167.347
1747663015.20,-0.011,0.003,-0.009,0.022,-0.034,0.007,-88.259,134.814,166.994
1747663015.21,-0.010,0.001,-0.002,0.017,0.017,0.013,-88.266,134.489,166.675
1747663015.22,-0.002,-0.006,0.027,-0.008,0.052,0.024,-88.262,134.369,166.533
1747663015.23,-0.004,-0.012,0.032,-0.011,0.033,0.023,-88.250,134.376,166.514
1747663015.24,-0.012,-0.012,0.021,-0.007,-0.002,0.018,-88.238,134.361,166.491
1747663015.25,-0.005,-0.010,0.018,-0.010,-0.020,0.016,-88.223,134.303,166.439
1747663015.26,0.009,-0.002,0.011,-0.015,-0.041,0.014,-88.209,134.310,166.465
1747663015.27,0.020,0.003,-0.005,-0.016,-0.052,0.011,-88.200,134.357,166.539
1747663015.28,0.022,0.007,-0.015,-0.013,-0.041,0.003,-88.194,134.458,166.668
1747663015.29,0.017,0.010,-0.018,-0.011,-0.033,-0.005,-88.191,134.620,166.851
1747663015.30,0.001,0.006,-0.019,-0.000,-0.049,-0.010,-88.190,134.924,167.179
1747663015.31,-0.015,-0.001,-0.012,0.015,-0.044,0.001,-88.190,135.036,167.318
1747663015.32,-0.014,-0.005,-0.002,0.023,-0.033,0.014,-88.194,134.791,167.096
1747663015.33,-0.014,-0.009,0.005,0.007,0.003,0.024,-88.191,134.436,166.750
1747663015.34,-0.011,-0.012,0.008,0.000,0.028,0.027,-88.179,134.084,166.389
1747663015.35,-0.007,-0.010,-0.003,-0.003,0.046,0.032,-88.164,133.635,165.919
1747663015.36,0.002,-0.004,-0.018,-0.005,0.049,0.028,-88.149,133.170,165.425
1747663015.37,0.005,-0.001,-0.022,-0.000,0.046,0.021,-88.138,132.806,165.034
1747663015.38,0.010,0.005,-0.013,0.017,0.031,0.017,-88.135,132.406,164.612
1747663015.39,0.008,0.017,-0.007,0.046,0.005,0.014,-88.145,131.822,164.017
1747663015.40,0.007,0.017,-0.010,0.050,-0.021,0.014,-88.161,131.074,163.272
1747663015.41,0.015,0.008,0.002,0.033,-0.033,0.020,-88.172,130.390,162.604
1747663015.42,0.025,-0.004,0.013,0.006,-0.036,0.022,-88.170,129.942,162.174
1747663015.43,0.022,-0.013,0.012,0.004,-0.050,0.017,-88.164,129.657,161.913
1747663015.44,0.015,-0.012,0.006,0.004,-0.068,0.000,-88.165,129.357,161.647
1747663015.45,0.002,-0.004,0.015,-0.004,-0.088,-0.010,-88.170,129.276,161.611
1747663015.46,-0.011,0.002,0.023,0.002,-0.094,-0.022,-88.176,129.335,161.723
1747663015.47,-0.018,0.005,0.023,0.015,-0.061,-0.021,-88.188,129.361,161.794
1747663015.48,-0.021,0.005,0.023,0.030,-0.036,-0.019,-88.205,129.181,161.641
1747663015.49,-0.028,0.004,0.014,0.044,-0.021,-0.011,-88.223,128.765,161.241
1747663015.50,-0.030,0.002,0.007,0.061,0.006,-0.002,-88.238,128.053,160.533
1747663015.51,-0.024,-0.003,-0.003,0.053,0.020,0.017,-88.250,127.065,159.538
1747663015.52,-0.014,-0.013,0.003,0.040,0.038,0.031,-88.252,126.100,158.557
1747663015.53,-0.005,-0.017,0.014,0.037,0.068,0.036,-88.246,125.275,157.701
1747663015.54,0.001,-0.011,0.031,0.059,0.061,0.034,-88.243,124.376,156.763
1747663015.55,-0.003,0.005,0.024,0.080,0.035,0.024,-88.252,123.235,155.594
1747663015.56,-0.011,0.018,0.013,0.100,0.011,0.025,-88.269,121.788,154.134
1747663015.57,-0.010,0.016,0.010,0.133,0.014,0.024,-88.294,119.838,152.176
1747663015.58,-0.008,0.006,0.010,0.157,0.023,0.014,-88.328,117.310,149.635
1747663015.59,-0.009,-0.002,0.013,0.161,0.036,0.013,-88.366,114.453,146.760
1747663015.60,-0.013,-0.008,0.022,0.163,0.059,0.028,-88.392,111.437,143.716
1747663015.61,-0.019,-0.008,0.030,0.172,0.074,0.054,-88.402,108.130,140.368
1747663015.62,-0.033,0.002,0.030,0.191,0.057,0.074,-88.392,104.545,136.742
1747663015.63,-0.046,0.013,0.019,0.227,0.020,0.080,-88.374,100.342,132.515
1747663015.64,-0.044,0.013,0.003,0.267,-0.002,0.076,-88.350,95.414,127.581
1747663015.65,-0.024,0.001,0.010,0.296,0.030,0.065,-88.320,89.983,122.141
1747663015.66,0.003,-0.011,0.033,0.304,0.089,0.053,-88.282,84.454,116.575
1747663015.67,0.020,-0.012,0.041,0.311,0.094,0.055,-88.230,79.133,111.196
1747663015.68,0.021,-0.002,0.027,0.338,0.055,0.070,-88.159,73.977,105.994
1747663015.69,0.008,0.011,0.010,0.379,0.014,0.087,-88.058,68.775,100.769
1747663015.70,-0.010,0.015,0.003,0.394,0.012,0.101,-87.930,63.773,95.758
1747663015.71,-0.023,0.001,0.020,0.402,0.038,0.101,-87.783,59.270,91.237
1747663015.72,-0.027,-0.022,0.024,0.431,0.047,0.100,-87.606,55.121,87.060
1747663015.73,-0.014,-0.034,0.008,0.482,0.038,0.107,-87.403,51.221,83.131
1747663015.74,0.009,-0.030,-0.028,0.579,0.021,0.111,-87.158,47.289,79.177
1747663015.75,0.034,-0.008,-0.060,0.623,0.049,0.116,-86.869,43.428,75.293
1747663015.76,0.059,0.024,-0.027,0.623,0.105,0.126,-86.559,40.250,72.065
1747663015.77,0.042,0.045,-0.006,0.652,0.055,0.123,-86.231,37.561,69.322
1747663015.78,-0.013,0.033,-0.026,0.681,-0.006,0.129,-85.882,35.128,66.873
1747663015.79,-0.047,-0.006,-0.019,0.687,0.035,0.159,-85.512,33.119,64.853
1747663015.80,-0.051,-0.041,0.012,0.688,0.126,0.176,-85.128,31.604,63.288
1747663015.81,-0.040,-0.046,0.027,0.708,0.188,0.190,-84.735,30.399,61.986
1747663015.82,-0.020,-0.028,0.009,0.769,0.221,0.193,-84.314,29.326,60.791
1747663015.83,-0.002,-0.003,-0.009,0.780,0.275,0.191,-83.871,28.322,59.640
1747663015.84,0.014,0.012,0.031,0.748,0.308,0.158,-83.438,27.461,58.603
1747663015.85,0.001,0.014,0.041,0.766,0.223,0.106,-83.021,26.532,57.512
1747663015.86,-0.018,0.009,0.009,0.839,0.125,0.099,-82.585,25.440,56.312
1747663015.87,-0.005,0.004,-0.002,0.877,0.056,0.131,-82.111,24.389,55.201
1747663015.88,-0.001,-0.004,-0.004,0.888,0.036,0.154,-81.617,23.505,54.285
1747663015.89,-0.018,-0.007,-0.002,0.900,0.108,0.155,-81.112,22.759,53.492
1747663015.90,-0.035,-0.005,0.012,0.915,0.181,0.132,-80.601,22.090,52.727
1747663015.91,-0.060,-0.006,-0.017,0.937,0.210,0.106,-80.084,21.414,51.941
1747663015.92,-0.067,-0.010,-0.037,0.916,0.295,0.111,-79.567,20.804,51.177
1747663015.93,-0.047,-0.018,0.025,0.886,0.387,0.129,-79.062,20.382,50.562
1747663015.94,-0.031,-0.022,0.043,0.889,0.370,0.148,-78.559,20.092,50.043
1747663015.95,-0.015,-0.024,-0.004,0.881,0.320,0.196,-78.051,19.896,49.664
1747663015.96,0.018,-0.023,-0.006,0.893,0.333,0.227,-77.534,19.815,49.391
1747663015.97,0.056,-0.012,0.015,0.877,0.332,0.239,-77.011,19.806,49.207
1747663015.98,0.071,0.000,0.029,0.854,0.230,0.203,-76.504,19.771,49.002
1747663015.99,0.048,0.016,0.000,0.850,0.110,0.178,-76.010,19.608,48.758
1747663016.00,0.036,0.007,0.000,0.815,0.073,0.180,-75.527,19.413,48.506
1747663016.01,0.041,-0.017,0.041,0.843,0.026,0.184,-75.049,19.229,48.314
1747663016.02,0.049,-0.029,0.022,0.930,0.005,0.149,-74.540,18.957,48.025
1747663016.03,0.074,-0.023,0.018,0.952,0.045,0.107,-74.004,18.600,47.675
1747663016.04,0.079,-0.004,0.056,0.920,0.056,0.092,-73.479,18.232,47.260
1747663016.05,0.052,0.009,0.049,0.906,0.042,0.110,-72.964,17.913,46.923
1747663016.06,0.014,0.016,0.011,0.903,0.053,0.106,-72.453,17.619,46.588
1747663016.07,-0.028,0.018,-0.011,0.817,0.083,0.132,-71.962,17.390,46.342
1747663016.08,-0.041,-0.003,0.022,0.723,0.117,0.195,-71.518,17.319,46.207
1747663016.09,-0.017,-0.020,0.027,0.728,0.124,0.250,-71.086,17.390,46.253
1747663016.10,0.015,-0.020,0.010,0.778,0.122,0.236,-70.635,17.478,46.269
1747663016.11,0.047,-0.007,0.009,0.846,0.072,0.191,-70.156,17.472,46.239
1747663016.12,0.058,0.002,-0.024,0.926,0.019,0.170,-69.643,17.350,46.084
1747663016.13,0.050,0.009,-0.050,0.978,-0.030,0.143,-69.095,17.146,45.904
1747663016.14,0.021,0.011,-0.038,0.997,-0.048,0.101,-68.534,16.865,45.629
1747663016.15,-0.017,0.001,0.026,0.921,0.082,0.100,-67.988,16.602,45.381
1747663016.16,-0.056,-0.017,0.080,0.814,0.261,0.112,-67.499,16.508,45.169
1747663016.17,-0.151,-0.020,0.017,0.817,0.228,0.101,-67.037,16.475,45.021
1747663016.18,-0.210,-0.024,-0.089,0.790,0.137,0.207,-66.570,16.457,44.891
1747663016.19,-0.133,-0.036,-0.070,0.761,0.155,0.320,-66.104,16.588,44.991
1747663016.20,-0.006,-0.024,0.005,0.839,0.227,0.303,-65.619,16.797,45.102
1747663016.21,0.067,0.007,0.029,0.999,0.223,0.177,-65.077,16.889,45.109
1747663016.22,0.068,0.039,-0.025,1.115,0.099,0.052,-64.477,16.739,44.839
1747663016.23,0.036,0.051,-0.066,1.073,-0.001,-0.039,-63.872,16.400,44.498
1747663016.24,-0.009,0.040,-0.014,0.990,-0.008,-0.122,-63.321,15.971,44.027
1747663016.25,-0.095,-0.003,0.003,0.950,0.120,-0.120,-62.808,15.563,43.596
1747663016.26,-0.149,-0.062,-0.002,0.871,0.252,-0.044,-62.318,15.313,43.191
1747663016.27,-0.174,-0.099,-0.024,0.761,0.314,0.078,-61.866,15.259,43.001
1747663016.28,-0.149,-0.112,-0.005,0.680,0.383,0.194,-61.450,15.399,42.935
1747663016.29,-0.060,-0.096,0.065,0.690,0.423,0.262,-61.042,15.673,43.044
1747663016.30,0.056,-0.045,0.065,0.783,0.394,0.272,-60.597,15.969,43.113
1747663016.31,0.172,0.027,0.027,0.953,0.356,0.262,-60.080,16.202,43.189
1747663016.32,0.228,0.077,0.024,1.050,0.253,0.232,-59.484,16.335,43.136
1747663016.33,0.195,0.089,0.035,1.052,0.068,0.187,-58.874,16.337,43.091
1747663016.34,0.135,0.063,-0.013,0.999,-0.026,0.171,-58.280,16.232,42.960
1747663016.35,0.084,0.006,0.035,0.886,-0.060,0.212,-57.732,16.133,42.925
1747663016.36,0.033,-0.056,0.034,0.814,-0.070,0.263,-57.229,16.089,42.919
1747663016.37,0.009,-0.100,-0.019,0.763,-0.095,0.285,-56.752,16.084,43.018
1747663016.38,-0.001,-0.109,-0.031,0.739,-0.162,0.276,-56.298,16.063,43.082
1747663016.39,0.004,-0.091,-0.047,0.751,-0.222,0.268,-55.847,16.001,43.184
1747663016.40,0.016,-0.049,-0.027,0.841,-0.216,0.238,-55.372,15.899,43.213
1747663016.41,-0.011,0.013,-0.025,0.998,-0.234,0.157,-54.837,15.723,43.207
1747663016.42,-0.074,0.080,-0.066,1.099,-0.223,0.050,-54.241,15.444,43.026
1747663016.43,-0.135,0.122,-0.053,1.094,-0.197,-0.046,-53.634,15.095,42.796
1747663016.44,-0.189,0.117,-0.011,1.033,-0.108,-0.060,-53.055,14.750,42.479
1747663016.45,-0.199,0.064,0.049,0.996,0.100,0.019,-52.499,14.536,42.271
1747663016.46,-0.174,0.002,0.046,0.932,0.190,0.096,-51.958,14.491,42.101
1747663016.47,-0.137,-0.050,-0.009,0.885,0.172,0.125,-51.441,14.507,42.047
1747663016.48,-0.055,-0.078,0.013,0.834,0.224,0.136,-50.948,14.555,41.965
1747663016.49,0.020,-0.072,0.068,0.819,0.210,0.127,-50.472,14.630,41.965
1747663016.49,0.032,-0.029,0.062,0.800,0.076,0.106,-50.008,14.649,41.882
1747663016.50,0.034,0.028,0.033,0.810,-0.029,0.105,-49.551,14.589,41.859
1747663016.52,0.070,0.073,0.037,0.850,-0.036,0.111,-49.077,14.501,41.768
1747663016.52,0.092,0.095,0.087,0.922,-0.068,0.154,-48.571,14.408,41.751
1747663016.53,0.090,0.087,0.046,0.993,-0.099,0.163,-48.016,14.312,41.760
1747663016.54,0.115,0.061,-0.041,1.001,-0.138,0.131,-47.442,14.178,41.670
1747663016.55,0.129,0.001,-0.071,0.977,-0.172,0.134,-46.877,14.018,41.653
1747663016.56,0.145,-0.075,-0.053,0.924,-0.201,0.150,-46.329,13.856,41.576
1747663016.57,0.168,-0.147,-0.043,0.834,-0.216,0.177,-45.820,13.707,41.602
1747663016.58,0.168,-0.193,-0.049,0.777,-0.201,0.225,-45.348,13.588,41.605
1747663016.59,0.138,-0.205,-0.027,0.730,-0.216,0.292,-44.895,13.511,41.729
1747663016.60,0.076,-0.186,0.002,0.709,-0.234,0.380,-44.453,13.472,41.857
1747663016.61,0.038,-0.138,0.010,0.712,-0.218,0.450,-44.005,13.476,42.120
1747663016.62,0.035,-0.070,0.018,0.757,-0.182,0.458,-43.536,13.512,42.338
1747663016.63,0.031,0.001,0.028,0.821,-0.187,0.412,-43.038,13.538,42.592
1747663016.65,0.017,0.063,0.014,0.875,-0.224,0.338,-42.515,13.509,42.721
1747663016.65,0.005,0.108,0.003,0.884,-0.269,0.263,-41.985,13.414,42.856
1747663016.66,-0.017,0.114,-0.010,0.877,-0.335,0.209,-41.466,13.255,42.875
1747663016.67,-0.032,0.079,-0.007,0.864,-0.382,0.209,-40.954,13.050,42.932
1747663016.68,-0.021,0.029,0.006,0.798,-0.380,0.254,-40.461,12.848,42.961
1747663016.69,0.017,-0.007,0.013,0.731,-0.320,0.322,-39.999,12.702,43.116
1747663016.70,0.060,-0.016,0.037,0.689,-0.269,0.389,-39.559,12.625,43.258
1747663016.71,0.077,0.016,0.019,0.700,-0.191,0.432,-39.123,12.611,43.508
1747663016.72,0.069,0.078,0.009,0.751,-0.150,0.416,-38.667,12.636,43.697
1747663016.73,0.008,0.132,-0.008,0.830,-0.194,0.372,-38.177,12.637,43.932
1747663016.74,-0.062,0.147,-0.029,0.897,-0.298,0.307,-37.653,12.562,44.036
1747663016.75,-0.115,0.117,0.010,0.927,-0.411,0.228,-37.111,12.384,44.156
1747663016.76,-0.102,0.048,0.086,0.941,-0.376,0.169,-36.566,12.152,44.152
1747663016.77,-0.005,-0.038,0.092,0.949,-0.290,0.137,-36.019,11.942,44.188
1747663016.78,0.091,-0.105,-0.009,0.877,-0.280,0.122,-35.490,11.754,44.143
1747663016.79,0.124,-0.128,-0.060,0.783,-0.226,0.144,-35.014,11.592,44.189
1747663016.80,0.109,-0.103,0.015,0.766,-0.203,0.201,-34.562,11.476,44.198
1747663016.81,0.025,-0.005,0.050,0.761,-0.181,0.264,-34.109,11.397,44.339
1747663016.82,-0.108,0.127,0.035,0.791,-0.173,0.252,-33.646,11.338,44.413
1747663016.83,-0.251,0.210,-0.009,0.872,-0.174,0.184,-33.156,11.258,44.530
1747663016.84,-0.294,0.205,-0.036,0.920,-0.130,0.112,-32.636,11.159,44.510
1747663016.85,-0.227,0.146,-0.013,0.959,-0.055,0.008,-32.104,11.064,44.509
1747663016.86,-0.141,0.083,0.016,1.044,0.001,-0.124,-31.550,10.962,44.343
1747663016.87,-0.091,0.032,0.021,1.102,0.020,-0.237,-30.966,10.837,44.159
1747663016.88,-0.084,0.003,-0.003,1.070,0.007,-0.288,-30.382,10.687,43.849
1747663016.89,-0.088,-0.004,-0.021,0.973,-0.022,-0.271,-29.837,10.528,43.611
1747663016.90,-0.075,0.002,0.005,0.889,-0.032,-0.192,-29.339,10.379,43.347
1747663016.91,0.008,0.025,0.032,0.850,0.100,-0.066,-28.866,10.304,43.223
1747663016.92,0.125,0.064,0.073,0.839,0.131,0.067,-28.392,10.328,43.127
1747663016.93,0.173,0.098,0.076,0.888,0.092,0.074,-27.901,10.373,43.150
1747663016.94,0.202,0.125,0.041,0.958,-0.058,0.046,-27.377,10.353,43.077
1747663016.95,0.196,0.109,0.026,1.010,-0.209,0.070,-26.817,10.239,43.059
1747663016.96,0.173,0.047,0.045,1.092,-0.234,0.121,-26.219,10.080,43.001
1747663016.97,0.155,-0.035,0.037,1.257,-0.139,0.174,-25.545,9.958,43.027
1747663016.98,0.105,-0.101,0.007,1.365,-0.065,0.181,-24.785,9.884,42.995
1747663016.99,0.041,-0.129,0.001,1.313,0.088,0.197,-24.007,9.876,43.059
1747663017.00,0.017,-0.133,0.040,1.175,0.155,0.265,-23.285,9.953,43.064
1747663017.01,-0.008,-0.107,0.025,1.077,0.139,0.358,-22.623,10.066,43.227
1747663017.02,-0.003,-0.025,-0.022,1.059,0.058,0.371,-21.987,10.166,43.336
1747663017.03,0.019,0.054,-0.028,1.075,-0.008,0.339,-21.352,10.216,43.528
1747663017.04,0.061,0.073,0.048,1.073,-0.057,0.304,-20.713,10.224,43.605
1747663017.05,0.082,0.034,0.077,1.075,-0.120,0.267,-20.081,10.193,43.753
1747663017.06,0.033,-0.016,0.057,1.119,-0.162,0.236,-19.439,10.120,43.785
1747663017.07,-0.053,-0.045,0.041,1.094,-0.149,0.244,-18.789,10.036,43.894
1747663017.08,-0.087,-0.052,0.009,1.080,-0.079,0.288,-18.159,9.985,43.939
1747663017.09,-0.104,-0.019,-0.084,1.280,0.017,0.292,-17.468,9.980,44.067
1747663017.10,-0.128,0.058,-0.090,1.312,0.164,0.240,-16.703,10.040,44.089
1747663017.11,-0.130,0.103,-0.027,1.170,0.182,0.159,-15.984,10.142,44.141
1747663017.12,-0.139,0.066,-0.052,1.112,0.077,0.094,-15.335,10.205,44.097
1747663017.13,-0.105,-0.010,-0.060,1.092,-0.015,0.036,-14.707,10.201,44.088
1747663017.14,-0.044,-0.072,0.009,1.078,-0.070,-0.016,-14.098,10.150,43.980
1747663017.15,0.002,-0.088,0.071,1.091,-0.105,-0.053,-13.492,10.067,43.927
1747663017.16,0.021,-0.048,0.095,1.118,-0.126,-0.097,-12.880,9.967,43.773
1747663017.17,0.035,-0.005,0.068,1.063,-0.158,-0.063,-12.275,9.848,43.683
1747663017.18,0.074,0.022,0.046,1.053,-0.115,0.008,-11.684,9.741,43.562
1747663017.19,0.085,0.041,0.030,1.050,-0.003,0.084,-11.087,9.691,43.546
1747663017.20,0.073,0.079,-0.007,0.998,0.060,0.164,-10.497,9.704,43.517
1747663017.21,0.050,0.108,-0.067,0.941,0.070,0.226,-9.932,9.745,43.595
1747663017.22,0.045,0.089,-0.055,0.936,0.072,0.254,-9.383,9.795,43.641
1747663017.23,0.063,0.048,0.022,0.981,0.022,0.229,-8.820,9.830,43.742
1747663017.24,0.094,0.005,0.079,1.010,-0.060,0.154,-8.241,9.821,43.754
1747663017.25,0.108,-0.049,0.071,1.162,-0.088,0.115,-7.621,9.773,43.762
1747663017.26,0.068,-0.094,0.087,1.230,-0.083,0.101,-6.930,9.716,43.706
1747663017.27,-0.014,-0.116,0.055,1.173,-0.050,0.053,-6.246,9.670,43.667
1747663017.28,-0.085,-0.112,-0.093,1.110,0.024,0.009,-5.600,9.648,43.574
1747663017.29,-0.144,-0.059,-0.146,1.044,0.210,0.009,-4.993,9.705,43.489
1747663017.30,-0.218,0.028,-0.076,0.988,0.327,0.036,-4.421,9.855,43.403
1747663017.31,-0.229,0.106,-0.065,0.958,0.327,0.018,-3.871,10.040,43.339
1747663017.32,-0.135,0.113,-0.092,0.948,0.224,-0.049,-3.338,10.193,43.235
1747663017.33,0.002,0.048,-0.066,0.969,0.055,-0.104,-2.809,10.267,43.121
1747663017.34,0.115,-0.056,-0.038,0.982,-0.143,-0.151,-2.272,10.234,42.954
1747663017.35,0.163,-0.123,-0.006,0.986,-0.292,-0.207,-1.740,10.099,42.746
1747663017.36,0.115,-0.105,0.037,1.023,-0.333,-0.169,-1.191,9.912,42.540
1747663017.37,-0.015,0.008,0.064,0.970,-0.276,-0.161,-0.644,9.731,42.340
1747663017.38,-0.102,0.114,0.021,1.009,-0.111,-0.115,-0.108,9.615,42.166
1747663017.39,-0.116,0.146,-0.003,1.063,0.082,-0.069,0.473,9.608,42.014
1747663017.40,-0.080,0.114,-0.011,1.000,0.157,-0.064,1.047,9.685,41.879
1747663017.41,0.013,0.038,-0.103,0.977,0.052,-0.057,1.597,9.751,41.743
1747663017.42,0.095,-0.044,-0.142,0.922,-0.112,-0.079,2.127,9.736,41.615
1747663017.43,0.119,-0.136,-0.100,0.883,-0.216,-0.147,2.623,9.647,41.446
1747663017.44,0.082,-0.165,-0.056,0.847,-0.293,-0.166,3.095,9.509,41.283
1747663017.45,0.013,-0.143,-0.021,0.835,-0.272,-0.172,3.551,9.354,41.108
1747663017.46,-0.008,-0.103,0.038,0.829,-0.183,-0.175,4.005,9.235,40.927
1747663017.47,0.004,-0.060,0.057,0.831,-0.107,-0.101,4.458,9.164,40.769
1747663017.48,0.030,-0.008,0.023,0.812,-0.051,-0.107,4.915,9.133,40.617
1747663017.49,0.059,0.068,-0.020,0.722,0.012,-0.043,5.340,9.131,40.504
1747663017.50,0.078,0.101,-0.031,0.726,0.060,0.052,5.744,9.159,40.417
1747663017.51,0.073,0.117,-0.065,0.795,0.078,0.137,6.183,9.198,40.403
1747663017.52,0.106,0.152,-0.088,0.774,0.089,0.170,6.642,9.247,40.380
1747663017.53,0.167,0.147,-0.107,0.760,-0.014,0.149,7.088,9.268,40.401
1747663017.54,0.145,0.084,-0.107,0.757,-0.111,0.150,7.529,9.227,40.381
1747663017.55,0.077,0.016,-0.049,0.742,-0.118,0.163,7.965,9.157,40.401
1747663017.56,-0.011,0.047,-0.007,0.740,-0.100,0.167,8.398,9.089,40.388
1747663017.57,-0.101,0.106,-0.010,0.725,-0.002,0.130,8.825,9.055,40.407
1747663017.58,-0.131,0.114,-0.030,0.721,0.088,0.094,9.243,9.084,40.374
1747663017.59,-0.087,0.090,-0.069,0.738,0.061,0.077,9.660,9.132,40.355
1747663017.60,-0.040,0.049,-0.117,0.729,-0.016,0.042,10.083,9.151,40.290
1747663017.61,-0.008,0.030,-0.126,0.688,-0.064,-0.034,10.481,9.139,40.227
1747663017.62,-0.021,0.004,-0.110,0.679,-0.105,-0.086,10.860,9.110,40.080
1747663017.63,-0.067,-0.032,-0.083,0.663,-0.124,-0.091,11.232,9.066,39.966
1747663017.64,-0.058,-0.037,-0.072,0.615,-0.131,-0.125,11.583,9.016,39.767
1747663017.65,-0.025,-0.007,-0.069,0.622,-0.146,-0.137,11.916,8.964,39.635
1747663017.66,-0.033,0.023,-0.060,0.640,-0.146,-0.140,12.263,8.906,39.431
1747663017.67,-0.020,0.078,-0.051,0.609,-0.161,-0.131,12.602,8.851,39.296
1747663017.68,0.003,0.114,-0.068,0.616,-0.193,-0.112,12.937,8.777,39.108
1747663017.69,-0.012,0.105,-0.056,0.600,-0.145,-0.112,13.271,8.703,38.989
1747663017.70,-0.024,0.062,-0.047,0.589,-0.067,-0.123,13.597,8.672,38.807
1747663017.71,-0.019,0.023,-0.080,0.585,-0.040,-0.126,13.917,8.672,38.683
1747663017.72,0.010,-0.008,-0.090,0.558,-0.026,-0.125,14.231,8.684,38.486
1747663017.73,0.049,-0.034,-0.066,0.505,-0.072,-0.116,14.520,8.688,38.368
1747663017.74,0.062,-0.048,-0.071,0.447,-0.128,-0.114,14.780,8.657,38.187
1747663017.75,0.062,-0.075,-0.051,0.393,-0.147,-0.102,15.007,8.604,38.086
1747663017.76,0.086,-0.090,-0.034,0.333,-0.172,-0.067,15.205,8.536,37.934
1747663017.77,0.103,-0.095,-0.053,0.275,-0.210,-0.031,15.373,8.439,37.884
1747663017.78,0.088,-0.087,-0.068,0.250,-0.231,0.003,15.518,8.321,37.778
1747663017.79,0.050,-0.059,-0.063,0.250,-0.181,0.070,15.662,8.200,37.779
1747663017.80,-0.012,-0.023,-0.030,0.262,-0.063,0.099,15.814,8.121,37.747
1747663017.81,-0.040,-0.031,-0.012,0.226,0.044,0.108,15.962,8.107,37.789
1747663017.82,-0.033,-0.086,-0.001,0.159,0.100,0.112,16.079,8.137,37.772
1747663017.83,0.004,-0.147,-0.000,0.118,0.076,0.137,16.167,8.174,37.833
1747663017.84,0.051,-0.139,-0.041,0.075,-0.009,0.146,16.234,8.173,37.852
1747663017.85,0.076,-0.103,-0.077,0.044,-0.081,0.134,16.278,8.125,37.929
1747663017.86,0.054,-0.058,-0.085,0.026,-0.116,0.132,16.308,8.045,37.958
1747663017.87,-0.004,0.004,-0.064,0.037,-0.106,0.121,16.334,7.961,38.032
1747663017.88,-0.060,0.062,-0.029,0.068,-0.044,0.114,16.375,7.898,38.037
1747663017.89,-0.090,0.071,0.014,0.056,0.025,0.092,16.418,7.878,38.092
1747663017.90,-0.078,0.022,0.014,0.047,0.074,0.076,16.455,7.893,38.063
1747663017.91,-0.043,-0.026,-0.001,0.049,0.087,0.054,16.492,7.930,38.098
1747663017.92,-0.007,-0.027,-0.016,0.043,0.051,0.020,16.524,7.967,38.051
1747663017.93,0.027,-0.022,-0.038,0.042,-0.020,0.011,16.551,7.976,38.054
1747663017.94,0.027,-0.023,-0.042,0.041,-0.044,0.017,16.576,7.956,38.004
1747663017.95,0.001,-0.005,-0.015,0.038,-0.023,0.011,16.599,7.934,38.011
1747663017.96,-0.023,0.017,0.016,0.031,0.009,0.005,16.617,7.927,37.957
1747663017.97,-0.026,0.020,0.025,0.044,0.042,0.020,16.637,7.939,37.962
1747663017.98,-0.010,0.016,0.004,0.065,0.029,0.035,16.670,7.955,37.915
1747663017.99,0.009,0.026,-0.024,0.105,-0.009,0.030,16.722,7.954,37.929
1747663018.00,0.009,0.038,-0.011,0.119,0.010,0.027,16.790,7.951,37.885
1747663018.01,0.011,0.038,0.014,0.128,0.019,0.024,16.863,7.960,37.889
1747663018.02,-0.001,0.030,0.017,0.137,0.020,0.030,16.941,7.973,37.826
1747663018.03,-0.003,0.025,0.000,0.153,0.013,0.034,17.025,7.980,37.833
1747663018.04,-0.013,0.033,-0.015,0.151,0.011,0.031,17.111,7.981,37.787
1747663018.05,-0.015,0.032,-0.005,0.172,0.030,0.015,17.201,7.988,37.788
1747663018.06,-0.005,0.023,0.007,0.167,0.032,-0.003,17.292,8.006,37.732
1747663018.07,0.007,0.001,0.000,0.182,0.014,-0.010,17.376,8.027,37.713
1747663018.08,0.018,0.006,-0.005,0.202,-0.014,-0.005,17.472,8.033,37.640
1747663018.09,0.022,0.023,0.008,0.199,-0.037,-0.002,17.572,8.027,37.621
1747663018.10,0.008,-0.001,0.009,0.204,-0.035,0.008,17.675,8.010,37.559
1747663018.11,-0.003,-0.001,0.009,0.226,-0.016,0.002,17.787,7.998,37.545
1747663018.12,0.008,0.035,0.004,0.234,-0.007,-0.016,17.904,7.997,37.459
1747663018.13,0.005,0.032,-0.008,0.243,-0.018,-0.024,18.025,7.995,37.428
1747663018.14,-0.004,0.009,-0.022,0.261,-0.024,-0.025,18.157,7.992,37.340
1747663018.15,-0.004,0.019,-0.019,0.255,0.006,-0.028,18.297,7.999,37.302
1747663018.16,-0.003,0.021,-0.008,0.244,0.053,-0.023,18.430,8.033,37.199
1747663018.17,-0.002,0.003,-0.006,0.254,0.066,-0.015,18.559,8.084,37.165
1747663018.18,0.013,-0.011,-0.007,0.249,0.060,-0.018,18.698,8.134,37.075
1747663018.19,0.057,-0.009,-0.009,0.243,-0.008,-0.012,18.832,8.159,37.045
1747663018.20,0.079,-0.018,-0.042,0.248,-0.071,0.005,18.961,8.143,36.967
1747663018.21,0.051,-0.005,-0.043,0.245,-0.068,0.009,19.091,8.107,36.950
1747663018.22,0.009,0.021,-0.018,0.249,-0.008,0.009,19.226,8.087,36.876
1747663018.23,-0.031,0.029,-0.008,0.239,0.067,0.013,19.360,8.107,36.863
1747663018.24,-0.026,0.021,-0.013,0.220,0.098,0.023,19.485,8.159,36.801
1747663018.25,0.016,-0.003,-0.031,0.200,0.082,0.044,19.603,8.215,36.802
1747663018.26,0.037,-0.017,-0.047,0.190,0.035,0.105,19.719,8.242,36.784
1747663018.27,0.032,-0.011,-0.057,0.175,0.035,-0.010,19.823,8.270,36.788
1747663018.28,0.069,-0.001,-0.062,0.143,-0.016,0.014,19.912,8.286,36.717
1747663018.29,0.025,-0.030,-0.083,0.113,0.015,0.027,19.983,8.285,36.716
1747663018.30,-0.001,-0.005,-0.074,0.091,0.073,0.038,20.041,8.307,36.666
1747663018.31,0.002,0.010,-0.081,0.070,0.118,0.035,20.089,8.357,36.682
1747663018.32,0.013,-0.018,-0.089,0.006,0.159,0.016,20.112,8.430,36.642
1747663018.33,0.016,-0.042,-0.093,-0.042,0.179,-0.007,20.102,8.526,36.646
1747663018.34,0.008,-0.028,-0.103,-0.119,0.222,-0.027,20.056,8.640,36.595
1747663018.35,0.009,-0.033,-0.091,-0.174,0.217,-0.040,19.969,8.771,36.589
1747663018.36,0.015,-0.027,-0.121,-0.250,0.189,-0.030,19.846,8.890,36.542
1747663018.37,0.044,-0.026,-0.178,-0.329,0.125,-0.004,19.683,8.974,36.509
1747663018.38,0.073,-0.054,-0.201,-0.424,0.087,0.045,19.470,9.017,36.557
1747663018.39,0.073,-0.090,-0.186,-0.513,0.082,0.072,19.212,9.037,36.590
1747663018.40,0.051,-0.110,-0.175,-0.606,0.102,0.068,18.902,9.058,36.687
1747663018.41,0.025,-0.121,-0.169,-0.701,0.120,0.061,18.540,9.089,36.757
1747663018.42,0.009,-0.131,-0.161,-0.781,0.123,0.078,18.127,9.124,36.868
1747663018.43,-0.010,-0.113,-0.152,-0.838,0.123,0.099,17.680,9.153,36.968
1747663018.44,-0.007,-0.063,-0.152,-0.921,0.138,0.091,17.193,9.186,37.109
1747663018.45,0.008,-0.050,-0.160,-0.992,0.140,0.095,16.662,9.223,37.234
1747663018.46,0.012,-0.062,-0.137,-1.062,0.145,0.091,16.091,9.263,37.387
1747663018.47,0.024,-0.068,-0.137,-1.140,0.141,0.072,15.478,9.302,37.533
1747663018.48,0.044,-0.077,-0.168,-1.191,0.125,0.055,14.825,9.340,37.682
1747663018.49,0.045,-0.080,-0.166,-1.241,0.116,0.059,14.146,9.371,37.835
1747663018.50,0.040,-0.053,-0.125,-1.315,0.110,0.072,13.431,9.399,37.995
1747663018.51,0.051,-0.034,-0.135,-1.352,0.050,0.086,12.686,9.406,38.178
1747663018.52,0.049,-0.040,-0.125,-1.378,0.036,0.069,11.925,9.390,38.355
1747663018.53,0.060,-0.051,-0.088,-1.431,0.086,0.025,11.138,9.393,38.531
1747663018.54,0.041,-0.048,-0.045,-1.451,0.090,-0.021,10.325,9.419,38.668
1747663018.55,-0.010,-0.042,-0.028,-1.465,0.135,-0.030,9.502,9.460,38.802
1747663018.56,-0.014,-0.030,-0.027,-1.493,0.202,-0.013,8.670,9.538,38.930
1747663018.57,0.007,-0.019,-0.087,-1.552,0.200,-0.019,7.811,9.635,39.112
1747663018.58,0.015,-0.021,-0.109,-1.591,0.189,-0.004,6.925,9.726,39.257
1747663018.59,0.070,-0.039,-0.086,-1.655,0.149,0.051,6.014,9.805,39.480
1747663018.60,0.146,-0.063,-0.107,-1.698,0.055,0.106,5.077,9.843,39.690
1747663018.61,0.175,-0.074,-0.077,-1.708,0.006,0.129,4.129,9.840,40.000
1747663018.62,0.151,-0.064,-0.014,-1.701,-0.045,0.115,3.183,9.814,40.237
1747663018.63,0.061,-0.045,0.014,-1.710,-0.031,0.072,2.231,9.778,40.541
1747663018.64,-0.041,-0.028,0.030,-1.723,0.061,0.034,1.270,9.778,40.735
1747663018.65,-0.108,-0.025,0.015,-1.761,0.182,0.041,0.295,9.845,41.011
1747663018.66,-0.094,-0.048,-0.025,-1.805,0.298,0.078,-0.704,9.984,41.219
1747663018.67,-0.011,-0.073,-0.037,-1.839,0.379,0.118,-1.718,10.183,41.557
1747663018.68,0.077,-0.086,-0.012,-1.852,0.423,0.136,-2.743,10.426,41.818
1747663018.69,0.122,-0.085,-0.020,-1.852,0.334,0.108,-3.770,10.662,42.203
1747663018.70,0.094,-0.066,-0.037,-1.853,0.187,0.038,-4.802,10.827,42.444
1747663018.71,0.041,-0.046,-0.003,-1.852,0.080,-0.049,-5.841,10.920,42.755
1747663018.72,-0.006,-0.045,0.035,-1.857,0.013,-0.124,-6.890,10.963,42.907
1747663018.73,-0.030,-0.069,0.009,-1.875,-0.002,-0.133,-7.948,10.980,43.162
1747663018.74,-0.033,-0.097,-0.031,-1.851,0.032,-0.112,-9.008,11.007,43.298
1747663018.75,-0.056,-0.116,-0.015,-1.810,0.099,-0.115,-10.045,11.066,43.565
1747663018.76,-0.106,-0.124,0.038,-1.815,0.243,-0.142,-11.075,11.185,43.695
1747663018.77,-0.138,-0.128,0.047,-1.835,0.369,-0.161,-12.113,11.387,43.948
1747663018.78,-0.151,-0.120,0.026,-1.885,0.457,-0.174,-13.173,11.651,44.069
1747663018.79,-0.133,-0.107,0.034,-1.904,0.509,-0.180,-14.253,11.960,44.340
1747663018.80,-0.067,-0.092,0.018,-1.919,0.482,-0.175,-15.342,12.280,44.475
1747663018.81,0.011,-0.071,-0.027,-1.911,0.363,-0.178,-16.432,12.565,44.770
1747663018.82,0.051,-0.045,-0.016,-1.899,0.219,-0.217,-17.520,12.770,44.907
1747663018.83,0.031,-0.017,0.046,-1.804,0.147,-0.278,-18.582,12.902,45.132
1747663018.84,-0.020,0.001,0.093,-1.745,0.175,-0.343,-19.607,13.011,45.189
1747663018.85,-0.055,0.000,0.037,-1.758,0.218,-0.387,-20.625,13.132,45.335
1747663018.86,-0.064,-0.019,-0.028,-1.793,0.252,-0.397,-21.667,13.269,45.350
1747663018.87,-0.045,-0.043,0.017,-1.773,0.328,-0.383,-22.708,13.442,45.484
1747663018.88,-0.013,-0.057,0.094,-1.784,0.356,-0.350,-23.745,13.655,45.520
1747663018.89,0.012,-0.059,0.069,-1.783,0.319,-0.313,-24.781,13.875,45.702
1747663018.90,0.028,-0.043,0.037,-1.785,0.287,-0.304,-25.811,14.083,45.786
1747663018.91,0.032,-0.020,0.058,-1.783,0.255,-0.318,-26.844,14.279,45.991
1747663018.92,0.028,-0.008,0.052,-1.723,0.196,-0.340,-27.862,14.442,46.065
1747663018.93,0.025,-0.009,0.053,-1.666,0.139,-0.347,-28.848,14.564,46.224
1747663018.94,0.021,-0.021,0.044,-1.666,0.083,-0.355,-29.817,14.652,46.275
1747663018.95,0.007,-0.052,-0.009,-1.719,0.028,-0.337,-30.803,14.714,46.435
1747663018.96,0.014,-0.097,-0.033,-1.727,-0.019,-0.280,-31.803,14.762,46.529
1747663018.97,0.048,-0.125,-0.005,-1.685,0.002,-0.224,-32.781,14.827,46.745
1747663018.98,0.079,-0.118,0.034,-1.676,0.041,-0.200,-33.740,14.924,46.900
1747663018.99,0.074,-0.086,0.068,-1.652,0.076,-0.199,-34.689,15.051,47.154
1747663019.00,0.033,-0.045,0.065,-1.600,0.072,-0.213,-35.616,15.186,47.312
1747663019.01,-0.019,0.003,0.026,-1.572,0.032,-0.239,-36.521,15.300,47.539
1747663019.02,-0.071,0.047,-0.003,-1.588,-0.036,-0.275,-37.431,15.371,47.660
1747663019.03,-0.112,0.077,0.002,-1.590,-0.074,-0.315,-38.351,15.398,47.834
1747663019.04,-0.116,0.082,0.015,-1.569,-0.091,-0.327,-39.270,15.398,47.912
1747663019.05,-0.070,0.055,0.021,-1.555,-0.092,-0.282,-40.177,15.401,48.077
1747663019.06,0.001,0.014,0.028,-1.565,-0.118,-0.214,-41.071,15.429,48.209
1747663019.07,0.059,-0.017,0.029,-1.562,-0.050,-0.167,-41.962,15.497,48.464
1747663019.08,0.093,-0.032,0.005,-1.545,0.021,-0.175,-42.842,15.624,48.661
1747663019.09,0.074,-0.017,0.004,-1.542,0.031,-0.239,-43.722,15.759,48.901
1747663019.10,0.001,0.010,0.018,-1.539,0.006,-0.317,-44.612,15.853,49.022
1747663019.11,-0.079,0.027,0.033,-1.510,-0.005,-0.375,-45.504,15.902,49.146
1747663019.12,-0.136,0.024,0.041,-1.480,-0.018,-0.393,-46.384,15.916,49.175
1747663019.13,-0.137,0.002,0.014,-1.479,-0.004,-0.365,-47.255,15.932,49.266
1747663019.14,-0.072,-0.028,-0.021,-1.486,0.016,-0.329,-48.124,15.984,49.329
1747663019.15,-0.004,-0.042,-0.040,-1.495,-0.014,-0.328,-48.994,16.046,49.471
1747663019.16,0.050,-0.051,-0.001,-1.506,-0.018,-0.329,-49.870,16.103,49.559
1747663019.17,0.102,-0.051,0.058,-1.494,0.016,-0.330,-50.746,16.171,49.705
1747663019.18,0.115,-0.027,0.075,-1.468,0.018,-0.348,-51.612,16.246,49.786
1747663019.19,0.083,0.007,0.057,-1.479,-0.043,-0.365,-52.476,16.288,49.876
1747663019.20,0.045,0.026,0.047,-1.514,-0.093,-0.359,-53.354,16.302,49.945
1747663019.21,0.021,0.022,0.054,-1.512,-0.104,-0.344,-54.242,16.314,50.062
1747663019.22,0.004,0.004,0.041,-1.443,-0.120,-0.325,-55.107,16.328,50.155
1747663019.23,-0.010,-0.019,-0.019,-1.375,-0.176,-0.304,-55.928,16.321,50.259
1747663019.24,-0.005,-0.041,-0.068,-1.354,-0.206,-0.292,-56.721,16.295,50.361
1747663019.25,0.012,-0.059,-0.044,-1.343,-0.211,-0.306,-57.509,16.259,50.484
1747663019.26,0.019,-0.063,-0.021,-1.315,-0.189,-0.341,-58.288,16.200,50.560
1747663019.27,0.024,-0.056,-0.019,-1.335,-0.123,-0.360,-59.070,16.139,50.594
1747663019.28,0.025,-0.050,0.029,-1.373,-0.057,-0.381,-59.871,16.109,50.630
1747663019.29,0.015,-0.041,0.080,-1.390,-0.109,-0.370,-60.691,16.086,50.655
1747663019.30,-0.014,-0.028,0.068,-1.356,-0.207,-0.334,-61.501,16.038,50.701
1747663019.31,-0.017,-0.022,0.046,-1.321,-0.271,-0.275,-62.284,15.979,50.792
1747663019.32,0.014,-0.024,0.030,-1.259,-0.292,-0.231,-63.033,15.944,50.939
1747663019.33,0.036,-0.016,-0.011,-1.172,-0.298,-0.241,-63.737,15.901,51.079
1747663019.34,0.032,-0.002,-0.049,-1.142,-0.288,-0.283,-64.411,15.805,51.148
1747663019.35,0.010,0.007,-0.025,-1.206,-0.276,-0.336,-65.102,15.667,51.173
1747663019.36,-0.042,0.002,0.030,-1.223,-0.254,-0.357,-65.829,15.507,51.141
1747663019.37,-0.094,-0.008,0.030,-1.153,-0.222,-0.361,-66.539,15.333,51.099
1747663019.38,-0.112,-0.025,-0.023,-1.115,-0.147,-0.357,-67.216,15.155,50.991
1747663019.39,-0.081,-0.052,-0.015,-1.069,0.016,-0.347,-67.872,15.041,50.909
1747663019.40,-0.038,-0.069,0.004,-1.043,0.174,-0.338,-68.503,15.008,50.787
1747663019.41,-0.013,-0.075,0.032,-1.102,0.319,-0.302,-69.139,15.103,50.736
1747663019.42,-0.008,-0.074,0.059,-1.165,0.349,-0.294,-69.809,15.318,50.743
1747663019.43,-0.045,-0.062,0.065,-1.206,0.334,-0.287,-70.506,15.565,50.799
1747663019.44,-0.050,-0.048,0.089,-1.288,0.289,-0.249,-71.232,15.871,50.897
1747663019.45,-0.035,-0.018,0.089,-1.304,0.200,-0.167,-71.981,16.286,51.188
1747663019.46,0.001,0.032,0.024,-1.200,0.103,-0.129,-72.692,16.768,51.563
1747663019.47,0.056,0.072,-0.035,-1.096,-0.015,-0.149,-73.342,17.176,51.963
1747663019.48,0.104,0.098,-0.053,-0.992,-0.135,-0.205,-73.941,17.414,52.205
1747663019.49,0.112,0.097,-0.064,-0.851,-0.271,-0.292,-74.486,17.377,52.288
1747663019.50,0.076,0.071,-0.083,-0.689,-0.341,-0.399,-74.965,16.985,52.004
1747663019.51,0.033,0.033,-0.094,-0.559,-0.308,-0.484,-75.375,16.261,51.449
1747663019.52,-0.006,0.008,-0.092,-0.545,-0.273,-0.506,-75.754,15.363,50.633
1747663019.53,-0.053,-0.029,-0.065,-0.585,-0.270,-0.480,-76.137,14.447,49.845
1747663019.54,-0.133,-0.070,-0.056,-0.741,-0.327,-0.405,-76.563,13.636,49.121
1747663019.55,-0.221,-0.111,0.006,-0.877,-0.321,-0.298,-77.063,13.076,48.739
1747663019.56,-0.283,-0.144,0.024,-0.921,-0.203,-0.218,-77.598,12.807,48.561
1747663019.57,-0.304,-0.152,0.020,-0.936,-0.060,-0.194,-78.143,12.743,48.575
1747663019.58,-0.226,-0.125,0.009,-0.897,0.158,-0.150,-78.678,12.865,48.624
1747663019.59,-0.067,-0.067,-0.001,-0.826,0.339,-0.080,-79.172,13.242,48.860
1747663019.60,0.056,0.009,-0.036,-0.762,0.367,-0.034,-79.620,13.864,49.224
1747663019.61,0.096,0.091,-0.085,-0.665,0.316,-0.047,-80.022,14.511,49.681
1747663019.61,0.086,0.135,-0.105,-0.555,0.292,-0.081,-80.366,14.984,49.933
1747663019.62,0.072,0.110,-0.051,-0.542,0.280,-0.075,-80.678,15.362,50.151
1747663019.64,0.056,0.054,0.029,-0.636,0.262,-0.037,-81.005,15.890,50.469
1747663019.64,0.004,-0.004,0.097,-0.833,0.165,-0.005,-81.410,16.709,51.173
1747663019.66,-0.081,-0.050,0.135,-0.929,0.060,-0.052,-81.900,17.717,52.070
1747663019.66,-0.175,-0.085,0.137,-0.932,0.011,-0.141,-82.423,18.552,52.900
1747663019.67,-0.171,-0.121,0.179,-0.918,0.070,-0.152,-82.953,19.262,53.535
1747663019.68,-0.037,-0.141,0.169,-0.916,0.060,-0.073,-83.467,20.266,54.504
1747663019.69,0.096,-0.107,0.102,-0.974,-0.088,0.023,-83.975,21.926,56.114
1747663019.70,0.138,-0.039,0.060,-0.916,-0.398,0.030,-84.472,24.065,58.400
1747663019.71,0.110,0.034,-0.071,-0.727,-0.526,-0.004,-84.892,25.989,60.536
1747663019.72,0.121,0.042,-0.094,-0.705,-0.299,-0.008,-85.255,27.805,62.601
1747663019.73,0.163,-0.022,0.031,-0.624,-0.115,0.042,-85.588,30.113,64.959
1747663019.74,0.085,-0.039,-0.022,-0.470,-0.181,0.085,-85.834,32.576,67.508
1747663019.75,-0.078,0.017,-0.151,-0.452,-0.311,0.052,-86.027,34.919,69.945
1747663019.76,-0.138,0.060,-0.162,-0.431,-0.174,0.025,-86.222,37.252,72.430
1747663019.77,-0.056,0.072,-0.109,-0.310,0.025,0.018,-86.381,39.396,74.553
1747663019.78,0.043,0.070,-0.067,-0.232,0.205,0.010,-86.491,41.148,76.239
1747663019.79,0.102,0.059,0.015,-0.219,0.143,-0.020,-86.587,42.635,77.555
1747663019.80,0.089,0.041,0.003,-0.229,0.017,-0.052,-86.695,43.911,78.793
1747663019.83,0.066,0.019,0.048,-0.206,0.019,-0.060,-86.808,45.051,79.869
1747663019.83,0.007,-0.006,0.097,-0.179,0.060,-0.063,-86.909,46.038,80.837
1747663019.84,-0.072,-0.017,0.091,-0.174,0.177,-0.089,-87.009,46.936,81.610
1747663019.85,-0.099,-0.015,0.113,-0.162,0.311,-0.130,-87.120,47.639,82.174
1747663019.85,-0.081,-0.002,0.116,-0.105,0.413,-0.159,-87.234,47.861,82.126
1747663019.86,-0.004,0.025,0.084,-0.050,0.487,-0.149,-87.329,47.527,81.536
1747663019.87,0.103,0.046,0.060,-0.035,0.592,-0.114,-87.402,47.100,80.730
1747663019.88,0.184,0.032,0.055,-0.019,0.580,-0.086,-87.453,46.835,80.124
1747663019.89,0.195,0.006,0.003,-0.010,0.481,-0.078,-87.493,46.577,79.489
1747663019.90,0.182,-0.003,-0.056,0.030,0.358,-0.099,-87.525,45.964,78.635
1747663019.91,0.169,-0.006,-0.088,0.077,0.269,-0.127,-87.549,44.580,76.997
1747663019.92,0.181,-0.013,-0.090,0.130,0.204,-0.131,-87.558,42.485,74.764
1747663019.93,0.202,-0.003,-0.075,0.176,0.125,-0.130,-87.541,39.922,72.038
1747663019.94,0.196,0.047,-0.050,0.232,0.026,-0.143,-87.498,36.890,68.959
1747663019.95,0.151,0.111,-0.034,0.309,-0.096,-0.180,-87.424,33.179,65.199
1747663019.96,0.091,0.141,-0.032,0.414,-0.249,-0.217,-87.306,28.665,60.778
1747663019.97,0.049,0.132,-0.044,0.547,-0.426,-0.243,-87.118,23.564,55.780
1747663019.98,0.019,0.095,-0.059,0.656,-0.643,-0.254,-86.845,18.380,50.895
1747663019.99,-0.008,0.050,-0.070,0.728,-0.822,-0.277,-86.506,13.583,46.431
1747663020.00,-0.027,0.009,-0.062,0.817,-0.905,-0.318,-86.107,9.163,42.500
1747663020.01,-0.054,-0.020,-0.048,0.852,-0.926,-0.358,-85.654,5.138,38.920
1747663020.02,-0.091,-0.047,-0.018,0.758,-0.893,-0.351,-85.203,1.712,36.007
1747663020.03,-0.126,-0.075,0.014,0.570,-0.756,-0.283,-84.822,-0.897,33.790
1747663020.04,-0.160,-0.086,0.024,0.379,-0.552,-0.180,-84.548,-2.609,32.448
1747663020.05,-0.198,-0.071,0.002,0.242,-0.350,-0.064,-84.370,-3.483,31.764
1747663020.06,-0.227,-0.039,-0.049,0.262,-0.191,0.042,-84.235,-3.609,31.794
1747663020.07,-0.221,0.002,-0.165,0.503,-0.100,0.125,-84.022,-3.094,32.347
1747663020.08,-0.165,0.021,-0.282,0.618,-0.027,0.220,-83.697,-2.090,33.397
1747663020.09,-0.083,-0.007,-0.184,0.503,0.209,0.306,-83.374,-0.632,34.769
1747663020.10,-0.047,-0.081,0.037,0.236,0.588,0.310,-83.157,1.105,36.289
1747663020.11,-0.080,-0.162,0.222,-0.165,0.882,0.232,-83.129,2.823,37.544
1747663020.12,-0.146,-0.228,0.311,-0.517,1.060,0.118,-83.322,4.330,38.499
1747663020.13,-0.203,-0.271,0.312,-0.706,1.127,-0.001,-83.673,5.506,39.021
1747663020.14,-0.216,-0.278,0.269,-0.797,1.057,-0.043,-84.103,6.393,39.284
1747663020.15,-0.144,-0.252,0.233,-0.781,0.968,0.054,-84.554,7.514,39.804
1747663020.16,-0.009,-0.189,0.172,-0.770,0.858,0.241,-84.978,9.641,41.416
1747663020.17,0.110,-0.101,0.171,-0.767,0.741,0.414,-85.371,13.361,44.663
1747663020.18,0.122,0.004,0.185,-0.759,0.527,0.409,-85.723,18.255,49.149
1747663020.19,0.018,0.113,0.134,-0.727,0.195,0.211,-86.063,22.942,53.640
1747663020.20,-0.073,0.194,-0.016,-0.430,-0.176,-0.005,-86.349,25.849,56.486
1747663020.21,-0.068,0.223,-0.295,-0.057,-0.645,-0.072,-86.481,26.115,56.985
1747663020.22,0.048,0.202,-0.472,0.007,-0.934,0.037,-86.488,25.454,56.740
1747663020.23,0.226,0.204,-0.393,-0.260,-0.734,0.139,-86.523,26.214,57.997
1747663020.24,0.260,0.225,-0.125,-0.498,-0.284,0.111,-86.688,28.815,60.835
1747663020.25,0.062,0.186,0.032,-0.423,-0.149,0.009,-86.905,31.692,63.827
1747663020.26,-0.271,0.043,0.023,-0.326,-0.176,-0.092,-87.096,33.331,65.520
1747663020.27,-0.501,-0.171,0.115,-0.318,0.100,-0.074,-87.277,34.464,66.685
1747663020.28,-0.473,-0.335,0.162,-0.400,0.493,0.083,-87.442,37.132,69.133
1747663020.29,-0.286,-0.372,0.079,-0.539,0.868,0.314,-87.573,43.531,75.147
1747663020.30,-0.047,-0.249,-0.060,-0.559,1.088,0.436,-87.621,53.306,84.306
1747663020.31,0.091,-0.001,-0.179,-0.427,0.991,0.380,-87.571,62.692,93.094
1747663020.32,0.188,0.248,-0.268,-0.187,0.741,0.275,-87.473,68.696,98.556
1747663020.33,0.348,0.368,-0.249,0.053,0.463,0.163,-87.369,70.785,100.301
1747663020.34,0.455,0.338,-0.205,0.257,0.088,0.083,-87.273,69.634,98.937
1747663020.35,0.430,0.219,-0.241,0.375,-0.252,0.038,-87.174,66.295,95.646
1747663020.36,0.324,0.062,-0.217,0.377,-0.419,0.042,-87.060,62.377,91.871
1747663020.37,0.197,-0.090,-0.115,0.363,-0.449,0.066,-86.930,58.919,88.660
1747663020.38,0.076,-0.185,-0.038,0.346,-0.396,0.105,-86.780,56.025,85.950
1747663020.39,0.006,-0.203,0.011,0.279,-0.296,0.150,-86.616,53.973,84.096
1747663020.40,-0.020,-0.150,0.057,0.176,-0.113,0.156,-86.468,52.993,83.192
1747663020.41,-0.016,-0.052,0.092,0.142,0.072,0.149,-86.346,52.709,82.917
1747663020.42,-0.011,0.042,0.086,0.151,0.165,0.147,-86.227,52.543,82.636
1747663020.43,-0.031,0.103,0.059,0.142,0.148,0.127,-86.113,52.344,82.343
1747663020.44,-0.050,0.120,0.032,0.134,0.058,0.094,-86.015,52.063,81.950
1747663020.45,-0.042,0.089,0.020,0.156,-0.019,0.066,-85.928,51.558,81.434
1747663020.46,-0.001,0.040,0.021,0.193,0.005,0.037,-85.843,50.699,80.552
1747663020.47,0.045,0.009,0.053,0.199,0.048,0.006,-85.761,49.648,79.479
1747663020.48,0.058,-0.014,0.085,0.215,-0.007,-0.008,-85.684,48.475,78.250
1747663020.49,0.045,-0.021,0.061,0.227,-0.109,-0.023,-85.605,47.142,76.944
1747663020.50,0.024,-0.009,0.062,0.228,-0.210,-0.030,-85.527,45.687,75.544
1747663020.51,0.004,0.002,0.102,0.200,-0.268,-0.028,-85.451,44.309,74.298
1747663020.52,-0.028,0.007,0.123,0.200,-0.319,-0.047,-85.383,43.004,73.127
1747663020.53,-0.069,0.014,0.095,0.253,-0.405,-0.085,-85.313,41.392,71.717
1747663020.54,-0.091,0.023,0.039,0.299,-0.416,-0.100,-85.228,39.417,69.937
1747663020.55,-0.071,0.030,0.022,0.341,-0.325,-0.085,-85.117,37.354,68.082
1747663020.56,-0.055,0.040,0.008,0.375,-0.195,-0.066,-84.978,35.408,66.235
1747663020.57,-0.079,0.042,0.013,0.399,-0.030,-0.028,-84.810,33.674,64.561
1747663020.58,-0.119,0.023,0.040,0.368,0.229,0.039,-84.625,32.439,63.230
1747663020.59,-0.146,-0.010,0.096,0.314,0.450,0.150,-84.432,32.030,62.619
1747663020.60,-0.164,-0.033,0.087,0.285,0.565,0.232,-84.229,32.355,62.626
1747663020.61,-0.168,-0.040,0.073,0.268,0.602,0.277,-84.018,33.072,63.009
1747663020.62,-0.111,-0.042,0.096,0.285,0.546,0.272,-83.801,33.844,63.407
1747663020.63,-0.007,-0.035,0.078,0.364,0.390,0.221,-83.569,34.247,63.540
1747663020.64,0.094,-0.008,0.028,0.471,0.216,0.138,-83.313,33.996,63.076
1747663020.65,0.160,0.040,-0.015,0.507,-0.002,0.039,-83.048,33.118,62.130
1747663020.66,0.157,0.071,-0.041,0.544,-0.208,-0.067,-82.802,31.716,60.734
1747663020.67,0.126,0.068,-0.051,0.651,-0.321,-0.125,-82.538,29.820,58.980
1747663020.68,0.100,0.047,-0.033,0.713,-0.298,-0.129,-82.229,27.743,57.035
1747663020.69,0.050,0.014,0.003,0.705,-0.283,-0.097,-81.897,25.847,55.285
1747663020.70,-0.043,-0.022,-0.022,0.700,-0.298,-0.046,-81.551,24.254,53.816
1747663020.71,-0.128,-0.053,-0.078,0.699,-0.199,0.038,-81.185,23.032,52.730
1747663020.72,-0.161,-0.080,-0.046,0.665,0.012,0.111,-80.809,22.282,51.993
1747663020.73,-0.159,-0.097,-0.002,0.693,0.121,0.155,-80.424,21.880,51.541
1747663020.74,-0.117,-0.106,-0.051,0.760,0.109,0.201,-80.001,21.606,51.187
1747663020.75,-0.020,-0.101,-0.086,0.896,0.105,0.231,-79.518,21.356,50.872
1747663020.76,0.077,-0.057,-0.103,0.955,0.238,0.258,-78.967,21.097,50.518
1747663020.77,0.173,0.000,-0.016,0.858,0.404,0.316,-78.424,21.122,50.349
1747663020.78,0.202,0.049,0.033,0.818,0.337,0.274,-77.919,21.288,50.287
1747663020.79,0.100,0.070,-0.030,0.786,0.236,0.192,-77.443,21.247,50.082
1747663020.80,0.036,0.017,0.016,0.714,0.209,0.200,-77.005,21.136,49.836
1747663020.81,0.039,-0.072,0.070,0.739,0.087,0.286,-76.574,21.141,49.750
1747663020.82,0.041,-0.100,0.004,0.836,-0.091,0.340,-76.090,21.167,49.783
1747663020.83,0.031,-0.058,-0.051,0.949,-0.233,0.340,-75.545,21.071,49.781
1747663020.84,0.032,-0.007,-0.068,1.056,-0.296,0.271,-74.944,20.759,49.619
1747663020.85,0.026,0.034,-0.064,1.039,-0.287,0.178,-74.334,20.265,49.280
1747663020.86,0.013,0.046,-0.059,1.007,-0.196,0.064,-73.764,19.662,48.802
1747663020.87,-0.016,0.039,-0.066,0.988,-0.047,-0.016,-73.221,18.980,48.168
1747663020.88,-0.019,-0.003,0.015,0.864,0.169,0.021,-72.716,18.451,47.577
1747663020.89,-0.018,-0.057,0.115,0.722,0.155,0.144,-72.274,18.239,47.249
1747663020.90,-0.051,-0.080,0.033,0.630,0.076,0.312,-71.868,18.308,47.272
1747663020.91,-0.042,-0.073,-0.011,0.607,0.071,0.476,-71.464,18.666,47.605
1747663020.92,0.016,-0.054,0.023,0.680,0.063,0.552,-71.023,19.183,48.132
1747663020.93,0.091,-0.035,0.024,0.864,0.012,0.531,-70.507,19.638,48.588
1747663020.94,0.144,-0.018,-0.057,1.114,-0.105,0.434,-69.880,19.807,48.809
1747663020.95,0.133,-0.003,-0.146,1.216,-0.298,0.319,-69.172,19.625,48.736
1747663020.96,0.076,0.018,-0.107,0.979,-0.421,0.233,-68.518,19.242,48.576
1747663020.97,0.003,0.034,0.058,0.657,-0.283,0.173,-68.045,18.932,48.466
1747663020.98,-0.098,0.034,0.173,0.636,-0.146,0.115,-67.678,18.717,48.399
1747663020.99,-0.198,0.037,0.064,0.633,-0.175,0.144,-67.307,18.505,48.265
1747663021.00,-0.199,0.029,0.034,0.550,-0.254,0.274,-66.951,18.392,48.309
1747663021.01,-0.095,0.017,0.105,0.584,-0.312,0.392,-66.588,18.423,48.520
1747663021.02,-0.004,0.032,0.124,0.752,-0.350,0.399,-66.156,18.463,48.809
1747663021.03,0.011,0.065,0.041,0.971,-0.443,0.273,-65.628,18.307,48.885
1747663021.04,-0.035,0.095,-0.117,1.080,-0.512,0.091,-65.031,17.847,48.722
1747663021.05,-0.079,0.100,-0.146,1.044,-0.435,-0.074,-64.452,17.191,48.302
1747663021.06,-0.114,0.075,-0.070,1.093,-0.187,-0.150,-63.891,16.508,47.793
1747663021.07,-0.125,0.019,0.001,1.134,0.204,-0.125,-63.298,15.992,47.213
1747663021.08,-0.121,-0.039,0.099,1.008,0.511,-0.030,-62.719,15.786,46.789
1747663021.09,-0.118,-0.096,0.103,0.820,0.595,0.137,-62.207,15.889,46.586
1747663021.10,-0.082,-0.151,0.072,0.692,0.460,0.314,-61.760,16.211,46.601
1747663021.11,-0.013,-0.167,0.024,0.638,0.146,0.463,-61.334,16.586,46.891
1747663021.12,0.114,-0.144,-0.016,0.706,-0.087,0.535,-60.889,16.902,47.241
1747663021.13,0.273,-0.082,-0.039,0.924,-0.233,0.443,-60.364,17.057,47.582
1747663021.14,0.330,-0.000,-0.074,1.195,-0.398,0.229,-59.726,16.892,47.599
1747663021.15,0.220,0.071,-0.111,1.288,-0.568,-0.013,-59.023,16.369,47.363
1747663021.16,0.026,0.111,-0.123,1.290,-0.517,-0.201,-58.330,15.609,46.852
1747663021.17,-0.138,0.102,-0.018,1.129,-0.110,-0.258,-57.692,14.916,46.301
1747663021.18,-0.220,0.033,0.189,0.948,0.306,-0.170,-57.158,14.553,45.797
1747663021.19,-0.258,-0.056,0.135,0.864,0.452,0.007,-56.666,14.504,45.524
1747663021.20,-0.197,-0.124,-0.028,0.688,0.384,0.303,-56.216,14.699,45.469
1747663021.21,0.038,-0.158,-0.013,0.629,0.278,0.591,-55.791,15.123,45.809
1747663021.22,0.278,-0.099,0.072,0.745,0.131,0.632,-55.324,15.601,46.243
1747663021.23,0.363,0.041,0.077,0.972,-0.084,0.459,-54.766,15.858,46.611
1747663021.24,0.294,0.167,-0.006,1.105,-0.294,0.289,-54.133,15.807,46.683
1747663021.25,0.113,0.231,-0.059,1.135,-0.410,0.138,-53.483,15.524,46.657
1747663021.26,-0.110,0.229,-0.021,1.123,-0.352,0.034,-52.848,15.131,46.448
1747663021.27,-0.258,0.160,0.080,1.124,-0.143,-0.001,-52.226,14.780,46.246
1747663021.28,-0.283,0.059,0.080,1.087,0.142,-0.004,-51.614,14.572,45.986
1747663021.29,-0.218,-0.048,0.042,0.982,0.364,-0.024,-51.041,14.527,45.805
1747663021.30,-0.130,-0.143,-0.006,0.833,0.362,-0.001,-50.542,14.570,45.583
1747663021.31,-0.017,-0.218,-0.002,0.735,0.242,0.168,-50.101,14.660,45.539
1747663021.32,0.112,-0.235,0.037,0.743,0.089,0.350,-49.659,14.802,45.601
1747663021.33,0.178,-0.131,0.025,0.878,0.005,0.371,-49.159,14.926,45.798
1747663021.34,0.167,0.036,0.014,1.041,-0.036,0.286,-48.580,14.965,45.860
1747663021.35,0.090,0.149,-0.006,1.139,-0.136,0.190,-47.941,14.881,45.880
1747663021.36,0.002,0.184,-0.017,1.148,-0.121,0.127,-47.284,14.712,45.760
1747663021.37,-0.042,0.167,0.044,1.099,0.015,0.085,-46.646,14.570,45.674
1747663021.38,-0.066,0.118,0.009,1.023,0.040,0.055,-46.050,14.470,45.506
1747663021.39,-0.058,0.034,-0.026,0.939,0.007,0.074,-45.500,14.372,45.419
1747663021.40,0.011,-0.061,0.017,0.916,0.040,0.145,-44.975,14.312,45.318
1747663021.41,0.112,-0.125,0.049,0.946,0.030,0.212,-44.433,14.305,45.329
1747663021.42,0.141,-0.143,0.027,0.962,-0.082,0.240,-43.873,14.285,45.317
1747663021.43,0.108,-0.104,0.014,0.990,-0.194,0.240,-43.299,14.203,45.373
1747663021.44,0.062,-0.041,0.011,1.010,-0.261,0.226,-42.712,14.061,45.359
1747663021.45,0.037,0.012,0.022,1.012,-0.246,0.194,-42.123,13.894,45.386
1747663021.46,0.027,0.044,0.049,1.066,-0.174,0.133,-41.525,13.728,45.319
1747663021.47,0.029,0.053,0.043,1.112,-0.097,0.085,-40.904,13.576,45.259
1747663021.48,0.028,0.031,0.029,1.031,-0.114,0.094,-40.294,13.434,45.132
1747663021.49,0.035,-0.012,-0.012,0.905,-0.127,0.183,-39.739,13.319,45.132
1747663021.50,0.070,-0.053,-0.004,0.817,-0.130,0.311,-39.231,13.263,45.161
1747663021.51,0.097,-0.063,0.037,0.836,-0.081,0.437,-38.725,13.283,45.354
1747663021.52,0.093,-0.023,0.048,0.888,-0.120,0.468,-38.186,13.342,45.535
1747663021.53,0.030,0.049,-0.023,0.912,-0.218,0.456,-37.624,13.353,45.772
1747663021.54,-0.016,0.100,-0.056,0.939,-0.258,0.400,-37.054,13.306,45.921
1747663021.55,-0.057,0.132,-0.025,0.983,-0.278,0.291,-36.474,13.202,46.064
1747663021.56,-0.104,0.148,0.036,1.036,-0.262,0.169,-35.885,13.046,46.060
1747663021.57,-0.126,0.139,0.053,1.062,-0.248,0.081,-35.283,12.852,46.043
1747663021.58,-0.143,0.104,-0.003,1.052,-0.242,0.045,-34.687,12.645,45.921
1747663021.59,-0.172,0.048,-0.005,1.012,-0.310,0.082,-34.105,12.423,45.870
1747663021.60,-0.174,-0.002,0.009,0.982,-0.308,0.191,-33.533,12.213,45.816
1747663021.61,-0.116,-0.010,0.033,1.015,-0.259,0.222,-32.953,12.051,45.875
1747663021.62,-0.097,0.035,0.023,1.115,-0.161,0.137,-32.337,11.917,45.850
1747663021.63,-0.112,0.071,0.002,1.222,-0.145,0.003,-31.674,11.773,45.801
1747663021.64,-0.113,0.055,-0.042,1.237,-0.179,-0.092,-30.988,11.577,45.602
1747663021.65,-0.065,-0.028,-0.037,1.199,-0.152,-0.116,-30.319,11.361,45.437
1747663021.66,0.018,-0.128,0.003,1.189,-0.012,-0.118,-29.664,11.197,45.208
1747663021.67,0.077,-0.182,0.034,1.203,0.046,-0.138,-29.009,11.097,45.040
1747663021.68,0.083,-0.174,0.008,1.175,0.019,-0.069,-28.351,11.011,44.819
1747663021.69,0.087,-0.124,0.024,1.089,-0.103,0.095,-27.713,10.931,44.746
1747663021.70,0.090,-0.041,0.010,1.018,-0.224,0.257,-27.106,10.824,44.733
1747663021.71,0.124,0.067,0.023,1.070,-0.243,0.304,-26.494,10.715,44.858
1747663021.72,0.131,0.175,0.047,1.152,-0.191,0.254,-25.839,10.609,44.902
1747663021.73,0.087,0.218,0.025,1.172,-0.165,0.200,-25.160,10.512,44.973
1747663021.74,0.038,0.168,-0.026,1.159,-0.182,0.183,-24.487,10.406,44.956
1747663021.75,0.013,0.075,-0.022,1.150,-0.135,0.196,-23.818,10.308,45.004
1747663021.76,-0.010,0.003,0.047,1.146,-0.110,0.205,-23.153,10.239,45.000
1747663021.77,-0.073,-0.022,0.041,1.139,-0.188,0.194,-22.490,10.156,45.063
1747663021.78,-0.134,-0.016,-0.004,1.128,-0.240,0.185,-21.834,10.026,45.055
1747663021.79,-0.113,-0.010,0.020,1.156,-0.187,0.157,-21.175,9.899,45.099
1747663021.80,-0.063,-0.016,0.030,1.186,-0.161,0.074,-20.504,9.782,45.048
1747663021.81,-0.032,-0.042,-0.004,1.240,-0.107,-0.013,-19.819,9.668,44.988
1747663021.82,-0.006,-0.084,0.001,1.289,-0.064,-0.004,-19.107,9.575,44.851
1747663021.83,-0.001,-0.098,-0.001,1.286,-0.068,0.098,-18.375,9.507,44.797
1747663021.84,-0.017,-0.035,-0.013,1.246,-0.094,0.121,-17.651,9.444,44.742
1747663021.85,-0.066,0.078,-0.004,1.242,-0.101,0.077,-16.944,9.369,44.731
1747663021.86,-0.102,0.162,0.020,1.271,-0.094,0.066,-16.229,9.290,44.649
1747663021.87,-0.113,0.183,0.030,1.277,-0.087,0.091,-15.503,9.218,44.614
1747663021.88,-0.097,0.157,0.027,1.256,-0.079,0.070,-14.780,9.150,44.543
1747663021.89,-0.066,0.097,0.021,1.232,-0.012,0.023,-14.077,9.099,44.477
1747663021.90,-0.010,0.014,0.023,1.233,0.038,0.014,-13.380,9.086,44.371
1747663021.91,0.024,-0.055,0.028,1.245,0.055,0.023,-12.680,9.086,44.302
1747663021.92,0.040,-0.080,0.046,1.264,0.110,0.016,-11.970,9.111,44.198
1747663021.93,0.061,-0.072,0.038,1.270,0.125,-0.020,-11.256,9.156,44.111
1747663021.94,0.047,-0.062,0.014,1.314,0.138,0.015,-10.530,9.206,43.986
1747663021.95,0.044,-0.045,0.048,1.369,0.219,0.076,-9.768,9.289,43.920
1747663021.96,0.092,0.008,0.058,1.345,0.239,0.164,-8.990,9.414,43.862
1747663021.97,0.125,0.084,-0.008,1.277,0.171,0.224,-8.233,9.531,43.877
1747663021.98,0.135,0.127,-0.058,1.187,0.068,0.290,-7.514,9.605,43.906
1747663021.99,0.145,0.121,-0.068,1.136,-0.028,0.321,-6.834,9.622,44.001
1747663022.00,0.135,0.062,-0.030,1.154,-0.086,0.313,-6.159,9.596,44.072
1747663022.01,0.110,-0.033,0.011,1.174,-0.130,0.260,-5.476,9.539,44.155
1747663022.02,0.085,-0.135,0.028,1.187,-0.162,0.204,-4.789,9.457,44.174
1747663022.03,0.062,-0.196,0.077,1.213,-0.142,0.158,-4.097,9.368,44.180
1747663022.04,0.017,-0.198,0.125,1.259,-0.071,0.154,-3.387,9.304,44.181
1747663022.05,-0.042,-0.137,0.117,1.290,0.059,0.197,-2.649,9.299,44.161
1747663022.06,-0.091,-0.033,0.059,1.310,0.176,0.254,-1.897,9.364,44.186
1747663022.07,-0.115,0.055,0.010,1.357,0.365,0.350,-1.116,9.523,44.230
1747663022.08,-0.077,0.097,-0.011,1.324,0.476,0.373,-0.323,9.764,44.323
1747663022.09,-0.035,0.111,-0.065,1.252,0.484,0.291,0.433,10.044,44.386
1747663022.10,-0.022,0.045,-0.130,1.222,0.356,0.192,1.153,10.285,44.406
1747663022.11,0.003,-0.124,-0.130,1.182,0.189,0.118,1.845,10.444,44.369
1747663022.12,0.069,-0.258,-0.067,1.138,-0.014,0.070,2.506,10.497,44.302
1747663022.13,0.101,-0.321,-0.021,1.098,-0.215,0.084,3.140,10.434,44.226
1747663022.14,0.075,-0.186,0.029,1.132,-0.352,0.107,3.772,10.271,44.177
1747663022.15,0.005,0.065,0.072,1.220,-0.333,0.146,4.448,10.071,44.130
1747663022.16,-0.055,0.194,0.071,1.179,-0.199,0.141,5.138,9.923,44.084
1747663022.17,-0.101,0.147,-0.033,1.209,-0.081,0.134,5.820,9.846,44.043
1747663022.18,-0.122,0.034,-0.066,1.232,0.090,0.167,6.525,9.851,43.999
1747663022.19,-0.081,-0.049,0.003,1.195,0.247,0.153,7.223,9.956,43.973
1747663022.20,-0.004,-0.098,-0.041,1.159,0.186,0.100,7.899,10.094,43.903
1747663022.21,0.056,-0.161,-0.073,1.100,0.038,0.120,8.545,10.166,43.849
1747663022.22,0.156,-0.126,-0.084,1.051,-0.113,0.138,9.163,10.149,43.788
1747663022.23,0.189,-0.066,-0.082,1.012,-0.220,0.108,9.755,10.059,43.754
1747663022.24,0.135,-0.000,-0.027,0.996,-0.258,0.111,10.329,9.927,43.694
1747663022.25,0.060,0.060,-0.017,1.006,-0.228,0.140,10.905,9.792,43.665
1747663022.26,-0.009,0.134,-0.044,0.999,-0.153,0.181,11.484,9.684,43.633
1747663022.27,-0.069,0.171,-0.065,1.010,-0.042,0.179,12.067,9.625,43.641
1747663022.28,-0.100,0.115,-0.066,0.979,0.086,0.127,12.644,9.640,43.608
1747663022.29,-0.072,0.032,-0.057,0.948,0.095,0.078,13.196,9.706,43.573
1747663022.30,-0.059,-0.095,-0.041,0.892,0.051,0.055,13.721,9.760,43.483
1747663022.31,-0.006,-0.138,-0.016,0.859,-0.013,0.045,14.221,9.787,43.424
1747663022.32,0.085,-0.102,-0.082,0.823,-0.161,0.031,14.698,9.756,43.308
1747663022.33,0.133,-0.065,-0.134,0.784,-0.317,0.028,15.154,9.634,43.246
1747663022.34,0.111,-0.053,-0.136,0.762,-0.357,0.014,15.591,9.454,43.116
1747663022.35,0.049,-0.044,-0.100,0.752,-0.320,0.031,16.021,9.274,43.054
1747663022.36,-0.028,0.007,-0.054,0.737,-0.209,0.096,16.446,9.131,42.952
1747663022.37,-0.073,0.098,-0.020,0.725,-0.078,0.126,16.870,9.048,42.952
1747663022.38,-0.076,0.109,-0.013,0.696,0.011,0.144,17.283,9.029,42.904
1747663022.39,-0.020,0.037,-0.059,0.693,0.043,0.196,17.691,9.038,42.937
1747663022.40,0.051,-0.024,-0.108,0.631,0.029,0.170,18.083,9.046,42.928
1747663022.41,0.105,-0.044,-0.124,0.574,-0.070,0.206,18.438,9.020,42.977
1747663022.42,0.092,-0.088,-0.131,0.514,-0.128,0.296,18.769,8.923,43.024
1747663022.43,0.064,-0.081,-0.095,0.458,-0.107,0.277,19.068,8.819,43.145
1747663022.44,0.049,-0.027,-0.093,0.425,-0.126,0.370,19.343,8.701,43.216
1747663022.45,-0.012,0.013,-0.116,0.423,-0.063,0.312,19.612,8.585,43.391
1747663022.46,-0.033,0.112,-0.078,0.444,-0.006,0.288,19.883,8.520,43.465
1747663022.47,-0.075,0.123,-0.068,0.426,0.046,0.248,20.151,8.489,43.588
1747663022.48,-0.101,0.066,-0.076,0.408,0.070,0.226,20.407,8.487,43.613
1747663022.49,-0.086,0.028,-0.102,0.369,0.076,0.158,20.644,8.498,43.701
1747663022.50,-0.037,0.040,-0.111,0.336,0.011,0.110,20.853,8.508,43.676
1747663022.51,-0.014,-0.007,-0.114,0.337,-0.043,0.104,21.052,8.484,43.711
1747663022.52,-0.002,-0.032,-0.085,0.299,-0.041,0.074,21.241,8.450,43.652
1747663022.53,0.031,0.004,-0.069,0.277,-0.101,0.048,21.405,8.409,43.662
1747663022.54,0.021,0.003,-0.092,0.307,-0.169,0.065,21.576,8.326,43.586
1747663022.55,-0.016,0.011,-0.049,0.294,-0.132,0.039,21.751,8.233,43.600
1747663022.56,-0.048,0.051,-0.048,0.295,-0.092,-0.053,21.916,8.183,43.490
1747663022.57,-0.071,0.052,-0.034,0.280,-0.001,-0.080,22.073,8.178,43.424
1747663022.58,-0.066,0.013,0.005,0.247,0.082,-0.090,22.216,8.232,43.265
1747663022.59,-0.031,-0.008,-0.028,0.221,0.050,-0.089,22.340,8.301,43.190
1747663022.60,0.030,-0.046,-0.078,0.161,-0.003,-0.057,22.442,8.337,43.055
1747663022.61,0.108,-0.053,-0.048,0.117,-0.019,-0.004,22.518,8.343,43.024
1747663022.62,0.132,-0.058,-0.039,0.063,-0.095,0.046,22.570,8.311,42.951
1747663022.63,0.103,-0.076,-0.066,0.024,-0.154,0.098,22.600,8.221,42.992
1747663022.64,0.067,-0.084,-0.004,0.024,-0.092,0.118,22.622,8.122,42.983
1747663022.65,0.028,-0.039,0.040,0.041,-0.005,0.114,22.651,8.068,43.051
1747663022.66,0.002,-0.017,0.022,0.027,0.065,0.119,22.680,8.056,43.029
1747663022.67,-0.005,-0.030,-0.001,0.016,0.105,0.130,22.701,8.077,43.103
1747663022.68,0.006,-0.022,-0.013,0.010,0.101,0.132,22.718,8.107,43.101
1747663022.69,0.018,-0.012,-0.026,0.002,0.071,0.113,22.733,8.132,43.172
1747663022.70,0.014,-0.022,-0.039,-0.006,0.053,0.105,22.741,8.144,43.166
1747663022.71,-0.015,-0.031,-0.020,-0.021,0.087,0.073,22.743,8.165,43.221
1747663022.72,-0.025,-0.007,-0.008,-0.029,0.094,0.051,22.737,8.206,43.175
1747663022.73,-0.017,0.010,-0.025,-0.018,0.054,0.031,22.729,8.241,43.202
1747663022.74,-0.004,0.024,-0.044,0.005,0.003,0.003,22.728,8.253,43.129
1747663022.75,-0.010,0.031,-0.057,0.020,-0.021,-0.031,22.736,8.249,43.119
1747663022.76,-0.031,0.031,-0.044,0.027,-0.002,-0.056,22.748,8.253,43.017
1747663022.77,-0.041,0.036,-0.028,0.015,0.021,-0.065,22.756,8.275,42.978
1747663022.77,-0.039,0.031,-0.014,0.003,0.041,-0.073,22.755,8.311,42.862
1747663022.78,-0.021,0.031,-0.013,0.011,0.058,-0.068,22.756,8.353,42.820
1747663022.79,-0.009,0.023,-0.028,0.015,0.053,-0.073,22.760,8.394,42.721
1747663022.80,0.001,0.012,-0.044,0.002,0.029,-0.073,22.754,8.430,42.677
1747663022.81,0.025,-0.019,-0.057,-0.004,0.015,-0.078,22.742,8.457,42.570
1747663022.82,0.053,-0.026,-0.024,-0.013,0.021,-0.108,22.722,8.487,42.515
1747663022.84,0.078,-0.005,-0.003,-0.021,0.014,-0.112,22.696,8.518,42.397
1747663022.84,0.076,0.003,-0.018,-0.030,0.003,-0.078,22.671,8.540,42.343
1747663022.85,0.046,0.010,-0.040,-0.064,-0.002,-0.056,22.636,8.548,42.233
1747663022.86,-0.004,0.017,-0.055,-0.049,0.049,-0.031,22.596,8.564,42.214
1747663022.87,-0.050,0.038,-0.036,-0.042,0.098,-0.038,22.566,8.613,42.146
1747663022.88,-0.046,0.032,-0.073,-0.074,0.097,-0.082,22.527,8.678,42.115
1747663022.89,-0.025,-0.018,-0.081,-0.087,0.129,-0.137,22.472,8.769,42.006
1747663022.90,-0.010,-0.042,-0.047,-0.139,0.117,-0.195,22.396,8.879,41.915
1747663022.91,0.016,-0.032,-0.066,-0.169,0.077,-0.223,22.289,8.983,41.746
1747663022.92,0.040,-0.028,-0.079,-0.177,0.062,-0.189,22.173,9.068,41.635
1747663022.93,0.055,-0.007,-0.103,-0.244,0.031,-0.151,22.040,9.130,41.497
1747663022.94,0.038,0.002,-0.190,-0.312,-0.010,-0.124,21.867,9.153,41.441
1747663022.95,-0.007,-0.039,-0.171,-0.392,0.105,-0.096,21.661,9.185,41.366
1747663022.96,-0.026,-0.088,-0.091,-0.479,0.294,-0.104,21.405,9.304,41.350
1747663022.97,-0.022,-0.112,-0.101,-0.561,0.393,-0.155,21.102,9.513,41.291
1747663022.98,-0.005,-0.140,-0.105,-0.653,0.446,-0.180,20.743,9.772,41.206
1747663022.99,0.043,-0.183,-0.089,-0.750,0.401,-0.160,20.332,10.027,41.178
1747663023.00,0.076,-0.182,-0.111,-0.837,0.235,-0.125,19.870,10.213,41.136
1747663023.01,0.104,-0.152,-0.181,-0.935,0.036,-0.087,19.362,10.277,41.168
1747663023.02,0.117,-0.119,-0.193,-1.030,-0.044,-0.051,18.803,10.253,41.217
1747663023.03,0.109,-0.091,-0.174,-1.104,-0.097,-0.009,18.200,10.181,41.314
1747663023.04,0.075,-0.060,-0.137,-1.145,-0.066,0.006,17.566,10.095,41.430
1747663023.05,0.031,-0.053,-0.067,-1.162,0.050,0.007,16.919,10.052,41.554
1747663023.06,0.011,-0.056,-0.028,-1.226,0.164,0.019,16.249,10.078,41.683
1747663023.07,-0.012,-0.068,-0.049,-1.273,0.216,0.027,15.549,10.148,41.826
1747663023.08,-0.036,-0.093,-0.054,-1.298,0.288,0.030,14.830,10.251,41.979
1747663023.09,-0.005,-0.093,-0.058,-1.329,0.312,0.004,14.095,10.388,42.131
1747663023.10,0.031,-0.067,-0.104,-1.374,0.219,-0.031,13.334,10.512,42.285
1747663023.11,0.025,-0.047,-0.107,-1.378,0.118,-0.064,12.556,10.580,42.405
1747663023.12,0.022,-0.024,-0.068,-1.405,0.060,-0.102,11.767,10.609,42.538
1747663023.13,0.008,0.006,-0.067,-1.410,0.002,-0.179,10.961,10.613,42.610
1747663023.14,-0.045,0.013,-0.050,-1.395,0.018,-0.233,10.151,10.608,42.689
1747663023.15,-0.068,0.003,-0.018,-1.376,0.114,-0.233,9.350,10.643,42.703
1747663023.16,-0.058,-0.003,-0.072,-1.412,0.183,-0.236,8.545,10.727,42.766
1747663023.17,-0.051,0.008,-0.099,-1.459,0.193,-0.212,7.714,10.832,42.792
1747663023.18,-0.031,0.002,-0.086,-1.509,0.203,-0.152,6.861,10.937,42.919
1747663023.19,0.027,-0.011,-0.106,-1.549,0.201,-0.116,5.989,11.043,43.013
1747663023.20,0.078,-0.019,-0.076,-1.572,0.144,-0.130,5.101,11.133,43.201
1747663023.21,0.097,-0.040,-0.011,-1.547,0.064,-0.148,4.210,11.185,43.297
1747663023.22,0.083,-0.062,0.015,-1.553,0.014,-0.180,3.326,11.201,43.469
1747663023.23,0.029,-0.067,0.022,-1.549,-0.029,-0.218,2.433,11.194,43.529
1747663023.24,-0.055,-0.079,-0.006,-1.536,-0.020,-0.238,1.546,11.174,43.664
1747663023.25,-0.103,-0.098,-0.029,-1.572,0.084,-0.227,0.651,11.190,43.704
1747663023.26,-0.103,-0.123,-0.059,-1.629,0.164,-0.191,-0.269,11.264,43.869
1747663023.27,-0.092,-0.127,-0.055,-1.678,0.217,-0.153,-1.214,11.373,43.957
1747663023.28,-0.040,-0.106,-0.007,-1.704,0.270,-0.126,-2.178,11.517,44.195
1747663023.29,0.040,-0.078,0.033,-1.679,0.276,-0.134,-3.140,11.682,44.319
1747663023.30,0.089,-0.043,0.047,-1.644,0.214,-0.187,-4.086,11.828,44.544
1747663023.31,0.115,-0.017,0.059,-1.638,0.131,-0.217,-5.026,11.934,44.623
1747663023.32,0.124,-0.008,0.039,-1.624,0.063,-0.206,-5.963,11.996,44.826
1747663023.33,0.096,0.003,0.008,-1.635,0.045,-0.174,-6.894,12.035,44.912
1747663023.34,0.039,0.023,0.006,-1.669,0.058,-0.117,-7.835,12.079,45.152
1747663023.35,-0.008,0.039,0.003,-1.687,0.104,-0.057,-8.782,12.144,45.306
1747663023.36,-0.016,0.053,0.030,-1.701,0.204,-0.021,-9.733,12.263,45.631
1747663023.37,-0.015,0.055,0.020,-1.694,0.227,-0.032,-10.683,12.424,45.829
1747663023.38,-0.012,0.028,-0.018,-1.663,0.238,-0.078,-11.627,12.590,46.155
1747663023.39,0.015,-0.017,-0.000,-1.646,0.261,-0.161,-12.561,12.764,46.299
1747663023.40,0.006,-0.057,0.012,-1.666,0.229,-0.252,-13.510,12.928,46.526
1747663023.41,-0.043,-0.094,-0.021,-1.709,0.170,-0.303,-14.485,13.057,46.586
1747663023.42,-0.059,-0.124,-0.052,-1.784,0.162,-0.276,-15.494,13.166,46.799
1747663023.43,-0.015,-0.138,-0.045,-1.856,0.251,-0.216,-16.539,13.312,46.905
1747663023.44,0.030,-0.117,-0.015,-1.886,0.308,-0.179,-17.606,13.518,47.200
1747663023.45,0.010,-0.067,0.006,-1.894,0.276,-0.198,-18.681,13.738,47.360
1747663023.46,-0.040,-0.008,0.038,-1.864,0.185,-0.229,-19.754,13.919,47.622
1747663023.47,-0.086,0.018,0.093,-1.802,0.123,-0.216,-20.800,14.051,47.757
1747663023.48,-0.094,-0.009,0.122,-1.730,0.116,-0.174,-21.806,14.172,48.007
1747663023.49,-0.063,-0.054,0.051,-1.635,0.189,-0.158,-22.759,14.315,48.163
1747663023.50,-0.009,-0.094,-0.017,-1.598,0.359,-0.164,-23.673,14.532,48.428
1747663023.51,0.032,-0.121,-0.011,-1.583,0.447,-0.183,-24.579,14.829,48.577
1747663023.52,0.021,-0.120,-0.013,-1.534,0.413,-0.209,-25.465,15.135,48.812
1747663023.53,-0.015,-0.081,-0.023,-1.602,0.356,-0.225,-26.358,15.410,48.941
1747663023.54,-0.065,-0.027,0.062,-1.669,0.301,-0.252,-27.298,15.659,49.170
1747663023.55,-0.116,0.006,0.125,-1.637,0.273,-0.258,-28.251,15.881,49.303
1747663023.56,-0.128,0.016,0.082,-1.550,0.309,-0.243,-29.164,16.105,49.526
1747663023.57,-0.104,0.015,-0.029,-1.510,0.362,-0.258,-30.040,16.360,49.648
1747663023.58,-0.081,-0.001,-0.047,-1.511,0.342,-0.302,-30.914,16.616,49.871
1747663023.59,-0.047,-0.037,-0.005,-1.461,0.363,-0.352,-31.780,16.857,49.948
1747663023.60,-0.003,-0.058,0.041,-1.469,0.348,-0.419,-32.640,17.084,50.092
1747663023.61,0.004,-0.056,0.057,-1.513,0.266,-0.461,-33.528,17.266,50.104
1747663023.62,0.017,-0.048,0.019,-1.555,0.176,-0.435,-34.443,17.401,50.209
1747663023.63,0.071,-0.041,-0.022,-1.552,0.092,-0.354,-35.357,17.513,50.271
1747663023.64,0.119,-0.029,-0.039,-1.573,-0.003,-0.267,-36.261,17.609,50.479
1747663023.65,0.133,-0.011,-0.046,-1.563,-0.038,-0.209,-37.157,17.704,50.659
1747663023.66,0.098,0.002,-0.020,-1.560,-0.113,-0.206,-38.040,17.786,50.941
1747663023.67,0.016,0.006,0.020,-1.557,-0.166,-0.203,-38.925,17.828,51.145
1747663023.68,-0.024,-0.010,0.028,-1.506,-0.099,-0.200,-39.793,17.880,51.430
1747663023.69,-0.021,-0.032,-0.004,-1.465,-0.021,-0.219,-40.635,17.972,51.623
1747663023.70,-0.003,-0.052,-0.051,-1.477,0.034,-0.244,-41.474,18.095,51.873
1747663023.71,0.027,-0.073,-0.065,-1.521,0.042,-0.268,-42.332,18.230,52.044
1747663023.72,0.063,-0.093,-0.036,-1.595,0.021,-0.279,-43.226,18.371,52.299
1747663023.73,0.094,-0.109,0.023,-1.614,-0.049,-0.261,-44.147,18.500,52.498
1747663023.74,0.118,-0.107,0.052,-1.601,-0.103,-0.221,-45.061,18.615,52.784
1747663023.75,0.117,-0.078,0.036,-1.610,-0.124,-0.188,-45.965,18.735,53.046
1747663023.76,0.088,-0.040,0.042,-1.646,-0.134,-0.192,-46.880,18.872,53.379
1747663023.77,0.036,-0.002,0.066,-1.647,-0.191,-0.212,-47.809,18.994,53.669
1747663023.78,-0.003,0.021,0.051,-1.588,-0.201,-0.206,-48.723,19.090,54.008
1747663023.79,-0.000,0.030,0.015,-1.536,-0.179,-0.203,-49.603,19.195,54.287
1747663023.80,0.014,0.033,-0.016,-1.509,-0.165,-0.224,-50.463,19.302,54.596
1747663023.81,0.032,0.030,-0.037,-1.545,-0.120,-0.267,-51.330,19.411,54.842
1747663023.82,0.048,0.016,0.017,-1.572,-0.108,-0.313,-52.226,19.530,55.103
1747663023.83,0.036,0.013,0.015,-1.544,-0.177,-0.333,-53.129,19.613,55.307
1747663023.84,0.011,0.020,-0.010,-1.534,-0.251,-0.328,-54.019,19.646,55.536
1747663023.85,-0.005,0.017,0.020,-1.519,-0.255,-0.317,-54.903,19.667,55.745
1747663023.86,-0.009,0.008,0.028,-1.491,-0.193,-0.331,-55.774,19.708,55.971
1747663023.87,-0.030,-0.004,0.002,-1.510,-0.199,-0.365,-56.646,19.751,56.153
1747663023.88,-0.073,-0.021,-0.018,-1.561,-0.217,-0.377,-57.543,19.780,56.353
1747663023.89,-0.099,-0.040,0.005,-1.591,-0.171,-0.381,-58.464,19.832,56.546
1747663023.90,-0.093,-0.045,0.007,-1.575,-0.149,-0.387,-59.389,19.912,56.781
1747663023.91,-0.077,-0.036,0.016,-1.526,-0.095,-0.402,-60.299,19.997,56.961
1747663023.92,-0.042,-0.019,0.026,-1.470,-0.011,-0.412,-61.182,20.102,57.138
1747663023.93,-0.021,-0.004,-0.030,-1.429,0.026,-0.447,-62.043,20.211,57.259
1747663023.94,-0.017,-0.001,-0.075,-1.439,0.027,-0.455,-62.899,20.302,57.342
1747663023.95,-0.008,-0.018,-0.053,-1.459,0.001,-0.441,-63.766,20.406,57.450
1747663023.96,-0.014,-0.037,-0.029,-1.426,0.004,-0.430,-64.625,20.519,57.575
1747663023.97,-0.016,-0.064,0.007,-1.426,0.030,-0.406,-65.470,20.662,57.722
1747663023.98,-0.007,-0.085,0.058,-1.443,0.088,-0.390,-66.316,20.868,57.913
1747663023.99,-0.003,-0.085,0.063,-1.431,0.175,-0.369,-67.161,21.160,58.129
1747663024.00,-0.007,-0.064,0.025,-1.437,0.232,-0.374,-67.998,21.519,58.389
1747663024.01,-0.009,-0.041,0.007,-1.515,0.232,-0.379,-68.861,21.935,58.683
1747663024.02,0.014,-0.026,0.038,-1.511,0.199,-0.378,-69.746,22.401,59.048
1747663024.03,0.039,-0.003,0.008,-1.396,0.092,-0.354,-70.596,22.837,59.399
1747663024.04,0.059,0.022,-0.069,-1.285,-0.040,-0.339,-71.376,23.191,59.759
1747663024.05,0.078,0.038,-0.090,-1.265,-0.081,-0.354,-72.120,23.475,60.073
1747663024.06,0.068,0.040,-0.051,-1.250,-0.032,-0.432,-72.869,23.704,60.347
1747663024.07,0.020,0.028,-0.021,-1.183,-0.026,-0.499,-73.614,23.807,60.440
1747663024.08,-0.047,0.004,-0.012,-1.159,-0.005,-0.529,-74.342,23.787,60.432
1747663024.09,-0.071,-0.036,0.044,-1.179,0.140,-0.488,-75.070,23.829,60.398
1747663024.10,-0.053,-0.073,0.091,-1.207,0.244,-0.427,-75.798,24.089,60.548
1747663024.11,-0.036,-0.084,0.056,-1.261,0.213,-0.378,-76.534,24.552,60.841
1747663024.12,0.003,-0.077,0.044,-1.327,0.186,-0.320,-77.289,25.222,61.414
1747663024.13,0.054,-0.058,0.082,-1.315,0.154,-0.269,-78.046,26.138,62.194
1747663024.14,0.071,-0.026,0.025,-1.225,0.049,-0.253,-78.760,27.138,63.157
1747663024.15,0.055,0.011,-0.046,-1.150,-0.018,-0.283,-79.431,28.077,64.049
1747663024.16,0.018,0.020,-0.063,-1.106,-0.019,-0.337,-80.080,28.893,64.892
1747663024.17,-0.034,0.005,-0.079,-1.087,-0.027,-0.376,-80.727,29.641,65.607
1747663024.18,-0.094,-0.012,-0.077,-1.046,-0.010,-0.413,-81.367,30.326,66.316
1747663024.19,-0.124,-0.027,-0.050,-1.025,0.137,-0.450,-82.001,30.968,66.868
1747663024.20,-0.096,-0.029,0.015,-1.004,0.276,-0.466,-82.633,31.653,67.437
1747663024.21,-0.052,0.000,0.017,-0.958,0.266,-0.451,-83.247,32.425,67.991
1747663024.22,-0.017,0.029,-0.035,-0.909,0.198,-0.440,-83.832,33.219,68.656
1747663024.23,0.028,0.023,-0.041,-0.887,0.150,-0.414,-84.394,34.088,69.377
1747663024.24,0.073,-0.006,0.026,-0.856,0.111,-0.334,-84.926,35.337,70.552
1747663024.25,0.103,-0.054,0.036,-0.737,0.045,-0.268,-85.396,36.925,72.035
1747663024.26,0.079,-0.068,-0.028,-0.684,-0.011,-0.211,-85.797,38.729,73.840
1747663024.27,0.035,-0.061,-0.002,-0.731,0.098,-0.187,-86.176,41.218,76.247
1747663024.28,-0.028,-0.058,0.047,-0.773,0.178,-0.206,-86.568,44.663,79.615
1747663024.29,-0.100,-0.050,-0.003,-0.751,0.202,-0.219,-86.956,48.913,83.693
1747663024.30,-0.112,-0.012,-0.038,-0.714,0.334,-0.204,-87.312,54.084,88.721
1747663024.31,-0.094,0.027,0.008,-0.689,0.439,-0.202,-87.626,60.508,94.852
1747663024.32,-0.098,0.068,0.020,-0.640,0.409,-0.219,-87.898,68.212,102.319
1747663024.33,-0.091,0.081,0.027,-0.594,0.398,-0.254,-88.133,76.979,110.785
1747663024.34,-0.038,0.038,0.053,-0.538,0.376,-0.266,-88.328,86.912,120.500
1747663024.35,0.024,-0.027,0.047,-0.466,0.370,-0.233,-88.461,97.522,130.826
1747663024.36,0.061,-0.067,0.027,-0.429,0.377,-0.189,-88.523,108.183,141.277
1747663024.37,0.053,-0.045,0.038,-0.424,0.324,-0.135,-88.511,118.428,151.243
1747663024.38,-0.012,-0.030,0.017,-0.407,0.163,-0.113,-88.439,127.482,160.162
1747663024.39,-0.114,-0.007,-0.033,-0.382,0.056,-0.150,-88.344,135.307,167.849
1747663024.40,-0.158,0.005,-0.045,-0.355,0.072,-0.199,-88.252,142.549,175.062
1747663024.41,-0.112,0.011,-0.030,-0.360,0.180,-0.208,-88.149,149.364,-178.281
1747663024.42,-0.016,0.003,0.018,-0.345,0.261,-0.155,-88.018,155.103,-172.668
1747663024.43,0.067,-0.001,0.020,-0.279,0.226,-0.103,-87.881,159.085,-168.917
1747663024.44,0.100,-0.013,-0.018,-0.221,0.145,-0.087,-87.766,161.718,-166.388
1747663024.45,0.110,0.026,-0.013,-0.180,0.072,-0.086,-87.669,163.845,-164.421
1747663024.46,0.105,0.025,-0.009,-0.133,-0.018,-0.042,-87.593,165.306,-162.973
1747663024.47,0.065,0.001,-0.010,-0.065,-0.064,0.014,-87.541,165.789,-162.560
1747663024.48,-0.013,-0.014,-0.001,-0.039,-0.085,0.027,-87.511,165.579,-162.725
1747663024.49,-0.108,-0.017,0.008,-0.067,-0.031,0.001,-87.481,165.508,-162.852
1747663024.50,-0.154,-0.025,0.020,-0.109,0.097,-0.025,-87.433,165.974,-162.404
1747663024.51,-0.132,-0.034,0.047,-0.175,0.203,-0.031,-87.359,166.837,-161.714
1747663024.52,-0.077,-0.025,0.056,-0.213,0.213,-0.023,-87.251,167.813,-160.860
1747663024.53,-0.023,-0.001,0.019,-0.166,0.117,-0.021,-87.145,168.606,-160.250
1747663024.54,0.024,0.012,-0.032,-0.068,0.034,-0.021,-87.080,169.155,-159.743
1747663024.55,0.076,0.006,-0.039,0.025,-0.029,0.009,-87.068,169.248,-159.724
1747663024.56,0.098,-0.015,-0.047,0.099,-0.080,0.041,-87.102,168.803,-160.138
1747663024.57,0.075,-0.034,-0.040,0.136,-0.112,0.047,-87.164,168.006,-160.964
1747663024.58,0.014,-0.038,-0.021,0.139,-0.142,0.046,-87.236,167.119,-161.778
1747663024.59,-0.051,-0.017,-0.017,0.122,-0.122,0.027,-87.305,166.302,-162.600
1747663024.60,-0.086,0.021,-0.015,0.080,0.002,0.022,-87.357,165.728,-163.136
1747663024.61,-0.071,0.055,0.006,0.043,0.154,0.024,-87.387,165.305,-163.690
1747663024.62,-0.037,0.070,0.030,0.002,0.244,0.007,-87.398,165.139,-163.973
1747663024.63,0.000,0.048,0.052,0.005,0.224,-0.012,-87.399,165.252,-164.076
1747663024.64,0.049,-0.003,0.042,0.013,0.103,-0.017,-87.407,165.424,-163.999
1747663024.65,0.088,-0.051,0.048,0.016,-0.062,0.005,-87.416,165.420,-164.096
1747663024.66,0.114,-0.071,0.039,0.043,-0.226,0.022,-87.430,165.031,-164.402
1747663024.67,0.100,-0.056,0.012,0.089,-0.336,0.018,-87.465,164.420,-164.928
1747663024.68,0.072,-0.021,0.002,0.124,-0.372,0.020,-87.522,163.665,-165.477
1747663024.69,0.046,0.007,0.010,0.156,-0.351,0.024,-87.596,162.705,-166.317
1747663024.70,0.007,0.029,0.018,0.186,-0.327,0.025,-87.686,161.486,-167.340
1747663024.71,-0.038,0.043,0.041,0.158,-0.249,0.024,-87.774,160.163,-168.590
1747663024.72,-0.076,0.034,0.089,0.128,-0.199,0.021,-87.841,158.953,-169.677
1747663024.73,-0.100,0.010,0.066,0.127,-0.233,0.011,-87.902,157.807,-170.789
1747663024.74,-0.100,-0.025,0.024,0.106,-0.235,0.006,-87.960,156.765,-171.695
1747663024.75,-0.055,-0.061,0.035,0.067,-0.199,0.012,-88.000,155.880,-172.537
1747663024.76,0.000,-0.068,0.031,0.078,-0.225,0.018,-88.031,154.987,-173.311
1747663024.77,0.033,-0.037,-0.017,0.152,-0.290,0.021,-88.083,153.703,-174.541
1747663024.78,0.061,0.017,-0.060,0.200,-0.298,0.035,-88.166,151.689,-176.385
1747663024.79,0.076,0.059,-0.051,0.232,-0.276,0.044,-88.262,148.911,-179.074
1747663024.80,0.050,0.078,-0.034,0.278,-0.295,0.057,-88.368,145.248,177.424
1747663024.81,0.009,0.074,-0.036,0.336,-0.295,0.060,-88.487,140.212,172.489
1747663024.82,-0.024,0.053,-0.043,0.399,-0.252,0.054,-88.618,133.447,165.880
1747663024.83,-0.041,0.019,-0.019,0.478,-0.158,0.064,-88.750,123.923,156.406
1747663024.84,-0.034,-0.004,0.024,0.477,-0.055,0.117,-88.833,111.075,143.617
1747663024.85,-0.045,-0.028,0.106,0.412,-0.000,0.149,-88.821,98.088,130.571
1747663024.86,-0.095,-0.053,0.130,0.392,-0.004,0.147,-88.746,87.149,119.573
1747663024.87,-0.120,-0.079,0.116,0.376,0.043,0.152,-88.634,78.044,110.456
1747663024.88,-0.101,-0.094,0.123,0.308,0.109,0.171,-88.494,71.529,103.852
1747663024.89,-0.065,-0.068,0.134,0.286,0.088,0.185,-88.340,67.319,99.580
1747663024.90,-0.038,-0.000,0.078,0.347,-0.003,0.181,-88.170,63.468,95.673
1747663024.91,-0.008,0.065,0.020,0.444,-0.058,0.172,-87.973,59.005,91.228
1747663024.92,0.026,0.099,0.023,0.538,-0.088,0.142,-87.741,54.000,86.235
1747663024.93,0.036,0.111,0.039,0.574,-0.132,0.106,-87.487,48.999,81.293
1747663024.94,0.035,0.101,0.058,0.571,-0.113,0.085,-87.223,44.542,76.867
1747663024.95,0.020,0.071,0.108,0.507,-0.080,0.085,-86.965,41.055,73.430
1747663024.96,-0.038,0.013,0.183,0.570,-0.084,0.090,-86.700,38.203,70.574
1747663024.97,-0.119,-0.054,0.196,0.586,-0.047,0.110,-86.397,35.556,67.962
1747663024.98,-0.178,-0.076,0.159,0.560,0.053,0.154,-86.087,33.681,66.039
1747663024.99,-0.198,-0.069,0.097,0.451,0.092,0.205,-85.784,32.677,64.990
1747663025.00,-0.210,-0.050,0.068,0.304,0.147,0.235,-85.538,32.638,64.854
1747663025.01,-0.182,0.007,0.046,0.297,0.274,0.234,-85.323,33.022,65.119
1747663025.02,-0.101,0.057,0.037,0.349,0.333,0.208,-85.100,33.276,65.166
1747663025.03,-0.017,0.080,0.016,0.450,0.278,0.167,-84.852,33.085,64.796
1747663025.04,0.040,0.082,-0.026,0.518,0.197,0.116,-84.572,32.313,63.854
1747663025.05,0.089,0.063,-0.028,0.525,0.186,0.067,-84.292,31.260,62.688
1747663025.06,0.121,0.010,-0.027,0.578,0.143,0.038,-84.007,30.041,61.344
1747663025.07,0.138,-0.050,-0.067,0.624,0.071,0.060,-83.695,28.740,59.971
1747663025.08,0.169,-0.081,-0.098,0.669,-0.118,0.124,-83.345,27.603,58.812
1747663025.09,0.180,-0.073,-0.151,0.683,-0.263,0.188,-82.957,26.676,57.995
1747663025.10,0.176,-0.058,-0.120,0.631,-0.244,0.220,-82.568,26.046,57.477
1747663025.11,0.159,-0.047,-0.055,0.606,-0.276,0.207,-82.198,25.588,57.160
1747663025.12,0.095,-0.045,-0.083,0.645,-0.324,0.197,-81.826,25.066,56.782
1747663025.13,0.045,-0.052,-0.109,0.660,-0.286,0.216,-81.438,24.548,56.439
1747663025.14,0.036,-0.058,-0.076,0.705,-0.225,0.226,-81.034,24.119,56.131
1747663025.15,0.015,-0.046,-0.065,0.787,-0.202,0.213,-80.594,23.639,55.767
1747663025.16,-0.004,-0.017,-0.078,0.820,-0.163,0.214,-80.122,23.106,55.320
1747663025.17,-0.009,0.003,-0.055,0.785,-0.115,0.213,-79.650,22.652,54.941
1747663025.18,-0.045,-0.007,-0.009,0.743,-0.075,0.215,-79.202,22.311,54.641
1747663025.19,-0.095,-0.034,-0.011,0.782,-0.016,0.234,-78.753,22.050,54.405
1747663025.20,-0.119,-0.061,-0.051,0.840,0.093,0.295,-78.265,21.900,54.224
1747663025.21,-0.116,-0.068,-0.031,0.824,0.227,0.352,-77.753,21.962,54.194
1747663025.22,-0.112,-0.041,0.015,0.773,0.348,0.371,-77.251,22.227,54.297
1747663025.23,-0.110,0.005,0.032,0.778,0.461,0.339,-76.767,22.551,54.391
1747663025.24,-0.081,0.041,0.039,0.801,0.485,0.304,-76.278,22.803,54.378
1747663025.25,-0.035,0.051,0.030,0.748,0.443,0.299,-75.803,23.005,54.315
1747663025.26,0.006,0.027,0.042,0.743,0.415,0.299,-75.348,23.221,54.288
1747663025.27,0.038,-0.010,0.017,0.808,0.264,0.299,-74.874,23.350,54.216
1747663025.28,0.068,-0.031,-0.064,0.822,0.110,0.316,-74.372,23.359,54.126
1747663025.29,0.113,-0.033,-0.054,0.712,0.069,0.317,-73.897,23.378,54.096
1747663025.30,0.131,-0.026,0.032,0.626,0.101,0.271,-73.481,23.443,54.115
1747663025.31,0.085,0.001,0.036,0.599,0.089,0.188,-73.109,23.433,54.045
1747663025.32,-0.004,0.032,-0.010,0.576,0.026,0.161,-72.762,23.322,53.908
1747663025.33,-0.061,0.041,-0.026,0.541,-0.035,0.212,-72.429,23.224,53.809
1747663025.34,-0.070,0.041,0.006,0.589,-0.079,0.248,-72.084,23.181,53.814
1747663025.35,-0.060,0.053,0.023,0.663,-0.138,0.213,-71.700,23.067,53.759
1747663025.36,-0.040,0.068,0.011,0.709,-0.142,0.121,-71.302,22.795,53.556
1747663025.37,-0.020,0.061,0.014,0.788,-0.087,0.023,-70.893,22.361,53.169
1747663025.38,-0.034,0.036,-0.007,0.859,-0.059,-0.043,-70.458,21.799,52.624
1747663025.39,-0.089,0.008,-0.078,0.883,-0.047,-0.059,-70.005,21.177,51.999
1747663025.40,-0.135,-0.028,-0.095,0.852,0.085,-0.018,-69.548,20.639,51.424
1747663025.41,-0.146,-0.060,-0.032,0.778,0.298,0.047,-69.110,20.334,50.981
1747663025.42,-0.130,-0.077,0.002,0.704,0.497,0.121,-68.696,20.297,50.696
1747663025.43,-0.086,-0.073,0.015,0.624,0.631,0.179,-68.309,20.493,50.557
1747663025.44,-0.028,-0.049,0.043,0.611,0.604,0.219,-67.942,20.809,50.542
1747663025.45,0.039,-0.020,0.020,0.665,0.477,0.258,-67.554,21.113,50.534
1747663025.46,0.119,-0.004,-0.008,0.743,0.319,0.273,-67.125,21.334,50.540
1747663025.47,0.179,0.000,-0.046,0.875,0.136,0.234,-66.643,21.391,50.459
1747663025.48,0.210,-0.006,-0.090,1.022,-0.053,0.160,-66.096,21.205,50.248
1747663025.49,0.187,-0.019,-0.089,1.093,-0.184,0.053,-65.505,20.777,49.857
1747663025.50,0.092,-0.038,-0.036,1.002,-0.198,-0.010,-64.936,20.226,49.384
1747663025.51,0.017,-0.057,-0.029,0.860,-0.074,-0.010,-64.439,19.744,48.945
1747663025.52,-0.047,-0.051,-0.044,0.731,0.177,-0.006,-64.011,19.447,48.601
1747663025.53,-0.103,-0.042,0.089,0.677,0.326,0.046,-63.634,19.346,48.322
1747663025.54,-0.087,-0.028,0.119,0.710,0.257,0.170,-63.241,19.369,48.191
1747663025.55,0.011,0.005,0.060,0.722,0.092,0.318,-62.809,19.462,48.182
1747663025.56,0.161,0.034,0.058,0.844,-0.047,0.394,-62.324,19.567,48.310
1747663025.57,0.278,0.060,0.046,1.057,-0.172,0.327,-61.741,19.536,48.344
1747663025.58,0.293,0.072,0.013,1.184,-0.346,0.220,-61.082,19.266,48.231
1747663025.59,0.204,0.048,-0.025,1.192,-0.502,0.118,-60.405,18.786,47.961
1747663025.60,0.058,0.007,-0.080,1.074,-0.462,0.047,-59.773,18.215,47.654
1747663025.61,-0.060,-0.056,-0.106,0.878,-0.218,0.056,-59.234,17.768,47.363
1747663025.62,-0.143,-0.132,-0.048,0.723,-0.011,0.122,-58.788,17.558,47.222
1747663025.63,-0.203,-0.184,0.001,0.708,0.096,0.225,-58.373,17.537,47.169
1747663025.64,-0.169,-0.176,0.020,0.739,0.167,0.309,-57.932,17.649,47.252
1747663025.65,-0.067,-0.105,0.058,0.803,0.131,0.356,-57.458,17.816,47.343
1747663025.66,0.023,-0.001,0.010,0.961,0.007,0.363,-56.917,17.925,47.467
1747663025.67,0.078,0.086,-0.043,1.132,-0.136,0.311,-56.288,17.890,47.469
1747663025.68,0.068,0.137,-0.035,1.184,-0.222,0.219,-55.605,17.698,47.410
1747663025.69,-0.007,0.133,0.025,1.110,-0.222,0.124,-54.948,17.413,47.223
1747663025.70,-0.101,0.063,0.043,1.019,-0.112,0.087,-54.351,17.139,47.049
1747663025.71,-0.150,-0.047,-0.015,0.878,-0.006,0.137,-53.812,16.966,46.875
1747663025.72,-0.116,-0.156,-0.027,0.703,0.066,0.243,-53.350,16.948,46.877
1747663025.73,-0.030,-0.206,0.004,0.631,0.035,0.344,-52.940,17.051,46.965
1747663025.74,0.069,-0.172,0.062,0.662,-0.036,0.417,-52.525,17.183,47.184
1747663025.75,0.163,-0.051,0.087,0.779,-0.137,0.426,-52.062,17.280,47.366
1747663025.76,0.192,0.098,0.057,0.951,-0.272,0.354,-51.525,17.251,47.519
1747663025.77,0.141,0.209,0.038,1.168,-0.316,0.243,-50.895,17.061,47.496
1747663025.78,0.048,0.253,0.025,1.272,-0.288,0.112,-50.191,16.758,47.371
1747663025.79,-0.073,0.218,0.010,1.147,-0.222,0.031,-49.512,16.415,47.175
1747663025.80,-0.155,0.099,0.028,0.960,-0.088,0.071,-48.928,16.161,46.954
1747663025.81,-0.174,-0.057,0.005,0.822,-0.073,0.176,-48.423,16.032,46.905
1747663025.82,-0.108,-0.170,-0.035,0.707,-0.020,0.291,-47.966,16.010,46.918
1747663025.83,0.040,-0.210,0.062,0.668,0.114,0.359,-47.542,16.120,47.088
1747663025.84,0.143,-0.145,0.118,0.762,0.033,0.323,-47.097,16.257,47.202
1747663025.85,0.143,0.018,0.047,0.846,-0.202,0.293,-46.606,16.251,47.318
1747663025.86,0.116,0.166,-0.013,0.931,-0.367,0.299,-46.072,16.105,47.348
1747663025.87,0.071,0.252,-0.015,1.068,-0.395,0.243,-45.479,15.877,47.419
1747663025.87,-0.024,0.276,0.026,1.155,-0.351,0.099,-44.839,15.584,47.310
1747663025.89,-0.128,0.229,0.054,1.187,-0.276,-0.041,-44.189,15.243,47.149
1747663025.90,-0.195,0.123,-0.021,1.145,-0.200,-0.073,-43.552,14.904,46.859
1747663025.91,-0.200,-0.010,-0.116,0.963,-0.131,-0.025,-42.973,14.637,46.682
1747663025.92,-0.153,-0.126,-0.104,0.787,-0.062,0.065,-42.490,14.477,46.526
1747663025.92,-0.068,-0.204,-0.011,0.739,-0.003,0.172,-42.056,14.420,46.539
1747663025.94,0.027,-0.208,0.088,0.802,0.040,0.266,-41.599,14.446,46.562
1747663025.95,0.090,-0.105,0.079,0.880,0.017,0.232,-41.097,14.484,46.657
1747663025.95,0.083,0.041,0.013,0.967,-0.072,0.164,-40.557,14.450,46.626
1747663025.97,0.052,0.116,-0.015,1.031,-0.161,0.123,-39.983,14.327,46.618
1747663025.97,0.036,0.111,0.005,1.034,-0.160,0.092,-39.395,14.163,46.507
1747663025.98,0.019,0.056,-0.007,0.989,-0.174,0.044,-38.822,13.986,46.447
1747663025.99,-0.021,-0.023,-0.078,0.896,-0.180,0.017,-38.293,13.794,46.302
1747663026.01,-0.053,-0.096,-0.035,0.797,-0.155,0.051,-37.821,13.619,46.243
1747663026.01,-0.042,-0.139,0.061,0.756,-0.047,0.180,-37.378,13.529,46.189
1747663026.02,0.034,-0.130,0.105,0.753,0.011,0.349,-36.924,13.560,46.327
1747663026.03,0.077,-0.045,0.071,0.796,0.006,0.369,-36.445,13.638,46.451
1747663026.04,0.087,0.092,-0.017,0.837,-0.007,0.346,-35.945,13.705,46.618
1747663026.05,0.081,0.182,-0.065,0.887,-0.155,0.325,-35.421,13.712,46.703
1747663026.06,0.064,0.209,-0.046,0.932,-0.287,0.304,-34.874,13.620,46.841
1747663026.07,0.059,0.191,0.052,0.994,-0.314,0.231,-34.303,13.461,46.867
1747663026.08,0.047,0.134,0.099,1.033,-0.346,0.133,-33.715,13.252,46.887
1747663026.09,0.014,0.028,0.051,1.016,-0.436,0.079,-33.128,12.979,46.794
1747663026.10,-0.011,-0.093,-0.009,0.901,-0.464,0.141,-32.579,12.676,46.776
1747663026.11,0.012,-0.193,0.005,0.809,-0.409,0.301,-32.079,12.436,46.795
1747663026.12,0.059,-0.224,0.009,0.782,-0.307,0.428,-31.592,12.298,46.993
1747663026.13,0.079,-0.144,-0.004,0.809,-0.208,0.443,-31.096,12.245,47.169
1747663026.14,0.061,0.002,-0.035,0.834,-0.213,0.403,-30.585,12.210,47.412
1747663026.15,0.004,0.118,-0.022,0.875,-0.251,0.355,-30.064,12.141,47.539
1747663026.16,-0.047,0.166,0.030,0.958,-0.293,0.292,-29.516,12.027,47.681
1747663026.17,-0.063,0.153,0.064,1.054,-0.356,0.226,-28.920,11.857,47.711
1747663026.18,-0.047,0.089,0.086,1.091,-0.407,0.170,-28.296,11.627,47.756
1747663026.19,-0.004,-0.010,0.049,1.121,-0.374,0.137,-27.661,11.381,47.711
1747663026.20,0.009,-0.097,-0.050,1.117,-0.432,0.089,-27.016,11.121,47.704
1747663026.21,-0.074,-0.146,-0.081,1.028,-0.391,0.090,-26.407,10.845,47.628
1747663026.22,-0.114,-0.173,-0.015,0.993,-0.258,0.122,-25.832,10.636,47.638
1747663026.23,-0.137,-0.142,0.019,1.019,-0.149,0.142,-25.255,10.506,47.605
1747663026.24,-0.169,-0.049,0.022,1.060,-0.049,0.133,-24.656,10.438,47.651
1747663026.25,-0.177,0.047,0.050,1.107,-0.027,0.106,-24.035,10.398,47.603
1747663026.26,-0.154,0.107,0.070,1.182,-0.039,0.062,-23.384,10.349,47.607
1747663026.27,-0.109,0.138,0.105,1.254,-0.044,0.011,-22.695,10.280,47.493
1747663026.28,-0.064,0.142,0.100,1.288,-0.083,-0.032,-21.980,10.190,47.421
1747663026.29,-0.028,0.123,0.028,1.259,-0.145,-0.050,-21.267,10.064,47.257
1747663026.30,0.008,0.083,-0.030,1.213,-0.165,-0.044,-20.578,9.915,47.171
1747663026.31,0.057,0.035,-0.030,1.211,-0.123,0.003,-19.899,9.783,47.033
1747663026.32,0.100,-0.016,-0.005,1.208,-0.080,0.065,-19.215,9.692,47.012
1747663026.33,0.094,-0.045,0.013,1.224,-0.069,0.088,-18.523,9.626,46.936
1747663026.34,0.043,-0.048,0.038,1.244,-0.085,0.086,-17.821,9.560,46.941
1747663026.35,0.003,-0.027,0.066,1.295,-0.096,0.093,-17.100,9.484,46.868
1747663026.36,0.005,0.004,0.090,1.375,-0.091,0.092,-16.338,9.409,46.855
1747663026.37,0.010,0.007,0.065,1.410,-0.102,0.081,-15.544,9.330,46.771
1747663026.38,0.008,-0.036,0.010,1.429,-0.098,0.056,-14.737,9.246,46.721
1747663026.39,0.000,-0.100,-0.002,1.437,-0.083,0.033,-13.924,9.166,46.612
1747663026.40,0.004,-0.166,-0.040,1.442,-0.020,0.009,-13.110,9.108,46.541
1747663026.41,0.018,-0.191,-0.054,1.384,-0.000,0.003,-12.311,9.076,46.411
1747663026.42,0.035,-0.150,-0.045,1.305,-0.017,0.076,-11.549,9.052,46.345
1747663026.43,0.093,-0.046,-0.015,1.237,-0.096,0.155,-10.823,9.012,46.296
1747663026.44,0.130,0.074,0.018,1.269,-0.155,0.190,-10.105,8.936,46.328
1747663026.45,0.121,0.148,0.088,1.334,-0.169,0.205,-9.353,8.841,46.325
1747663026.46,0.064,0.166,0.107,1.373,-0.150,0.218,-8.569,8.748,46.368
1747663026.47,-0.007,0.137,0.039,1.367,-0.084,0.241,-7.774,8.680,46.378
1747663026.48,-0.066,0.089,-0.005,1.342,0.035,0.268,-6.987,8.667,46.422
1747663026.49,-0.094,0.050,-0.038,1.300,0.117,0.285,-6.217,8.717,46.464
1747663026.50,-0.096,0.023,-0.052,1.272,0.184,0.314,-5.469,8.809,46.533
1747663026.51,-0.052,0.012,-0.030,1.281,0.185,0.313,-4.719,8.924,46.600
1747663026.52,0.030,0.008,-0.055,1.258,0.095,0.250,-3.979,9.009,46.650
1747663026.53,0.112,0.001,-0.063,1.227,-0.013,0.182,-3.258,9.032,46.660
1747663026.54,0.135,-0.017,-0.050,1.221,-0.084,0.134,-2.556,9.000,46.652
1747663026.55,0.058,-0.023,-0.036,1.296,-0.094,0.131,-1.835,8.947,46.611
1747663026.56,-0.070,-0.014,-0.038,1.281,-0.063,0.155,-1.090,8.900,46.593
1747663026.57,-0.149,0.041,-0.040,1.211,-0.007,0.182,-0.373,8.880,46.578
1747663026.58,-0.183,0.102,-0.014,1.203,0.074,0.217,0.322,8.898,46.585
1747663026.59,-0.180,0.136,0.048,1.227,0.156,0.240,1.029,8.964,46.606
1747663026.60,-0.109,0.131,0.038,1.240,0.174,0.243,1.744,9.062,46.636
1747663026.61,0.002,0.042,-0.014,1.262,0.147,0.220,2.470,9.152,46.654
1747663026.62,0.091,-0.089,-0.016,1.286,0.101,0.164,3.207,9.226,46.639
1747663026.63,0.115,-0.182,-0.046,1.274,-0.011,0.096,3.942,9.258,46.595
1747663026.64,0.091,-0.197,-0.072,1.255,-0.103,0.048,4.662,9.224,46.515
1747663026.65,0.064,-0.112,-0.024,1.200,-0.051,0.022,5.357,9.181,46.422
1747663026.66,0.033,0.060,0.001,1.181,0.044,0.002,6.027,9.194,46.309
1747663026.67,-0.045,0.166,-0.046,1.160,0.044,0.053,6.691,9.231,46.213
1747663026.68,-0.095,0.182,-0.074,1.097,0.062,0.150,7.335,9.265,46.146
1747663026.69,-0.051,0.133,-0.094,1.080,0.081,0.193,7.964,9.308,46.146
1747663026.70,0.032,0.063,-0.100,1.048,0.047,0.188,8.582,9.344,46.123
1747663026.71,0.110,-0.012,-0.072,1.019,-0.038,0.171,9.180,9.348,46.110
1747663026.72,0.158,-0.075,-0.071,1.012,-0.179,0.153,9.767,9.287,46.106
1747663026.73,0.154,-0.114,-0.073,0.993,-0.299,0.162,10.348,9.149,46.073
1747663026.74,0.110,-0.087,-0.069,0.940,-0.371,0.177,10.909,8.955,46.081
1747663026.75,0.044,-0.037,-0.059,0.941,-0.343,0.204,11.455,8.741,46.075
1747663026.76,-0.027,0.016,-0.030,0.947,-0.224,0.219,12.007,8.570,46.115
1747663026.77,-0.089,0.067,-0.005,0.943,-0.122,0.186,12.558,8.465,46.108
1747663026.78,-0.142,0.092,-0.020,0.940,-0.068,0.097,13.104,8.413,46.109
1747663026.79,-0.149,0.053,-0.060,0.899,-0.056,0.031,13.630,8.388,46.021
1747663026.80,-0.119,-0.061,-0.073,0.843,-0.058,0.010,14.125,8.369,45.957
1747663026.81,-0.048,-0.155,-0.057,0.798,-0.068,0.001,14.588,8.351,45.842
1747663026.82,0.026,-0.188,-0.078,0.773,-0.126,-0.051,15.029,8.319,45.761
1747663026.83,0.057,-0.161,-0.102,0.733,-0.149,-0.104,15.448,8.265,45.606
1747663026.84,0.100,-0.110,-0.083,0.756,-0.099,-0.110,15.856,8.226,45.479
1747663026.85,0.123,-0.061,-0.081,0.727,-0.080,-0.084,16.272,8.212,45.300
1747663026.86,0.094,-0.049,-0.090,0.648,-0.091,0.013,16.657,8.186,45.219
1747663026.87,0.052,0.015,-0.103,0.592,-0.076,0.104,17.012,8.140,45.161
1747663026.88,0.008,0.065,-0.097,0.561,-0.038,0.168,17.348,8.096,45.195
1747663026.89,-0.036,0.075,-0.094,0.537,0.038,0.161,17.671,8.078,45.196
1747663026.90,-0.045,0.068,-0.068,0.505,0.104,0.128,17.978,8.109,45.236
1747663026.91,-0.005,0.021,-0.047,0.472,0.078,0.153,18.264,8.150,45.236
1747663026.92,0.048,0.022,-0.054,0.461,-0.027,0.142,18.539,8.153,45.280
1747663026.93,0.075,0.048,-0.077,0.461,-0.166,0.162,18.812,8.081,45.265
1747663026.94,0.060,0.068,-0.075,0.450,-0.255,0.174,19.083,7.938,45.327
1747663026.95,0.017,0.058,-0.061,0.463,-0.255,0.152,19.354,7.769,45.310
1747663026.96,-0.006,0.046,-0.049,0.452,-0.222,0.081,19.623,7.624,45.341
1747663026.97,-0.006,0.041,-0.059,0.417,-0.232,0.086,19.873,7.493,45.281
1747663026.98,-0.033,-0.000,-0.082,0.412,-0.240,0.082,20.114,7.347,45.308
1747663026.99,-0.060,0.002,-0.078,0.404,-0.195,0.026,20.348,7.223,45.239
1747663027.00,-0.087,0.018,-0.059,0.399,-0.132,-0.030,20.576,7.139,45.209
1747663027.01,-0.116,0.008,-0.034,0.386,-0.039,-0.112,20.793,7.114,45.047
1747663027.02,-0.104,-0.011,0.000,0.397,0.055,-0.181,21.003,7.163,44.927
1747663027.03,-0.064,-0.014,0.004,0.359,0.100,-0.229,21.205,7.267,44.684
1747663027.04,-0.003,-0.029,-0.026,0.316,0.021,-0.232,21.379,7.368,44.515
1747663027.05,0.047,-0.060,-0.089,0.317,-0.118,-0.202,21.541,7.395,44.291
1747663027.06,0.076,-0.035,-0.087,0.302,-0.162,-0.202,21.703,7.366,44.145
1747663027.07,0.066,-0.008,-0.065,0.284,-0.157,-0.204,21.853,7.327,43.931
1747663027.08,0.025,-0.012,-0.052,0.277,-0.097,-0.195,21.998,7.308,43.786
1747663027.09,0.004,-0.012,-0.007,0.239,-0.011,-0.181,22.130,7.328,43.576
1747663027.10,0.010,-0.023,0.008,0.216,0.015,-0.150,22.246,7.378,43.455
1747663027.11,0.026,-0.026,-0.005,0.201,-0.004,-0.107,22.354,7.417,43.280
1747663027.12,0.064,-0.009,-0.008,0.186,-0.018,-0.060,22.457,7.437,43.214
1747663027.13,0.085,-0.001,-0.031,0.181,-0.045,-0.028,22.558,7.435,43.080
1747663027.14,0.063,-0.008,-0.042,0.147,-0.045,0.006,22.652,7.415,43.061
1747663027.15,0.041,-0.036,-0.027,0.110,-0.009,0.047,22.725,7.398,42.976
1747663027.16,0.038,-0.046,-0.029,0.104,0.022,0.070,22.789,7.391,43.005
1747663027.17,0.047,-0.026,-0.023,0.094,0.015,0.080,22.851,7.388,42.955
1747663027.18,0.035,-0.026,-0.032,0.123,-0.000,0.101,22.919,7.374,43.003
1747663027.19,0.014,-0.025,-0.040,0.101,-0.028,0.098,22.992,7.347,42.962
1747663027.20,0.009,-0.007,-0.036,0.086,-0.051,0.113,23.050,7.307,43.017
1747663027.21,-0.020,-0.021,-0.021,0.086,-0.006,0.043,23.103,7.274,42.966
1747663027.22,-0.028,0.008,0.014,0.087,0.039,0.012,23.151,7.289,42.970
1747663027.23,-0.032,0.022,-0.004,0.063,0.057,0.004,23.196,7.322,42.883
1747663027.24,-0.016,0.006,-0.034,0.049,0.049,-0.001,23.231,7.360,42.878
1747663027.25,0.020,-0.001,-0.049,0.037,0.028,0.005,23.256,7.391,42.781
1747663027.26,0.037,0.017,-0.069,0.017,-0.027,0.003,23.272,7.394,42.781
1747663027.27,0.013,0.015,-0.068,0.027,-0.035,0.004,23.282,7.374,42.685
1747663027.28,-0.015,0.023,-0.018,0.053,-0.002,-0.016,23.305,7.366,42.677
1747663027.29,-0.016,0.024,-0.018,0.008,0.014,-0.040,23.323,7.375,42.577
1747663027.30,0.005,-0.027,-0.042,-0.016,0.028,-0.060,23.315,7.394,42.548
1747663027.31,0.021,-0.028,-0.051,-0.004,0.083,-0.070,23.303,7.438,42.445
1747663027.32,0.036,0.006,-0.064,-0.056,0.079,-0.073,23.280,7.502,42.404
1747663027.33,0.014,-0.015,-0.097,-0.117,0.069,-0.068,23.223,7.558,42.291
1747663027.34,0.011,-0.029,-0.101,-0.165,0.115,-0.074,23.134,7.624,42.258
1747663027.35,0.054,-0.023,-0.080,-0.203,0.159,-0.085,23.022,7.716,42.149
1747663027.36,0.056,-0.058,-0.087,-0.293,0.204,-0.096,22.875,7.829,42.114
1747663027.37,0.037,-0.114,-0.087,-0.379,0.260,-0.141,22.668,7.979,41.992
1747663027.38,0.035,-0.144,-0.060,-0.444,0.390,-0.146,22.428,8.184,41.936
1747663027.39,0.062,-0.117,-0.050,-0.568,0.442,-0.116,22.126,8.447,41.848
1747663027.40,0.038,-0.105,-0.143,-0.623,0.405,-0.112,21.781,8.695,41.829
1747663027.41,0.031,-0.102,-0.164,-0.723,0.414,-0.078,21.394,8.925,41.799
1747663027.42,0.015,-0.077,-0.153,-0.789,0.442,-0.070,20.960,9.160,41.828
1747663027.43,-0.039,-0.086,-0.168,-0.843,0.377,-0.082,20.493,9.384,41.847
1747663027.44,-0.058,-0.114,-0.145,-0.914,0.363,-0.094,19.990,9.583,41.882
1747663027.45,-0.037,-0.116,-0.092,-0.956,0.274,-0.082,19.453,9.756,41.916
1747663027.46,-0.026,-0.102,-0.094,-0.993,0.170,-0.051,18.901,9.859,41.977
1747663027.47,0.010,-0.100,-0.109,-1.077,0.168,-0.031,18.316,9.928,42.049
1747663027.48,0.079,-0.116,-0.119,-1.152,0.116,-0.005,17.684,9.980,42.153
1747663027.49,0.118,-0.108,-0.139,-1.186,0.052,0.019,17.027,9.988,42.287
1747663027.50,0.145,-0.053,-0.134,-1.255,0.023,0.002,16.341,9.971,42.422
1747663027.51,0.132,-0.013,-0.119,-1.268,0.009,-0.038,15.629,9.946,42.554
1747663027.52,0.057,0.002,-0.065,-1.322,0.050,-0.042,14.899,9.932,42.661
1747663027.53,-0.008,-0.015,-0.051,-1.372,0.119,-0.017,14.136,9.950,42.790
1747663027.54,-0.031,-0.058,-0.071,-1.387,0.183,0.021,13.358,10.003,42.931
1747663027.55,-0.001,-0.071,-0.042,-1.406,0.244,0.063,12.578,10.088,43.124
1747663027.56,0.070,-0.046,-0.063,-1.418,0.191,0.067,11.790,10.178,43.309
1747663027.57,0.116,-0.001,-0.091,-1.416,0.081,0.046,10.999,10.221,43.521
1747663027.58,0.124,0.027,-0.076,-1.425,0.010,0.025,10.204,10.213,43.688
1747663027.59,0.073,0.031,-0.036,-1.441,0.005,-0.005,9.400,10.189,43.881
1747663027.60,-0.008,0.024,-0.009,-1.474,0.002,-0.016,8.578,10.170,44.023
1747663027.61,-0.055,0.003,-0.015,-1.493,0.033,0.014,7.744,10.156,44.222
1747663027.62,-0.026,-0.026,-0.027,-1.516,0.103,0.055,6.903,10.172,44.441
1747663027.63,0.039,-0.042,-0.061,-1.512,0.133,0.074,6.057,10.220,44.634
1747663027.64,0.061,-0.034,-0.077,-1.520,0.117,0.057,5.212,10.273,44.886
1747663027.65,0.045,-0.016,-0.075,-1.542,0.077,0.028,4.357,10.314,45.067
1747663027.66,-0.005,0.009,-0.051,-1.545,0.072,-0.012,3.489,10.344,45.299
1747663027.67,-0.077,0.026,0.012,-1.519,0.100,-0.066,2.623,10.385,45.435
1747663027.68,-0.134,0.017,0.039,-1.517,0.135,-0.117,1.763,10.449,45.617
1747663027.69,-0.133,-0.017,-0.002,-1.549,0.161,-0.136,0.889,10.534,45.704
1747663027.70,-0.081,-0.061,-0.046,-1.565,0.152,-0.124,0.000,10.623,45.881
1747663027.71,-0.022,-0.090,-0.060,-1.599,0.130,-0.111,-0.899,10.706,45.982
1747663027.72,0.007,-0.095,-0.067,-1.625,0.111,-0.132,-1.816,10.776,46.183
1747663027.73,-0.001,-0.083,-0.070,-1.642,0.084,-0.168,-2.749,10.837,46.274
1747663027.74,-0.037,-0.054,-0.075,-1.632,0.073,-0.206,-3.690,10.884,46.455
1747663027.75,-0.095,-0.013,-0.024,-1.610,0.089,-0.257,-4.624,10.934,46.500
1747663027.76,-0.133,0.020,0.042,-1.627,0.111,-0.271,-5.560,10.992,46.624
1747663027.77,-0.105,0.019,0.065,-1.655,0.159,-0.242,-6.508,11.071,46.659
1747663027.78,-0.035,0.003,0.054,-1.647,0.211,-0.211,-7.461,11.185,46.818
1747663027.79,0.028,-0.017,0.012,-1.602,0.192,-0.204,-8.393,11.311,46.885
1747663027.80,0.041,-0.020,-0.005,-1.586,0.178,-0.225,-9.311,11.425,47.056
1747663027.81,0.003,-0.012,0.007,-1.533,0.154,-0.287,-10.212,11.525,47.091
1747663027.82,-0.060,-0.001,0.004,-1.520,0.167,-0.329,-11.101,11.615,47.202
1747663027.83,-0.098,-0.001,0.012,-1.559,0.228,-0.345,-11.999,11.726,47.189
1747663027.84,-0.091,-0.015,-0.021,-1.624,0.233,-0.316,-12.929,11.861,47.308
1747663027.85,-0.055,-0.035,-0.006,-1.632,0.238,-0.246,-13.874,12.000,47.344
1747663027.86,0.009,-0.050,0.021,-1.595,0.284,-0.185,-14.801,12.169,47.536
1747663027.87,0.042,-0.046,0.034,-1.558,0.239,-0.195,-15.702,12.346,47.626
1747663027.88,0.018,-0.037,0.045,-1.522,0.183,-0.253,-16.590,12.481,47.819
1747663027.89,0.004,-0.046,0.037,-1.470,0.219,-0.311,-17.458,12.602,47.848
1747663027.90,0.001,-0.068,-0.011,-1.471,0.225,-0.317,-18.315,12.733,47.965
1747663027.91,-0.010,-0.100,-0.042,-1.515,0.205,-0.277,-19.182,12.862,47.988
1747663027.92,0.003,-0.122,-0.028,-1.567,0.224,-0.222,-20.073,13.005,48.170
1747663027.93,0.032,-0.122,0.032,-1.556,0.212,-0.174,-20.969,13.167,48.269
1747663027.94,0.041,-0.103,0.058,-1.529,0.195,-0.140,-21.849,13.326,48.508
1747663027.95,0.029,-0.071,0.046,-1.483,0.228,-0.154,-22.704,13.495,48.637
1747663027.96,-0.007,-0.038,0.024,-1.462,0.278,-0.231,-23.546,13.678,48.857
1747663027.97,-0.049,-0.021,0.004,-1.434,0.325,-0.314,-24.387,13.872,48.908
1747663027.98,-0.088,-0.029,-0.041,-1.469,0.345,-0.380,-25.238,14.067,49.030
1747663027.99,-0.108,-0.052,-0.024,-1.483,0.376,-0.399,-26.111,14.268,49.017
1747663028.00,-0.067,-0.078,0.030,-1.515,0.372,-0.346,-26.993,14.483,49.142
1747663028.01,0.016,-0.089,0.056,-1.521,0.358,-0.235,-27.875,14.722,49.207
1747663028.02,0.122,-0.074,0.035,-1.490,0.297,-0.140,-28.734,14.975,49.452
1747663028.03,0.176,-0.040,0.003,-1.473,0.161,-0.121,-29.568,15.193,49.625
1747663028.04,0.156,-0.012,-0.003,-1.461,0.017,-0.162,-30.399,15.325,49.913
1747663028.05,0.093,-0.020,-0.022,-1.446,0.038,-0.213,-31.228,15.402,50.047
1747663028.06,0.041,-0.069,-0.031,-1.466,0.150,-0.245,-32.063,15.515,50.261
1747663028.07,-0.022,-0.133,-0.008,-1.515,0.193,-0.233,-32.919,15.676,50.373
1747663028.08,-0.097,-0.185,0.015,-1.585,0.194,-0.171,-33.803,15.868,50.610
1747663028.09,-0.133,-0.211,0.059,-1.624,0.248,-0.088,-34.705,16.117,50.829
1747663028.10,-0.123,-0.191,0.089,-1.624,0.297,-0.006,-35.604,16.439,51.200
1747663028.11,-0.074,-0.123,0.081,-1.588,0.338,0.051,-36.480,16.822,51.542
1747663028.12,-0.001,-0.028,0.079,-1.533,0.345,0.045,-37.323,17.239,51.989
1747663028.13,0.048,0.075,0.040,-1.517,0.194,-0.050,-38.152,17.601,52.322
1747663028.14,0.064,0.157,-0.017,-1.511,-0.011,-0.170,-38.995,17.814,52.666
1747663028.15,0.078,0.183,-0.041,-1.506,-0.123,-0.243,-39.852,17.895,52.859
1747663028.16,0.073,0.144,-0.046,-1.501,-0.154,-0.250,-40.713,17.921,53.096
1747663028.17,0.030,0.066,-0.032,-1.508,-0.129,-0.216,-41.573,17.956,53.277
1747663028.18,-0.013,-0.007,-0.022,-1.485,-0.058,-0.158,-42.419,18.050,53.544
1747663028.19,-0.039,-0.056,-0.025,-1.505,0.022,-0.136,-43.254,18.212,53.799
1747663028.20,-0.054,-0.078,-0.000,-1.537,0.117,-0.148,-44.104,18.442,54.126
1747663028.21,-0.044,-0.077,0.020,-1.597,0.111,-0.180,-44.979,18.703,54.400
1747663028.22,-0.021,-0.062,0.059,-1.710,0.080,-0.184,-45.907,18.963,54.752
1747663028.23,0.027,-0.041,0.083,-1.700,0.093,-0.182,-46.867,19.248,55.074
1747663028.24,0.057,0.004,0.018,-1.599,-0.004,-0.196,-47.791,19.505,55.438
1747663028.25,0.066,0.059,-0.058,-1.576,-0.086,-0.206,-48.679,19.694,55.731
1747663028.26,0.074,0.092,-0.029,-1.572,-0.148,-0.247,-49.570,19.840,56.058
1747663028.27,0.051,0.100,-0.028,-1.549,-0.221,-0.296,-50.461,19.921,56.302
1747663028.28,0.018,0.087,-0.054,-1.545,-0.239,-0.321,-51.351,19.954,56.540
1747663028.29,0.009,0.058,-0.045,-1.553,-0.220,-0.326,-52.246,19.986,56.748
1747663028.30,0.010,0.024,-0.029,-1.561,-0.219,-0.337,-53.146,20.026,56.969
1747663028.31,0.016,-0.011,0.013,-1.575,-0.220,-0.338,-54.055,20.072,57.183
1747663028.32,0.019,-0.036,0.059,-1.554,-0.230,-0.335,-54.961,20.121,57.429
1747663028.33,0.011,-0.044,0.066,-1.517,-0.227,-0.346,-55.850,20.161,57.638
1747663028.34,-0.001,-0.045,0.068,-1.503,-0.220,-0.351,-56.727,20.200,57.853
1747663028.35,-0.010,-0.042,0.040,-1.494,-0.224,-0.354,-57.599,20.237,58.049
1747663028.36,-0.021,-0.035,0.002,-1.502,-0.189,-0.357,-58.472,20.286,58.265
1747663028.37,-0.023,-0.032,0.018,-1.481,-0.093,-0.377,-59.345,20.372,58.460
1747663028.38,-0.030,-0.026,0.016,-1.456,-0.033,-0.418,-60.209,20.474,58.634
1747663028.39,-0.043,-0.021,-0.008,-1.482,-0.052,-0.423,-61.077,20.567,58.769
1747663028.40,-0.027,-0.021,0.009,-1.538,-0.016,-0.410,-61.969,20.696,58.954
1747663028.41,0.006,-0.015,0.053,-1.524,0.047,-0.405,-62.872,20.888,59.159
1747663028.42,0.010,-0.005,0.050,-1.453,0.049,-0.396,-63.749,21.100,59.362
1747663028.43,0.008,-0.002,0.035,-1.438,0.042,-0.376,-64.595,21.313,59.571
1747663028.44,0.027,-0.006,0.052,-1.451,0.019,-0.350,-65.440,21.569,59.839
1747663028.45,0.026,-0.008,0.011,-1.436,-0.039,-0.352,-66.282,21.825,60.127
1747663028.46,0.007,-0.014,-0.028,-1.409,0.010,-0.356,-67.110,22.083,60.418
1747663028.47,-0.006,-0.022,-0.015,-1.380,0.070,-0.394,-67.927,22.361,60.691
1747663028.48,-0.039,-0.023,-0.016,-1.356,0.087,-0.442,-68.741,22.602,60.900
1747663028.49,-0.070,-0.027,-0.028,-1.315,0.129,-0.482,-69.547,22.791,61.039
1747663028.50,-0.057,-0.041,-0.030,-1.334,0.223,-0.495,-70.350,22.987,61.140
1747663028.51,-0.018,-0.056,0.019,-1.411,0.281,-0.474,-71.179,23.286,61.302
1747663028.52,0.012,-0.060,0.072,-1.452,0.263,-0.445,-72.035,23.701,61.563
1747663028.53,0.018,-0.048,0.067,-1.434,0.267,-0.427,-72.892,24.189,61.889
1747663028.54,0.036,-0.029,0.068,-1.375,0.281,-0.397,-73.720,24.741,62.301
1747663028.55,0.053,-0.003,0.072,-1.318,0.234,-0.375,-74.511,25.332,62.724
1747663028.56,0.041,0.021,0.023,-1.221,0.169,-0.376,-75.259,25.895,63.189
1747663028.57,0.021,0.020,-0.046,-1.119,0.141,-0.388,-75.954,26.361,63.540
1747663028.58,0.013,-0.005,-0.086,-1.122,0.190,-0.395,-76.622,26.798,63.897
1747663028.59,0.018,-0.044,-0.081,-1.160,0.240,-0.407,-77.308,27.319,64.263
1747663028.60,0.000,-0.064,-0.088,-1.172,0.200,-0.386,-78.004,27.940,64.768
1747663028.61,-0.025,-0.067,-0.077,-1.185,0.170,-0.363,-78.697,28.679,65.359
1747663028.62,-0.030,-0.047,-0.038,-1.228,0.197,-0.373,-79.401,29.574,66.166
1747663028.63,-0.036,-0.028,0.019,-1.210,0.286,-0.417,-80.120,30.572,66.989
1747663028.64,-0.029,-0.017,0.058,-1.125,0.374,-0.448,-80.818,31.543,67.780
1747663028.65,-0.008,-0.015,0.046,-1.104,0.352,-0.433,-81.490,32.536,68.515
1747663028.66,0.007,-0.018,0.005,-1.083,0.294,-0.406,-82.147,33.701,69.507
1747663028.67,0.022,-0.031,-0.053,-1.027,0.247,-0.352,-82.766,35.063,70.657
1747663028.68,0.034,-0.034,-0.080,-1.019,0.226,-0.323,-83.351,36.728,72.199
1747663028.69,0.025,-0.023,-0.074,-1.006,0.182,-0.309,-83.919,38.756,74.048
1747663028.70,-0.009,0.004,-0.087,-0.936,0.128,-0.325,-84.461,40.982,76.198
1747663028.71,-0.056,0.028,-0.096,-0.875,0.159,-0.377,-84.978,43.206,78.274
1747663028.72,-0.070,0.018,-0.045,-0.823,0.224,-0.428,-85.487,45.413,80.379
1747663028.73,-0.049,-0.019,-0.035,-0.734,0.241,-0.425,-85.971,47.620,82.380
1747663028.74,-0.010,-0.043,-0.053,-0.644,0.216,-0.390,-86.405,49.855,84.489
1747663028.75,0.029,-0.036,-0.033,-0.614,0.192,-0.341,-86.792,52.442,86.892
1747663028.76,0.052,-0.013,0.027,-0.687,0.122,-0.284,-87.153,56.206,90.568
1747663028.77,0.036,-0.001,0.059,-0.749,0.085,-0.229,-87.491,62.244,96.483
1747663028.78,-0.013,-0.011,0.074,-0.788,0.148,-0.198,-87.778,70.907,105.090
1747663028.79,-0.062,-0.028,0.104,-0.797,0.292,-0.171,-87.986,82.364,116.346
1747663028.80,-0.091,-0.042,0.067,-0.772,0.410,-0.151,-88.086,95.628,129.416
1747663028.81,-0.093,-0.057,0.028,-0.751,0.469,-0.145,-88.074,109.084,142.546
1747663028.82,-0.067,-0.053,0.015,-0.725,0.419,-0.173,-87.974,121.539,154.750
1747663028.83,-0.024,-0.024,-0.029,-0.687,0.338,-0.207,-87.818,132.321,165.249
1747663028.84,0.030,0.008,-0.065,-0.643,0.295,-0.230,-87.627,141.346,174.100
1747663028.85,0.072,0.050,-0.057,-0.578,0.237,-0.222,-87.413,148.580,-178.889
1747663028.86,0.073,0.058,-0.042,-0.450,0.187,-0.221,-87.215,154.087,-173.499
1747663028.87,0.046,0.057,-0.062,-0.308,0.055,-0.208,-87.069,158.146,-169.601
1747663028.88,0.010,0.016,-0.095,-0.250,-0.066,-0.192,-86.962,161.236,-166.499
1747663028.89,0.010,-0.030,-0.083,-0.263,-0.093,-0.160,-86.856,163.764,-164.017
1747663028.90,0.024,-0.061,-0.044,-0.311,-0.068,-0.133,-86.719,165.910,-161.821
1747663028.91,0.017,-0.070,-0.003,-0.346,-0.016,-0.128,-86.551,167.824,-159.976
1747663028.92,0.015,-0.040,0.004,-0.332,0.013,-0.159,-86.377,169.725,-158.073
1747663028.93,0.016,0.021,-0.024,-0.307,0.022,-0.208,-86.213,171.794,-156.112
1747663028.94,0.022,0.080,-0.048,-0.291,-0.023,-0.262,-86.060,174.076,-153.825
1747663028.95,0.016,0.140,-0.056,-0.272,-0.114,-0.341,-85.913,176.685,-151.264
1747663028.96,0.017,0.183,-0.040,-0.213,-0.243,-0.377,-85.780,179.518,-148.324
1747663028.97,0.038,0.133,-0.043,-0.116,-0.324,-0.341,-85.683,-177.882,-145.648
1747663028.98,0.048,-0.005,-0.006,-0.014,-0.277,-0.259,-85.637,-175.818,-143.405
1747663028.99,0.028,-0.120,0.052,0.067,-0.182,-0.161,-85.643,-174.379,-141.927
1747663029.00,-0.016,-0.148,0.065,0.100,-0.147,-0.111,-85.684,-173.399,-140.854
1747663029.01,-0.079,-0.107,0.061,0.081,-0.200,-0.094,-85.730,-172.636,-140.081
1747663029.02,-0.125,-0.068,0.057,0.023,-0.247,-0.061,-85.755,-172.111,-139.426
1747663029.02,-0.139,-0.064,0.064,-0.027,-0.287,-0.033,-85.749,-171.912,-139.156
1747663029.04,-0.146,-0.054,0.041,-0.057,-0.254,-0.027,-85.723,-171.904,-138.988
1747663029.05,-0.125,-0.020,0.033,-0.059,-0.088,-0.028,-85.686,-171.846,-138.911
1747663029.06,-0.077,0.012,0.059,-0.031,0.079,-0.002,-85.659,-171.780,-138.845
1747663029.06,-0.040,0.031,0.066,0.014,0.186,0.028,-85.654,-171.819,-139.045
1747663029.08,-0.028,0.039,0.057,0.054,0.275,0.031,-85.677,-171.871,-139.229
1747663029.08,-0.024,0.029,0.050,0.047,0.317,0.036,-85.709,-171.885,-139.489
1747663029.09,-0.024,0.009,0.026,0.025,0.294,0.038,-85.733,-171.971,-139.752
1747663029.10,-0.042,0.004,-0.002,-0.016,0.218,0.024,-85.739,-172.047,-140.055
1747663029.11,-0.058,-0.005,-0.006,-0.082,0.211,0.021,-85.713,-172.133,-140.257
1747663029.12,-0.040,-0.024,0.034,-0.102,0.277,0.040,-85.657,-172.207,-140.538
1747663029.13,-0.026,-0.034,0.054,-0.083,0.331,0.058,-85.603,-172.420,-140.928
1747663029.14,-0.008,-0.029,0.055,-0.051,0.397,0.069,-85.564,-172.709,-141.502
1747663029.15,0.029,-0.027,0.060,-0.006,0.423,0.069,-85.547,-172.984,-142.015
1747663029.16,0.056,-0.077,0.035,0.032,0.340,0.080,-85.562,-173.331,-142.684
1747663029.17,0.075,-0.022,-0.013,0.072,0.237,0.083,-85.596,-173.719,-143.239
1747663029.18,0.074,0.051,-0.011,0.128,0.115,0.101,-85.660,-174.219,-143.932
1747663029.19,0.055,0.036,-0.020,0.185,-0.016,0.130,-85.755,-174.956,-144.700
1747663029.20,0.010,0.037,-0.041,0.221,-0.143,0.119,-85.879,-175.864,-145.641
1747663029.21,-0.040,0.030,-0.029,0.208,-0.204,0.086,-86.005,-176.682,-146.357
1747663029.22,-0.052,-0.003,0.011,0.202,-0.154,0.069,-86.123,-177.329,-146.984
1747663029.23,-0.028,-0.040,0.041,0.244,-0.084,0.095,-86.249,-177.999,-147.589
1747663029.24,-0.006,-0.035,0.031,0.302,-0.029,0.133,-86.410,-178.989,-148.635
1747663029.25,-0.012,0.007,0.038,0.266,0.043,0.165,-86.576,179.636,-150.016
1747663029.26,-0.046,0.047,0.083,0.219,0.094,0.168,-86.711,177.977,-151.798
1747663029.27,-0.105,0.059,0.080,0.215,0.079,0.131,-86.830,176.393,-153.436
1747663029.28,-0.148,0.037,0.072,0.197,0.077,0.080,-86.945,175.178,-154.768
1747663029.29,-0.128,-0.009,0.081,0.145,0.115,0.051,-87.039,174.377,-155.626
1747663029.30,-0.055,-0.059,0.077,0.117,0.150,0.053,-87.109,173.755,-156.402
1747663029.31,0.029,-0.081,0.063,0.144,0.133,0.064,-87.178,172.994,-157.249
1747663029.32,0.092,-0.062,0.042,0.198,0.072,0.080,-87.266,171.971,-158.405
1747663029.33,0.131,-0.022,0.025,0.277,-0.005,0.128,-87.390,170.296,-160.103
1747663029.34,0.138,0.037,-0.012,0.346,-0.159,0.178,-87.545,167.546,-162.891
1747663029.35,0.083,0.084,-0.061,0.391,-0.320,0.164,-87.726,163.796,-166.505
1747663029.36,-0.009,0.080,-0.052,0.394,-0.368,0.109,-87.915,159.787,-170.386
1747663029.37,-0.070,0.031,-0.021,0.392,-0.318,0.054,-88.105,155.930,-174.046
1747663029.38,-0.088,-0.025,-0.010,0.403,-0.236,0.019,-88.301,152.033,-177.851
1747663029.39,-0.076,-0.057,-0.004,0.424,-0.173,0.016,-88.500,147.368,177.598
1747663029.40,-0.049,-0.067,-0.006,0.473,-0.153,0.034,-88.699,140.671,170.929
1747663029.41,-0.021,-0.060,-0.030,0.532,-0.185,0.076,-88.883,129.910,160.261
1747663029.42,0.014,-0.042,-0.074,0.561,-0.190,0.134,-88.997,113.622,144.020
1747663029.43,0.050,-0.010,-0.099,0.591,-0.223,0.182,-88.986,94.101,124.557
1747663029.44,0.050,0.030,-0.134,0.635,-0.278,0.199,-88.845,75.914,106.512
1747663029.45,0.035,0.039,-0.092,0.630,-0.189,0.236,-88.601,62.477,93.160
1747663029.46,0.054,0.020,0.020,0.630,-0.031,0.269,-88.288,54.029,84.769
1747663029.47,0.029,-0.002,0.047,0.690,-0.040,0.250,-87.935,47.996,78.708
1747663029.48,-0.031,-0.028,-0.002,0.740,-0.078,0.229,-87.552,42.973,73.718
1747663029.49,-0.035,-0.054,-0.024,0.770,-0.062,0.229,-87.141,38.969,69.729
1747663029.50,-0.010,-0.061,-0.050,0.813,-0.068,0.219,-86.703,35.727,66.518
1747663029.51,0.016,-0.040,-0.065,0.825,-0.037,0.229,-86.244,33.094,63.884
1747663029.52,0.050,-0.009,-0.030,0.819,0.012,0.251,-85.774,31.170,61.961
1747663029.53,0.046,0.016,-0.013,0.834,0.019,0.256,-85.294,29.733,60.484
1747663029.54,0.017,0.021,-0.014,0.888,0.006,0.237,-84.796,28.425,59.163
1747663029.55,-0.016,0.022,-0.023,0.938,0.003,0.206,-84.275,27.045,57.747
1747663029.56,-0.053,0.013,0.019,0.932,0.026,0.215,-83.744,25.786,56.472
1747663029.57,-0.084,0.008,0.036,0.923,-0.019,0.278,-83.206,24.914,55.562
1747663029.58,-0.099,-0.001,0.001,0.898,-0.113,0.356,-82.656,24.454,55.138
1747663029.59,-0.066,-0.010,0.031,0.823,-0.072,0.414,-82.115,24.382,55.094
1747663029.60,0.003,-0.008,0.100,0.714,0.046,0.394,-81.620,24.586,55.308
1747663029.61,0.041,0.001,0.136,0.708,0.085,0.324,-81.168,24.752,55.413
1747663029.62,0.055,0.023,0.127,0.714,-0.015,0.275,-80.727,24.678,55.313
1747663029.63,0.047,0.037,0.128,0.714,-0.157,0.256,-80.294,24.442,55.116
1747663029.64,0.013,0.038,0.136,0.748,-0.235,0.249,-79.856,24.095,54.881
1747663029.65,-0.012,0.030,0.128,0.779,-0.280,0.262,-79.397,23.709,54.613
1747663029.66,-0.031,0.030,0.080,0.795,-0.342,0.270,-78.922,23.321,54.400
1747663029.67,-0.069,0.041,0.020,0.793,-0.327,0.255,-78.446,22.923,54.192
1747663029.68,-0.096,0.047,0.017,0.775,-0.291,0.221,-77.980,22.521,53.960
1747663029.69,-0.114,0.040,0.000,0.729,-0.287,0.172,-77.541,22.080,53.681
1747663029.70,-0.114,0.018,-0.026,0.716,-0.230,0.141,-77.127,21.613,53.357
1747663029.71,-0.085,-0.015,-0.006,0.706,-0.086,0.171,-76.716,21.226,53.058
1747663029.72,-0.043,-0.041,0.048,0.703,0.082,0.238,-76.299,21.075,52.904
1747663029.73,-0.030,-0.041,0.052,0.704,0.176,0.295,-75.870,21.146,52.911
1747663029.74,-0.063,-0.030,0.004,0.692,0.171,0.350,-75.431,21.351,53.017
1747663029.75,-0.082,-0.030,-0.027,0.652,0.153,0.419,-74.993,21.684,53.282
1747663029.76,-0.069,-0.033,-0.023,0.642,0.119,0.451,-74.559,22.111,53.641
1747663029.77,-0.029,-0.029,-0.038,0.667,0.046,0.434,-74.118,22.490,54.018
1747663029.78,0.053,-0.015,-0.059,0.721,-0.012,0.388,-73.663,22.727,54.256
1747663029.79,0.127,-0.001,-0.055,0.842,-0.048,0.307,-73.174,22.747,54.313
1747663029.80,0.141,0.011,-0.058,0.874,-0.016,0.240,-72.657,22.571,54.152
1747663029.81,0.113,0.006,-0.004,0.827,0.068,0.207,-72.160,22.373,53.949
1747663029.82,0.031,-0.007,0.035,0.815,0.080,0.193,-71.684,22.198,53.715
1747663029.83,-0.076,-0.019,-0.022,0.759,0.020,0.228,-71.221,22.046,53.549
1747663029.84,-0.109,-0.041,-0.033,0.653,0.057,0.302,-70.791,22.035,53.518
1747663029.85,-0.045,-0.063,0.017,0.657,0.161,0.335,-70.380,22.188,53.633
1747663029.86,0.026,-0.059,0.016,0.715,0.147,0.320,-69.946,22.353,53.710
1747663029.87,0.055,-0.031,-0.021,0.762,-0.000,0.276,-69.492,22.394,53.728
1747663029.88,0.073,0.015,-0.079,0.831,-0.182,0.224,-69.016,22.231,53.611
1747663029.89,0.099,0.058,-0.102,0.838,-0.241,0.176,-68.529,21.913,53.421
1747663029.90,0.125,0.069,-0.043,0.873,-0.197,0.105,-68.048,21.522,53.137
1747663029.91,0.091,0.055,0.006,0.869,-0.131,0.042,-67.565,21.074,52.789
1747663029.92,-0.007,0.015,0.079,0.800,-0.075,0.038,-67.113,20.651,52.395
1747663029.93,-0.090,-0.035,0.114,0.719,0.012,0.118,-66.691,20.367,52.148
1747663029.94,-0.140,-0.066,0.092,0.622,0.117,0.238,-66.297,20.320,52.055
1747663029.95,-0.153,-0.061,-0.002,0.564,0.215,0.314,-65.925,20.485,52.170
1747663029.96,-0.100,-0.043,-0.023,0.568,0.281,0.356,-65.559,20.779,52.335
1747663029.97,-0.005,-0.017,0.015,0.680,0.250,0.367,-65.153,21.080,52.545
1747663029.98,0.067,0.029,-0.005,0.802,0.131,0.307,-64.686,21.255,52.614
1747663029.99,0.078,0.086,-0.047,0.905,-0.018,0.188,-64.180,21.193,52.557
1747663030.00,0.039,0.126,-0.088,0.978,-0.061,0.081,-63.650,20.917,52.279
1747663030.01,-0.007,0.132,-0.092,0.992,-0.043,-0.012,-63.115,20.525,51.906
1747663030.02,-0.060,0.101,-0.065,0.936,0.004,-0.089,-62.607,20.085,51.424
1747663030.03,-0.088,0.028,0.012,0.850,0.111,-0.076,-62.144,19.689,50.984
1747663030.04,-0.060,-0.073,0.122,0.734,0.312,0.026,-61.724,19.499,50.630
1747663030.05,-0.029,-0.144,0.125,0.701,0.320,0.143,-61.325,19.522,50.482
1747663030.06,0.016,-0.162,-0.036,0.628,0.165,0.271,-60.924,19.631,50.448
1747663030.07,0.115,-0.145,-0.043,0.548,0.063,0.386,-60.547,19.811,50.617
1747663030.08,0.220,-0.101,0.040,0.599,-0.000,0.403,-60.165,20.015,50.831
1747663030.09,0.264,-0.029,0.055,0.740,-0.101,0.353,-59.734,20.114,51.022
1747663030.10,0.224,0.050,0.000,0.915,-0.222,0.277,-59.226,20.036,51.038
1747663030.11,0.136,0.105,-0.062,0.970,-0.282,0.191,-58.669,19.788,50.962
1747663030.12,0.051,0.106,-0.058,0.934,-0.293,0.122,-58.124,19.464,50.772
1747663030.13,-0.049,0.062,-0.047,0.856,-0.370,0.077,-57.623,19.089,50.585
1747663030.14,-0.134,-0.011,-0.053,0.752,-0.284,0.114,-57.170,18.735,50.397
1747663030.15,-0.121,-0.097,0.022,0.653,-0.096,0.192,-56.764,18.564,50.360
1747663030.16,-0.072,-0.148,0.031,0.645,-0.114,0.224,-56.375,18.505,50.352
1747663030.17,-0.029,-0.144,-0.047,0.619,-0.206,0.267,-55.989,18.439,50.437
1747663030.18,0.048,-0.089,0.014,0.677,-0.226,0.277,-55.593,18.363,50.498
1747663030.19,0.077,0.009,0.074,0.835,-0.227,0.219,-55.137,18.235,50.540
1747663030.20,0.034,0.097,0.065,0.966,-0.238,0.154,-54.614,18.012,50.435
1747663030.21,-0.029,0.138,0.019,1.000,-0.126,0.115,-54.052,17.763,50.310
1747663030.22,-0.092,0.133,-0.045,0.937,-0.001,0.074,-53.507,17.571,50.116
1747663030.23,-0.173,0.084,-0.097,0.864,0.033,0.040,-53.007,17.414,49.955
1747663030.24,-0.216,-0.002,-0.083,0.819,0.034,0.082,-52.539,17.283,49.768
1747663030.25,-0.143,-0.085,-0.013,0.778,0.066,0.179,-52.081,17.228,49.715
1747663030.26,-0.023,-0.122,0.063,0.731,0.094,0.231,-51.636,17.260,49.694
1747663030.27,0.080,-0.105,0.095,0.733,0.072,0.218,-51.199,17.308,49.752
1747663030.28,0.149,-0.047,0.091,0.740,0.065,0.188,-50.763,17.333,49.732
1747663030.29,0.172,0.021,0.085,0.792,-0.041,0.181,-50.316,17.305,49.738
1747663030.30,0.145,0.073,0.041,0.830,-0.181,0.212,-49.840,17.203,49.690
1747663030.31,0.099,0.102,0.034,0.913,-0.229,0.240,-49.327,17.058,49.706
1747663030.32,0.022,0.123,0.009,0.992,-0.245,0.223,-48.767,16.888,49.661
1747663030.33,-0.084,0.136,-0.057,0.986,-0.291,0.168,-48.189,16.669,49.622
1747663030.34,-0.155,0.119,-0.073,0.901,-0.211,0.119,-47.649,16.437,49.511
1747663030.35,-0.161,0.064,-0.019,0.844,-0.054,0.064,-47.157,16.267,49.448
1747663030.36,-0.164,-0.006,0.039,0.831,0.023,0.031,-46.692,16.142,49.360
1747663030.37,-0.129,-0.067,0.063,0.816,0.095,0.074,-46.232,16.067,49.209
1747663030.38,-0.035,-0.096,0.080,0.783,0.132,0.140,-45.776,16.066,49.184
1747663030.39,0.044,-0.061,0.068,0.783,0.090,0.173,-45.323,16.092,49.131
1747663030.40,0.101,0.014,0.024,0.813,0.046,0.194,-44.857,16.107,49.151
1747663030.41,0.127,0.086,-0.008,0.850,-0.050,0.209,-44.368,16.088,49.121
1747663030.42,0.089,0.135,-0.024,0.901,-0.136,0.215,-43.854,16.012,49.161
1747663030.43,0.007,0.152,0.007,0.915,-0.176,0.195,-43.321,15.892,49.121
1747663030.44,-0.072,0.136,0.027,0.878,-0.180,0.162,-42.799,15.752,49.130
1747663030.45,-0.109,0.081,-0.001,0.834,-0.178,0.125,-42.308,15.599,49.058
1747663030.46,-0.105,0.003,0.008,0.822,-0.078,0.103,-41.836,15.464,49.033
1747663030.47,-0.067,-0.067,0.044,0.848,0.046,0.075,-41.364,15.390,48.930
1747663030.48,-0.042,-0.113,0.021,0.876,0.054,0.060,-40.878,15.341,48.876
1747663030.49,-0.029,-0.130,-0.042,0.870,0.004,0.089,-40.385,15.279,48.756
1747663030.50,-0.004,-0.111,-0.057,0.855,-0.039,0.092,-39.898,15.203,48.734
1747663030.51,0.020,-0.063,-0.045,0.864,-0.040,0.067,-39.412,15.109,48.626
1747663030.52,0.041,-0.014,0.003,0.884,-0.009,0.036,-38.921,15.013,48.573
1747663030.53,0.042,0.023,0.039,0.888,-0.044,0.028,-38.428,14.911,48.428
1747663030.54,0.042,0.029,0.033,0.880,-0.152,0.090,-37.931,14.778,48.367
1747663030.55,0.067,0.010,0.029,0.882,-0.210,0.169,-37.427,14.631,48.296
1747663030.56,0.116,-0.008,0.037,0.901,-0.224,0.204,-36.907,14.490,48.330
1747663030.57,0.163,-0.013,0.025,0.911,-0.235,0.210,-36.375,14.349,48.313
1747663030.58,0.170,-0.017,0.006,0.910,-0.277,0.223,-35.841,14.198,48.372
1747663030.59,0.122,-0.012,-0.009,0.912,-0.322,0.231,-35.306,14.023,48.370
1747663030.60,0.060,-0.002,-0.002,0.927,-0.329,0.246,-34.764,13.841,48.436
1747663030.61,0.013,0.001,-0.000,0.948,-0.303,0.248,-34.209,13.666,48.448
1747663030.62,-0.032,-0.007,0.011,0.972,-0.241,0.218,-33.645,13.512,48.500
1747663030.63,-0.070,-0.026,0.016,0.985,-0.228,0.188,-33.074,13.368,48.478
1747663030.64,-0.074,-0.054,-0.014,0.938,-0.228,0.188,-32.512,13.221,48.510
1747663030.65,-0.045,-0.078,0.007,0.873,-0.180,0.191,-31.985,13.097,48.496
1747663030.66,-0.015,-0.079,0.049,0.884,-0.135,0.178,-31.475,13.002,48.552
1747663030.67,-0.005,-0.040,0.057,0.921,-0.104,0.167,-30.950,12.923,48.528
1747663030.68,-0.001,0.030,0.027,0.927,-0.137,0.173,-30.413,12.844,48.571
1747663030.69,-0.001,0.096,-0.028,0.900,-0.282,0.217,-29.878,12.719,48.561
1747663030.70,0.005,0.128,-0.046,0.905,-0.333,0.262,-29.349,12.552,48.645
1747663030.71,0.013,0.142,-0.008,0.984,-0.379,0.211,-28.793,12.356,48.665
1747663030.72,-0.033,0.140,0.027,1.076,-0.360,0.103,-28.199,12.125,48.669
1747663030.73,-0.051,0.099,0.025,1.094,-0.326,0.029,-27.582,11.879,48.562
1747663030.74,-0.051,0.025,-0.009,1.049,-0.310,0.006,-26.980,11.638,48.487
1747663030.75,-0.069,-0.048,-0.005,1.062,-0.267,0.033,-26.390,11.418,48.363
1747663030.76,-0.082,-0.093,0.040,1.102,-0.207,0.096,-25.775,11.242,48.325
1747663030.77,-0.066,-0.081,0.058,1.126,-0.126,0.137,-25.137,11.120,48.262
1747663030.78,-0.021,-0.013,0.045,1.120,-0.108,0.151,-24.491,11.036,48.266
1747663030.79,0.037,0.067,0.003,1.136,-0.126,0.172,-23.843,10.956,48.231
1747663030.80,0.098,0.125,-0.026,1.157,-0.203,0.195,-23.180,10.855,48.258
1747663030.81,0.130,0.142,-0.022,1.192,-0.323,0.218,-22.499,10.702,48.249
1747663030.82,0.110,0.103,0.021,1.206,-0.404,0.203,-21.801,10.488,48.291
1747663030.83,0.054,0.023,0.068,1.193,-0.352,0.141,-21.110,10.258,48.263
1747663030.84,-0.001,-0.067,0.070,1.201,-0.246,0.085,-20.425,10.065,48.267
1747663030.85,-0.042,-0.146,0.044,1.167,-0.168,0.101,-19.749,9.923,48.195
1747663030.86,-0.031,-0.193,-0.002,1.117,-0.086,0.144,-19.095,9.835,48.213
1747663030.87,-0.001,-0.184,-0.027,1.089,-0.022,0.158,-18.461,9.799,48.191
1747663030.88,-0.005,-0.104,-0.020,1.098,-0.033,0.139,-17.833,9.778,48.235
1747663030.89,-0.035,0.012,-0.008,1.106,-0.097,0.124,-17.200,9.730,48.200
1747663030.90,-0.057,0.101,0.018,1.148,-0.106,0.130,-16.555,9.659,48.228
1747663030.91,-0.058,0.152,0.045,1.232,-0.120,0.126,-15.874,9.583,48.185
1747663030.92,-0.060,0.166,0.017,1.302,-0.128,0.108,-15.147,9.498,48.192
1747663030.93,-0.051,0.135,-0.026,1.288,-0.170,0.085,-14.406,9.396,48.122
1747663030.94,-0.026,0.063,-0.044,1.244,-0.212,0.077,-13.684,9.267,48.109
1747663030.95,-0.001,-0.019,-0.008,1.210,-0.179,0.066,-12.988,9.137,48.035
1747663030.96,0.025,-0.072,0.035,1.189,-0.144,0.019,-12.307,9.029,47.994
1747663030.97,0.022,-0.069,0.009,1.174,-0.194,-0.038,-11.642,8.910,47.881
1747663030.98,-0.016,-0.027,-0.012,1.176,-0.241,-0.052,-10.981,8.759,47.786
1747663030.99,-0.040,0.014,-0.023,1.151,-0.230,-0.041,-10.327,8.598,47.656
1747663031.00,-0.031,0.029,-0.005,1.174,-0.166,-0.003,-9.676,8.466,47.584
1747663031.01,-0.024,0.040,0.044,1.223,-0.098,0.060,-8.994,8.375,47.499
1747663031.02,-0.027,0.064,0.044,1.191,-0.023,0.098,-8.303,8.331,47.483
