Time,AccX,AccY,AccZ,GyroX,GyroY,GyroZ,Pitch,Roll,Yaw
1747664863.43,0.043,0.003,0.015,-0.013,0.031,-0.018,-81.450,-1.506,26.164
1747664863.44,0.054,-0.005,-0.002,-0.012,-0.019,-0.023,-81.457,-1.565,26.101
1747664863.45,0.039,-0.006,-0.021,0.006,-0.063,-0.018,-81.455,-1.652,26.036
1747664863.45,0.019,0.001,-0.035,0.011,-0.086,-0.021,-81.445,-1.773,25.960
1747664863.46,0.000,-0.002,-0.033,0.000,-0.063,-0.006,-81.438,-1.889,25.887
1747664863.47,0.000,-0.016,-0.012,-0.017,-0.059,0.019,-81.444,-1.916,25.893
1747664863.48,0.008,-0.024,-0.007,-0.012,-0.109,0.033,-81.456,-1.864,25.992
1747664863.49,0.012,-0.016,-0.042,-0.011,-0.151,0.039,-81.464,-1.796,26.137
1747664863.50,0.023,-0.002,-0.047,-0.004,-0.176,0.038,-81.472,-1.712,26.317
1747664863.51,0.037,0.009,-0.030,0.030,-0.185,0.021,-81.465,-1.663,26.470
1747664863.52,0.031,0.013,-0.030,0.052,-0.149,0.006,-81.439,-1.682,26.549
1747664863.53,0.007,0.008,-0.023,0.056,-0.096,-0.012,-81.404,-1.743,26.557
1747664863.54,-0.033,0.004,-0.016,0.058,-0.047,-0.019,-81.367,-1.843,26.498
1747664863.55,-0.073,-0.003,-0.015,0.031,-0.004,-0.003,-81.339,-1.900,26.456
1747664863.56,-0.091,-0.012,-0.010,-0.003,0.054,0.011,-81.333,-1.858,26.483
1747664863.57,-0.089,-0.023,0.004,0.008,0.105,0.020,-81.332,-1.745,26.551
1747664863.58,-0.057,-0.017,0.002,0.023,0.148,0.031,-81.321,-1.568,26.655
1747664863.59,-0.014,0.003,0.010,0.035,0.173,0.038,-81.304,-1.334,26.799
1747664863.60,0.017,0.018,0.019,0.025,0.138,0.019,-81.286,-1.122,26.920
1747664863.61,0.027,0.038,0.014,0.036,0.081,0.001,-81.269,-1.024,26.956
1747664863.62,0.037,0.034,0.011,0.056,0.007,0.009,-81.241,-0.984,26.970
1747664863.63,0.047,-0.004,-0.003,0.040,-0.041,0.027,-81.212,-0.936,27.030
1747664863.64,0.047,-0.033,-0.007,0.033,-0.043,0.034,-81.194,-0.854,27.138
1747664863.65,0.043,-0.040,-0.004,0.052,-0.056,0.016,-81.171,-0.799,27.222
1747664863.66,0.025,-0.012,-0.023,0.058,-0.059,-0.002,-81.139,-0.816,27.241
1747664863.67,0.013,0.018,-0.024,0.061,-0.060,-0.011,-81.104,-0.877,27.213
1747664863.68,0.012,0.030,-0.009,0.078,-0.049,-0.013,-81.066,-0.950,27.172
1747664863.69,0.001,0.020,-0.007,0.094,0.007,-0.009,-81.016,-0.993,27.141
1747664863.70,-0.010,0.006,-0.007,0.074,0.045,-0.012,-80.967,-1.004,27.113
1747664863.71,-0.034,-0.002,0.001,0.060,0.083,-0.017,-80.929,-1.008,27.072
1747664863.72,-0.061,-0.010,0.004,0.057,0.124,-0.003,-80.896,-0.976,27.045
1747664863.73,-0.053,-0.017,0.013,0.075,0.152,0.012,-80.858,-0.864,27.077
1747664863.74,-0.031,-0.011,0.012,0.088,0.161,0.008,-80.810,-0.725,27.127
1747664863.75,-0.013,0.001,0.005,0.124,0.164,0.002,-80.750,-0.605,27.154
1747664863.76,0.008,0.004,-0.004,0.163,0.177,-0.002,-80.667,-0.493,27.169
1747664863.77,0.023,0.007,-0.005,0.194,0.165,-0.004,-80.566,-0.394,27.169
1747664863.78,0.020,0.006,0.000,0.230,0.136,-0.011,-80.446,-0.337,27.140
1747664863.79,-0.001,0.003,-0.016,0.249,0.138,-0.006,-80.308,-0.305,27.094
1747664863.80,-0.012,-0.002,-0.011,0.251,0.155,0.006,-80.167,-0.249,27.067
1747664863.81,-0.012,-0.003,0.022,0.295,0.177,0.005,-80.014,-0.164,27.058
1747664863.82,-0.025,-0.002,0.028,0.337,0.190,-0.011,-79.836,-0.084,27.032
1747664863.83,-0.040,-0.006,0.017,0.324,0.165,-0.014,-79.648,-0.029,26.984
1747664863.84,-0.048,-0.013,0.003,0.306,0.160,-0.001,-79.470,0.039,26.960
1747664863.85,-0.035,-0.020,-0.004,0.339,0.210,-0.002,-79.288,0.151,26.968
1747664863.86,-0.008,-0.017,-0.000,0.401,0.231,0.005,-79.080,0.286,26.975
1747664863.87,0.018,-0.005,0.005,0.464,0.198,0.021,-78.833,0.436,27.003
1747664863.88,0.031,0.013,-0.016,0.494,0.232,0.031,-78.559,0.615,27.064
1747664863.89,0.034,0.026,0.005,0.526,0.293,0.016,-78.268,0.818,27.116
1747664863.90,0.022,0.016,0.016,0.571,0.294,-0.011,-77.954,0.968,27.099
1747664863.91,-0.015,0.006,-0.020,0.554,0.335,0.010,-77.631,1.111,27.062
1747664863.92,-0.042,-0.004,0.012,0.528,0.413,0.052,-77.323,1.378,27.117
1747664863.93,-0.061,-0.013,0.070,0.542,0.406,0.077,-77.015,1.748,27.251
1747664863.94,-0.085,-0.014,0.052,0.527,0.329,0.093,-76.708,2.122,27.420
1747664863.95,-0.079,-0.019,0.007,0.518,0.311,0.105,-76.407,2.488,27.611
1747664863.96,-0.003,-0.029,0.010,0.525,0.292,0.098,-76.107,2.846,27.801
1747664863.97,0.081,-0.023,0.022,0.564,0.225,0.060,-75.795,3.114,27.923
1747664863.98,0.114,0.005,0.022,0.629,0.064,0.007,-75.455,3.196,27.921
1747664863.99,0.095,0.042,0.011,0.689,-0.061,-0.027,-75.079,3.088,27.811
1747664864.00,0.047,0.057,-0.006,0.690,-0.117,-0.002,-74.684,2.923,27.698
1747664864.01,0.014,0.052,0.018,0.667,-0.120,0.030,-74.297,2.809,27.652
1747664864.02,-0.009,0.037,0.067,0.685,-0.053,0.074,-73.910,2.797,27.693
1747664864.03,-0.024,0.003,0.089,0.676,0.024,0.130,-73.518,2.920,27.827
1747664864.04,-0.026,-0.032,0.094,0.645,0.054,0.199,-73.136,3.187,28.081
1747664864.05,0.002,-0.051,0.077,0.635,0.068,0.270,-72.764,3.593,28.470
1747664864.06,0.048,-0.042,0.061,0.654,0.049,0.303,-72.387,4.081,28.942
1747664864.07,0.081,-0.018,0.060,0.708,-0.048,0.278,-71.988,4.510,29.391
1747664864.08,0.075,-0.007,0.048,0.742,-0.194,0.233,-71.560,4.783,29.748
1747664864.09,0.056,-0.008,0.023,0.726,-0.322,0.184,-71.131,4.877,30.006
1747664864.10,0.036,-0.010,0.006,0.729,-0.368,0.150,-70.710,4.848,30.187
1747664864.11,0.013,-0.005,0.007,0.772,-0.369,0.142,-70.277,4.769,30.329
1747664864.12,-0.009,0.003,-0.006,0.801,-0.336,0.159,-69.822,4.697,30.467
1747664864.13,-0.043,0.013,0.002,0.829,-0.291,0.165,-69.352,4.667,30.625
1747664864.14,-0.092,0.014,0.012,0.846,-0.226,0.139,-68.866,4.644,29.895
1747664864.15,-0.142,0.005,0.002,0.842,-0.085,0.123,-68.381,4.637,29.988
1747664864.16,-0.152,-0.008,0.026,0.882,0.105,0.125,-67.884,4.719,29.211
1747664864.17,-0.130,-0.015,0.017,0.859,0.173,0.120,-67.381,4.870,29.283
1747664864.18,-0.116,-0.022,0.001,0.801,0.173,0.117,-66.902,5.031,28.495
1747664864.19,-0.097,-0.042,0.013,0.787,0.156,0.101,-66.448,5.176,27.714
1747664864.20,-0.058,-0.069,0.010,0.855,0.131,0.114,-65.978,5.291,27.752
1747664864.21,-0.006,-0.087,-0.025,0.875,0.142,0.158,-65.475,5.440,27.010
1747664864.22,0.053,-0.070,-0.020,0.851,0.139,0.166,-64.977,5.620,27.118
1747664864.23,0.081,-0.020,0.000,0.850,0.155,0.166,-64.484,5.800,26.408
1747664864.24,0.071,0.006,0.007,0.879,0.174,0.143,-63.986,5.978,26.498
1747664864.25,0.060,0.008,0.031,0.918,0.094,0.083,-63.468,6.076,25.713
1747664864.26,0.039,0.009,-0.020,0.980,0.047,0.095,-62.924,6.092,25.691
1747664864.27,0.036,-0.008,-0.048,1.023,0.012,0.143,-62.348,6.128,24.914
1747664864.28,0.044,-0.021,-0.015,1.026,-0.050,0.087,-61.756,6.125,24.924
1747664864.29,0.027,-0.007,-0.047,0.940,-0.033,0.019,-61.192,6.041,24.080
1747664864.30,0.012,-0.008,-0.030,0.909,-0.001,0.004,-60.672,5.946,23.980
1747664864.31,0.006,-0.020,-0.031,0.943,0.005,0.039,-60.144,5.871,23.114
1747664864.32,-0.007,-0.029,-0.048,0.943,0.023,0.063,-59.604,5.833,23.062
1747664864.33,-0.020,-0.027,-0.020,0.944,0.049,0.093,-59.064,5.834,22.644
1747664864.34,-0.001,-0.025,-0.002,0.935,0.017,0.116,-58.522,5.866,22.655
1747664864.35,0.045,-0.017,0.038,0.905,-0.090,0.136,-57.994,5.872,22.687
1747664864.36,0.072,0.009,0.042,0.926,-0.179,0.191,-57.465,5.857,22.760
1747664864.37,0.106,0.021,-0.003,0.963,-0.204,0.267,-56.917,5.865,22.898
1747664864.38,0.149,0.018,0.032,1.011,-0.196,0.270,-56.338,5.898,23.078
1747664864.39,0.148,0.015,0.062,1.014,-0.140,0.198,-55.747,5.913,23.212
1747664864.40,0.086,0.011,0.038,1.019,-0.148,0.108,-55.162,5.873,23.258
1747664864.41,-0.017,0.002,-0.036,1.029,-0.277,0.049,-54.575,5.731,23.231
1747664864.42,-0.121,-0.003,-0.090,1.024,-0.318,0.020,-53.990,5.501,23.164
1747664864.43,-0.155,-0.004,-0.043,1.027,-0.216,0.007,-53.406,5.282,23.083
1747664864.44,-0.117,0.004,0.050,1.058,-0.161,0.021,-52.815,5.113,23.005
1747664864.45,-0.072,0.020,0.115,1.120,-0.089,0.034,-52.194,4.991,22.942
1747664864.46,-0.039,0.050,0.110,1.138,-0.043,0.013,-51.548,4.903,22.874
1747664864.47,-0.033,0.084,0.093,1.090,-0.024,0.005,-50.913,4.824,22.798
1747664864.48,-0.049,0.085,0.033,0.991,-0.003,-0.004,-50.319,4.756,22.718
1747664864.49,-0.053,0.051,-0.016,0.942,-0.056,0.041,-49.773,4.698,22.660
1747664864.50,-0.057,-0.017,-0.001,1.016,-0.051,0.120,-49.214,4.662,22.661
1747664864.51,-0.026,-0.071,0.018,1.085,0.059,0.154,-48.609,4.706,22.712
1747664864.52,-0.021,-0.083,0.038,1.144,0.056,0.055,-47.969,4.754,22.726
1747664864.53,-0.047,-0.058,-0.004,1.161,0.015,-0.020,-47.310,4.725,22.658
1747664864.54,-0.047,-0.034,-0.019,1.127,-0.025,-0.064,-46.661,4.635,22.543
1747664864.55,-0.015,-0.017,0.029,1.108,0.072,-0.073,-46.029,4.553,22.410
1747664864.56,0.039,0.006,0.082,1.093,0.146,-0.105,-45.407,4.521,22.271
1747664864.57,0.073,0.034,0.109,1.064,-0.001,-0.134,-44.798,4.449,22.101
1747664864.58,0.063,0.075,0.045,1.039,-0.191,-0.065,-44.205,4.289,21.954
1747664864.59,0.080,0.076,-0.012,1.038,-0.277,0.037,-43.615,4.102,21.882
1747664864.60,0.113,0.057,0.011,1.082,-0.238,0.115,-43.009,3.956,21.887
1747664864.61,0.105,0.034,0.011,1.104,-0.216,0.115,-42.382,3.853,21.923
1747664864.62,0.057,0.028,-0.008,1.114,-0.286,0.071,-41.745,3.721,21.937
1747664864.63,-0.003,0.023,-0.012,1.100,-0.307,0.057,-41.110,3.543,21.931
1747664864.64,-0.019,0.016,0.046,1.078,-0.198,0.063,-40.487,3.392,21.927
1747664864.65,0.014,0.011,0.112,1.077,-0.027,0.058,-39.873,3.327,21.926
1747664864.66,0.055,0.013,0.128,1.132,0.092,0.054,-39.243,3.347,21.920
1747664864.67,0.062,0.010,0.065,1.149,0.053,0.041,-38.590,3.388,21.906
1747664864.68,0.011,0.003,-0.023,1.174,-0.116,0.020,-37.927,3.350,21.878
1747664864.69,-0.051,-0.006,-0.087,1.161,-0.166,-0.009,-37.259,3.236,21.833
1747664864.70,-0.079,-0.013,-0.091,1.139,-0.145,-0.078,-36.605,3.106,21.758
1747664864.71,-0.085,-0.026,-0.031,1.120,-0.216,-0.164,-35.964,2.928,21.631
1747664864.72,-0.105,-0.027,0.009,1.130,-0.173,-0.213,-35.330,2.710,21.458
1747664864.73,-0.094,-0.016,0.048,1.132,-0.060,-0.212,-34.689,2.534,21.272
1747664864.74,-0.065,-0.004,0.097,1.163,0.074,-0.195,-34.038,2.438,21.097
1747664864.75,-0.039,0.013,0.062,1.156,0.119,-0.180,-33.381,2.409,20.931
1747664864.76,-0.008,0.031,0.025,1.170,0.009,-0.112,-32.721,2.373,20.797
1747664864.77,0.050,0.042,-0.001,1.153,-0.067,-0.049,-32.058,2.312,20.710
1747664864.78,0.114,0.047,-0.009,1.160,-0.126,0.008,-31.401,2.233,20.669
1747664864.79,0.154,0.044,-0.002,1.180,-0.277,-0.003,-30.733,2.105,20.642
1747664864.80,0.123,0.029,0.012,1.251,-0.250,-0.053,-30.039,1.922,20.596
1747664864.81,0.068,0.013,0.045,1.270,-0.141,-0.139,-29.319,1.773,20.507
1747664864.82,-0.003,-0.008,0.028,1.266,-0.137,-0.206,-28.598,1.626,20.368
1747664864.83,-0.063,-0.040,-0.038,1.237,-0.111,-0.197,-27.887,1.476,20.213
1747664864.84,-0.054,-0.078,-0.040,1.187,-0.023,-0.147,-27.196,1.382,20.083
1747664864.85,-0.014,-0.108,0.005,1.152,-0.083,-0.082,-26.528,1.318,19.989
1747664864.86,0.011,-0.111,0.042,1.129,-0.141,0.047,-25.879,1.239,19.964
1747664864.87,0.076,-0.081,0.038,1.145,-0.138,0.046,-25.231,1.168,19.981
1747664864.88,0.156,-0.008,0.050,1.164,-0.185,0.089,-24.570,1.086,20.006
1747664864.89,0.188,0.036,0.043,1.203,-0.193,0.130,-23.896,1.002,20.064
1747664864.90,0.145,0.045,0.048,1.230,-0.151,0.122,-23.200,0.927,20.130
1747664864.91,0.045,0.034,0.022,1.283,-0.030,0.116,-22.480,0.901,20.191
1747664864.92,-0.022,-0.003,0.003,1.322,0.023,0.121,-21.734,0.923,20.251
1747664864.93,-0.027,-0.052,-0.013,1.338,0.143,0.111,-20.971,0.995,20.310
1747664864.94,0.026,-0.084,-0.026,1.297,0.215,0.114,-20.216,1.119,20.364
1747664864.95,0.089,-0.107,-0.014,1.216,0.133,0.131,-19.498,1.241,20.422
1747664864.96,0.106,-0.090,-0.008,1.199,0.101,0.145,-18.811,1.324,20.492
1747664864.97,0.070,-0.050,0.018,1.180,-0.042,0.194,-18.128,1.362,20.571
1747664864.98,-0.003,0.007,0.038,1.201,-0.050,0.270,-17.445,1.368,20.696
1747664864.99,-0.047,0.076,0.014,1.191,0.013,0.264,-16.760,1.399,20.842
1747664865.00,-0.063,0.120,0.003,1.274,0.118,0.227,-16.057,1.471,20.969
1747664865.01,-0.049,0.132,0.002,1.394,0.287,0.208,-15.291,1.614,21.078
1747664865.02,-0.041,0.140,0.013,1.393,0.351,0.185,-14.483,1.828,21.168
1747664865.03,-0.064,0.138,-0.029,1.298,0.235,0.214,-13.712,2.020,21.257
1747664865.04,-0.088,0.107,-0.039,1.279,0.183,0.280,-12.975,2.160,21.375
1747664865.05,-0.078,0.063,0.002,1.383,0.253,0.285,-12.212,2.313,21.514
1747664865.06,-0.012,0.072,0.031,1.430,0.265,0.174,-11.401,2.485,21.618
1747664865.07,0.002,0.125,-0.004,1.376,0.180,0.031,-10.595,2.617,21.637
1747664865.08,-0.044,0.079,-0.036,1.335,0.120,0.001,-9.827,2.694,21.608
1747664865.09,-0.047,-0.021,-0.025,1.315,0.173,-0.006,-9.070,2.767,21.570
1747664865.10,-0.058,-0.125,-0.010,1.308,0.257,-0.011,-8.323,2.885,21.528
1747664865.11,-0.066,-0.136,0.015,1.282,0.352,-0.018,-7.577,3.076,21.474
1747664865.12,-0.072,-0.042,0.008,1.245,0.272,0.094,-6.860,3.261,21.454
1747664865.13,-0.018,0.075,0.038,1.279,0.175,0.163,-6.139,3.384,21.488
1747664865.14,0.036,0.170,0.068,1.372,0.259,0.152,-5.379,3.513,21.535
1747664865.15,0.104,0.217,0.092,1.373,0.228,0.079,-4.588,3.660,21.553
1747664865.16,0.091,0.173,-0.013,1.307,0.022,0.067,-3.827,3.729,21.544
1747664865.17,0.036,0.023,-0.102,1.280,-0.005,0.074,-3.087,3.723,21.535
1747664865.18,-0.010,-0.196,-0.056,1.260,0.169,0.029,-2.360,3.765,21.519
1747664865.19,-0.050,-0.319,0.030,1.244,0.322,-0.029,-1.645,3.908,21.470
1747664865.20,-0.141,-0.332,0.019,1.191,0.392,0.018,-0.953,4.114,21.414
1747664865.21,-0.204,-0.194,0.009,1.206,0.404,0.127,-0.269,4.342,21.406
1747664865.22,-0.180,0.014,0.093,1.221,0.386,0.132,0.429,4.570,21.429
1747664865.23,-0.064,0.180,0.085,1.263,0.262,0.065,1.138,4.759,21.430
1747664865.24,0.106,0.178,0.000,1.290,-0.061,0.020,1.868,4.819,21.391
1747664865.25,0.241,0.066,-0.058,1.305,-0.327,-0.016,2.608,4.706,21.332
1747664865.26,0.293,-0.061,-0.025,1.291,-0.459,-0.098,3.348,4.484,21.243
1747664865.27,0.205,-0.169,-0.009,1.235,-0.437,-0.168,4.060,4.231,21.110
1747664865.28,0.024,-0.280,-0.023,1.206,-0.238,-0.157,4.747,4.042,20.963
1747664865.29,-0.155,-0.279,0.005,1.191,0.087,-0.088,5.426,4.008,20.845
1747664865.30,-0.248,-0.183,0.056,1.206,0.370,-0.047,6.102,4.151,20.758
1747664865.31,-0.212,-0.007,0.057,1.255,0.489,-0.030,6.803,4.411,20.684
1747664865.32,-0.097,0.178,0.044,1.257,0.475,-0.053,7.515,4.701,20.604
1747664865.33,0.026,0.264,-0.022,1.198,0.246,-0.050,8.210,4.923,20.514
1747664865.34,0.119,0.196,-0.070,1.194,-0.027,-0.039,8.891,4.997,20.428
1747664865.35,0.184,0.080,-0.114,1.146,-0.308,-0.065,9.558,4.915,20.342
1747664865.36,0.233,-0.051,-0.157,1.156,-0.433,-0.127,10.199,4.709,20.237
1747664865.37,0.212,-0.185,-0.148,1.058,-0.566,-0.104,10.822,4.428,20.116
1747664865.38,0.130,-0.174,-0.092,1.043,-0.436,-0.132,11.416,4.159,20.004
1747664865.39,-0.004,-0.098,-0.055,1.030,-0.206,-0.167,12.000,4.001,19.874
1747664865.40,-0.155,0.015,-0.032,1.034,0.034,-0.130,12.582,3.980,19.744
1747664865.41,-0.232,0.067,-0.039,1.057,0.164,-0.071,13.173,4.065,19.643
1747664865.41,-0.194,0.103,-0.048,1.043,0.172,-0.079,13.770,4.185,19.559
1747664865.43,-0.086,0.152,-0.051,1.019,0.109,-0.147,14.354,4.294,19.447
1747664865.43,0.012,0.142,-0.045,1.025,-0.037,-0.202,14.932,4.355,19.297
1747664865.45,0.079,0.061,-0.073,0.970,-0.199,-0.202,15.491,4.332,19.132
1747664865.45,0.116,-0.078,-0.116,0.928,-0.329,-0.210,16.023,4.222,18.970
1747664865.46,0.103,-0.080,-0.150,0.872,-0.353,-0.238,16.526,4.073,18.798
1747664865.47,0.061,-0.044,-0.133,0.851,-0.316,-0.282,17.008,3.934,18.605
1747664865.48,-0.004,-0.036,-0.112,0.851,-0.231,-0.266,17.480,3.839,18.407
1747664865.49,-0.051,0.013,-0.066,0.853,-0.150,-0.241,17.956,3.785,18.221
1747664865.50,-0.077,0.114,-0.035,0.877,-0.072,-0.222,18.439,3.777,18.047
1747664865.51,-0.067,0.190,-0.023,0.908,-0.016,-0.206,18.940,3.805,17.883
1747664865.52,-0.045,0.211,-0.021,0.910,0.020,-0.194,19.452,3.859,17.726
1747664865.53,-0.006,0.132,-0.059,0.890,-0.010,-0.179,19.959,3.915,17.575
1747664865.54,0.049,0.038,-0.123,0.874,-0.094,-0.217,20.458,3.938,17.421
1747664865.55,0.074,-0.031,-0.136,0.817,-0.127,-0.216,20.931,3.935,17.251
1747664865.56,0.087,-0.165,-0.094,0.739,-0.159,-0.202,21.368,3.908,17.091
1747664865.57,0.079,-0.125,-0.103,0.694,-0.155,-0.178,21.766,3.871,16.943
1747664865.58,0.049,-0.066,-0.076,0.690,-0.097,-0.143,22.153,3.845,16.817
1747664865.59,0.003,0.027,-0.006,0.688,-0.038,-0.118,22.542,3.849,16.708
1747664865.60,-0.024,0.108,0.020,0.654,-0.045,-0.102,22.921,3.864,16.612
1747664865.61,-0.012,0.059,-0.050,0.626,-0.085,-0.077,23.282,3.860,16.530
1747664865.62,0.005,-0.047,-0.102,0.579,-0.075,-0.066,23.624,3.840,16.462
1747664865.63,0.004,-0.108,-0.087,0.533,-0.056,-0.097,23.936,3.832,16.392
1747664865.64,0.010,-0.118,-0.084,0.452,-0.036,-0.112,24.212,3.845,16.302
1747664865.65,0.023,-0.209,-0.086,0.385,-0.087,-0.080,24.447,3.841,16.224
1747664865.66,0.032,-0.160,-0.100,0.343,-0.014,-0.044,24.650,3.830,16.169
1747664865.67,0.060,-0.067,-0.088,0.280,0.126,0.012,24.827,3.873,16.145
1747664865.68,0.079,-0.010,-0.047,0.290,0.020,0.053,24.987,3.918,16.155
1747664865.69,0.014,-0.006,-0.016,0.261,-0.025,0.088,25.151,3.895,16.190
1747664865.70,0.017,-0.030,0.012,0.171,-0.077,0.044,25.274,3.856,16.223
1747664865.71,0.144,-0.087,-0.045,0.143,-0.189,0.041,25.365,3.770,16.242
1747664865.72,0.129,-0.101,-0.067,0.144,-0.168,0.053,25.447,3.652,16.266
1747664865.73,0.025,-0.018,-0.044,0.153,-0.057,0.068,25.534,3.574,16.296
1747664865.74,-0.076,0.060,-0.093,0.139,0.038,0.117,25.621,3.548,16.348
1747664865.75,-0.086,0.056,-0.142,0.108,0.070,0.148,25.696,3.545,16.428
1747664865.76,-0.044,0.008,-0.124,0.069,0.070,0.132,25.752,3.550,16.514
1747664865.77,-0.001,-0.036,-0.044,0.029,0.024,0.095,25.785,3.547,16.584
1747664865.78,0.031,-0.060,0.012,-0.023,-0.012,0.051,25.787,3.531,16.630
1747664865.79,0.025,-0.063,0.014,-0.008,-0.078,0.031,25.777,3.494,16.654
1747664865.80,-0.035,0.006,0.005,0.026,-0.080,0.032,25.785,3.440,16.673
1747664865.81,-0.071,0.083,-0.036,0.026,-0.064,0.021,25.800,3.393,16.689
1747664865.82,-0.058,0.071,-0.094,0.039,-0.038,0.011,25.818,3.357,16.699
1747664865.83,-0.057,0.029,-0.096,0.037,0.015,-0.019,25.839,3.351,16.696
1747664865.84,-0.058,0.018,-0.049,0.021,0.034,-0.046,25.854,3.376,16.672
1747664865.85,-0.047,-0.009,-0.029,-0.004,0.005,-0.047,25.857,3.402,16.641
1747664865.86,-0.019,-0.041,-0.027,-0.024,-0.039,-0.049,25.849,3.406,16.612
1747664865.87,0.003,-0.032,-0.021,-0.053,-0.065,-0.063,25.826,3.390,16.579
1747664865.88,0.009,-0.005,-0.012,-0.051,-0.030,-0.074,25.793,3.377,16.539
1747664865.89,0.020,0.000,-0.008,0.005,-0.015,-0.079,25.773,3.387,16.492
1747664865.90,0.016,0.011,0.001,0.059,-0.020,-0.057,25.787,3.390,16.449
1747664865.91,-0.013,0.036,0.049,0.044,0.006,-0.058,25.816,3.401,16.414
1747664865.92,0.028,0.004,0.022,0.002,-0.041,-0.064,25.823,3.408,16.373
1747664865.93,0.080,-0.064,-0.005,0.012,-0.080,-0.007,25.825,3.379,16.351
1747664865.94,0.063,-0.062,0.009,0.012,-0.045,0.003,25.833,3.341,16.351
1747664865.95,0.013,0.005,0.012,0.023,-0.017,0.024,25.844,3.323,16.358
1747664865.96,-0.001,0.014,-0.028,0.025,-0.017,0.034,25.859,3.306,16.376
1747664865.97,0.014,-0.022,-0.038,0.022,-0.011,0.025,25.872,3.291,16.394
1747664865.98,0.028,-0.038,-0.012,0.027,-0.000,0.014,25.887,3.284,16.406
1747664865.99,0.029,-0.024,0.023,0.032,-0.006,0.007,25.903,3.280,16.411
1747664866.00,0.013,-0.023,0.045,0.043,-0.022,0.014,25.927,3.271,16.416
1747664866.01,-0.023,-0.032,0.056,0.032,-0.034,0.018,25.953,3.260,16.421
1747664866.02,-0.018,-0.025,0.024,0.035,-0.071,0.020,25.976,3.232,16.428
1747664866.03,0.007,-0.011,-0.013,0.041,-0.097,0.012,25.999,3.181,16.437
1747664866.04,0.004,0.011,-0.018,0.045,-0.067,-0.020,26.020,3.133,16.433
1747664866.05,-0.025,0.007,-0.013,0.063,-0.015,-0.031,26.049,3.119,16.413
1747664866.06,-0.050,-0.014,-0.001,0.077,0.039,-0.037,26.092,3.140,16.388
1747664866.07,-0.046,0.003,0.006,0.034,0.024,-0.043,26.125,3.175,16.360
1747664866.08,-0.018,0.007,-0.029,0.026,0.025,-0.033,26.140,3.198,16.333
1747664866.09,-0.001,-0.031,-0.035,0.018,0.124,-0.044,26.159,3.249,16.309
1747664866.10,0.013,-0.004,-0.012,-0.047,0.132,-0.059,26.151,3.339,16.276
1747664866.11,0.003,-0.003,-0.067,-0.074,0.120,-0.033,26.116,3.421,16.248
1747664866.12,-0.025,-0.063,-0.088,-0.147,0.189,-0.014,26.051,3.514,16.238
1747664866.13,-0.012,-0.059,-0.084,-0.193,0.171,-0.015,25.952,3.618,16.237
1747664866.14,0.002,-0.050,-0.127,-0.244,0.190,-0.000,25.829,3.715,16.240
1747664866.15,-0.006,-0.072,-0.130,-0.303,0.240,0.033,25.674,3.829,16.264
1747664866.16,-0.003,-0.093,-0.128,-0.401,0.211,0.063,25.477,3.938,16.310
1747664866.17,-0.013,-0.106,-0.162,-0.495,0.184,0.082,25.223,4.021,16.375
1747664866.18,-0.006,-0.126,-0.168,-0.579,0.175,0.118,24.922,4.089,16.462
1747664866.19,0.023,-0.139,-0.162,-0.692,0.130,0.139,24.566,4.130,16.572
1747664866.20,0.036,-0.129,-0.180,-0.785,0.139,0.142,24.149,4.154,16.694
1747664866.21,0.037,-0.137,-0.159,-0.859,0.152,0.121,23.688,4.188,16.815
1747664866.22,0.004,-0.160,-0.115,-0.963,0.179,0.097,23.173,4.238,16.923
1747664866.23,-0.036,-0.174,-0.126,-1.041,0.199,0.088,22.603,4.304,17.025
1747664866.24,-0.054,-0.161,-0.126,-1.096,0.195,0.096,22.001,4.382,17.130
1747664866.25,-0.047,-0.114,-0.125,-1.185,0.113,0.096,21.359,4.432,17.243
1747664866.26,-0.014,-0.075,-0.175,-1.264,0.067,0.104,20.664,4.438,17.361
1747664866.27,0.003,-0.068,-0.189,-1.309,0.060,0.123,19.938,4.434,17.490
1747664866.28,0.005,-0.067,-0.156,-1.382,0.010,0.143,19.176,4.405,17.635
1747664866.29,0.006,-0.054,-0.178,-1.405,-0.017,0.134,18.388,4.354,17.782
1747664866.30,0.005,-0.050,-0.167,-1.412,0.008,0.134,17.591,4.305,17.927
1747664866.31,0.015,-0.047,-0.102,-1.448,0.040,0.104,16.784,4.281,18.062
1747664866.32,0.014,-0.027,-0.087,-1.466,0.048,0.073,15.956,4.274,18.178
1747664866.33,-0.009,-0.020,-0.075,-1.453,0.113,0.081,15.128,4.288,18.286
1747664866.34,-0.032,-0.015,-0.021,-1.481,0.176,0.091,14.298,4.344,18.403
1747664866.35,-0.037,0.006,-0.022,-1.505,0.184,0.071,13.450,4.418,18.517
1747664866.36,-0.036,0.005,-0.071,-1.503,0.223,0.055,12.596,4.511,18.623
1747664866.37,-0.002,-0.026,-0.064,-1.516,0.201,0.045,11.741,4.612,18.721
1747664866.38,0.032,-0.051,-0.060,-1.545,0.134,0.047,10.872,4.690,18.819
1747664866.39,0.056,-0.060,-0.073,-1.561,0.060,0.053,9.989,4.725,18.921
1747664866.40,0.061,-0.069,-0.059,-1.570,0.052,0.080,9.102,4.736,19.035
1747664866.41,0.052,-0.055,-0.033,-1.575,0.044,0.096,8.212,4.746,19.162
1747664866.42,0.027,-0.021,-0.007,-1.578,0.047,0.102,7.319,4.752,19.294
1747664866.43,-0.004,0.010,0.026,-1.548,0.116,0.091,6.435,4.779,19.426
1747664866.44,-0.005,0.026,0.039,-1.536,0.187,0.023,5.560,4.857,19.534
1747664866.45,-0.006,0.022,0.021,-1.534,0.186,-0.042,4.687,4.958,19.603
1747664866.46,-0.054,-0.003,-0.014,-1.531,0.194,-0.077,3.813,5.063,19.645
1747664866.47,-0.100,-0.032,-0.049,-1.549,0.200,-0.089,2.933,5.174,19.676
1747664866.48,-0.099,-0.058,-0.057,-1.577,0.184,-0.062,2.041,5.283,19.713
1747664866.49,-0.037,-0.081,-0.058,-1.593,0.134,-0.014,1.138,5.373,19.775
1747664866.50,0.034,-0.090,-0.040,-1.606,0.077,-0.003,0.229,5.433,19.585
1747664866.51,0.090,-0.075,-0.033,-1.594,0.026,-0.022,-0.684,5.461,19.666
1747664866.52,0.110,-0.057,0.023,-1.547,0.030,-0.053,-1.578,5.476,19.449
1747664866.53,0.073,-0.048,0.088,-1.540,0.090,-0.100,-2.457,5.511,19.489
1747664866.54,0.015,-0.034,0.070,-1.544,0.109,-0.106,-3.342,5.571,18.998
1747664866.55,-0.037,-0.032,0.028,-1.555,0.116,-0.060,-4.226,5.635,19.035
1747664866.56,-0.069,-0.027,0.003,-1.588,0.157,-0.010,-5.121,5.719,18.586
1747664866.57,-0.032,-0.025,-0.031,-1.607,0.155,-0.010,-6.030,5.819,18.676
1747664866.58,0.024,-0.040,-0.038,-1.586,0.122,-0.061,-6.940,5.906,18.237
1747664866.59,0.050,-0.071,0.003,-1.558,0.123,-0.130,-7.837,5.980,18.276
1747664866.60,0.039,-0.108,0.035,-1.581,0.116,-0.176,-8.736,6.050,17.776
1747664866.61,0.016,-0.149,0.020,-1.596,0.080,-0.154,-9.650,6.108,17.777
1747664866.62,0.011,-0.184,-0.010,-1.601,0.084,-0.086,-10.564,6.156,17.278
1747664866.63,0.030,-0.192,0.001,-1.622,0.163,-0.036,-11.483,6.238,17.345
1747664866.64,0.059,-0.173,0.014,-1.625,0.197,-0.027,-12.408,6.361,16.912
1747664866.65,0.049,-0.136,0.024,-1.577,0.224,-0.056,-13.321,6.498,16.994
1747664866.66,0.018,-0.097,0.070,-1.541,0.295,-0.110,-14.208,6.658,16.537
1747664866.67,0.008,-0.068,0.068,-1.563,0.324,-0.169,-15.097,6.845,16.561
1747664866.68,0.000,-0.053,0.043,-1.592,0.257,-0.176,-16.003,7.016,16.057
1747664866.69,0.004,-0.071,-0.027,-1.611,0.187,-0.132,-16.921,7.148,16.083
1747664866.70,0.045,-0.096,-0.038,-1.607,0.172,-0.092,-17.842,7.265,15.627
1747664866.71,0.102,-0.103,0.013,-1.607,0.103,-0.072,-18.757,7.371,15.703
1747664866.72,0.114,-0.094,0.038,-1.603,0.025,-0.089,-19.674,7.430,15.277
1747664866.73,0.072,-0.073,0.074,-1.567,0.067,-0.142,-20.578,7.474,15.334
1747664866.74,0.024,-0.043,0.080,-1.562,0.071,-0.218,-21.477,7.524,14.818
1747664866.75,-0.039,-0.013,0.015,-1.563,0.020,-0.245,-22.379,7.542,14.799
1747664866.76,-0.089,-0.013,-0.044,-1.585,0.056,-0.227,-23.289,7.553,14.782
1747664866.77,-0.068,-0.024,-0.016,-1.601,0.090,-0.195,-24.205,7.598,14.782
1747664866.78,-0.016,-0.032,0.000,-1.630,0.034,-0.165,-25.132,7.647,14.805
1747664866.79,0.031,-0.038,-0.012,-1.640,-0.076,-0.161,-26.071,7.652,14.842
1747664866.80,0.069,-0.030,-0.005,-1.646,-0.208,-0.183,-27.015,7.585,14.874
1747664866.81,0.099,-0.023,-0.002,-1.620,-0.326,-0.198,-27.955,7.437,14.890
1747664866.82,0.104,-0.027,0.017,-1.579,-0.331,-0.202,-28.874,7.246,14.894
1747664866.83,0.095,-0.039,0.014,-1.570,-0.280,-0.230,-29.781,7.068,14.882
1747664866.84,0.056,-0.048,0.023,-1.584,-0.310,-0.249,-30.690,6.886,14.850
1747664866.85,-0.020,-0.077,0.011,-1.637,-0.313,-0.224,-31.620,6.689,14.818
1747664866.86,-0.064,-0.104,-0.004,-1.690,-0.232,-0.157,-32.577,6.533,14.819
1747664866.87,-0.046,-0.117,0.013,-1.725,-0.142,-0.079,-33.555,6.453,14.871
1747664866.88,-0.014,-0.103,0.021,-1.737,-0.055,-0.029,-34.541,6.453,14.969
1747664866.89,0.008,-0.068,0.045,-1.718,-0.039,-0.024,-35.524,6.497,15.088
1747664866.90,-0.001,-0.024,0.044,-1.689,-0.049,-0.045,-36.491,6.539,15.203
1747664866.91,-0.023,0.015,-0.004,-1.665,-0.036,-0.088,-37.447,6.570,15.294
1747664866.92,-0.051,0.043,-0.016,-1.626,0.002,-0.156,-38.390,6.591,15.343
1747664866.93,-0.081,0.058,-0.019,-1.574,0.030,-0.223,-39.309,6.597,15.338
1747664866.94,-0.092,0.054,-0.032,-1.555,0.010,-0.251,-40.210,6.581,15.294
1747664866.95,-0.073,0.031,-0.016,-1.580,-0.021,-0.233,-41.115,6.546,15.246
1747664866.96,-0.025,-0.002,0.019,-1.609,-0.016,-0.181,-42.034,6.521,15.228
1747664866.97,0.048,-0.038,0.047,-1.589,0.045,-0.117,-42.953,6.547,15.255
1747664866.98,0.117,-0.055,0.042,-1.562,0.110,-0.068,-43.852,6.642,15.326
1747664866.99,0.143,-0.059,0.003,-1.514,0.128,-0.065,-44.729,6.777,15.420
1747664867.00,0.109,-0.044,-0.028,-1.479,0.120,-0.095,-45.580,6.905,15.501
1747664867.01,0.053,-0.029,-0.031,-1.503,0.111,-0.129,-46.432,7.010,15.557
1747664867.02,-0.001,-0.013,-0.001,-1.519,0.093,-0.156,-47.298,7.096,15.594
1747664867.03,-0.033,-0.005,0.026,-1.540,0.071,-0.176,-48.175,7.155,15.613
1747664867.04,-0.027,-0.010,0.047,-1.561,0.109,-0.161,-49.067,7.219,15.635
1747664867.05,0.030,-0.022,0.053,-1.557,0.143,-0.153,-49.960,7.324,15.673
1747664867.06,0.098,-0.035,0.035,-1.559,0.090,-0.147,-50.853,7.429,15.720
1747664867.07,0.136,-0.034,0.006,-1.576,0.024,-0.131,-51.749,7.507,15.778
1747664867.08,0.167,-0.021,0.025,-1.598,-0.045,-0.116,-52.658,7.566,15.859
1747664867.09,0.176,0.009,0.055,-1.559,-0.164,-0.121,-53.562,7.576,15.945
1747664867.10,0.144,0.044,0.049,-1.528,-0.245,-0.122,-54.442,7.522,16.024
1747664867.11,0.104,0.065,0.070,-1.502,-0.268,-0.115,-55.310,7.440,16.105
1747664867.12,0.055,0.075,0.071,-1.448,-0.285,-0.134,-56.154,7.338,16.173
1747664867.13,-0.008,0.063,0.015,-1.422,-0.302,-0.173,-56.976,7.194,16.203
1747664867.14,-0.078,0.028,0.017,-1.395,-0.280,-0.217,-57.790,7.009,16.184
1747664867.15,-0.120,-0.017,0.012,-1.332,-0.199,-0.268,-58.580,6.800,16.100
1747664867.16,-0.124,-0.059,-0.019,-1.309,-0.118,-0.326,-59.345,6.577,15.946
1747664867.17,-0.117,-0.083,-0.036,-1.357,-0.070,-0.397,-60.124,6.319,15.707
1747664867.18,-0.109,-0.092,-0.028,-1.353,-0.013,-0.416,-60.921,6.034,15.407
1747664867.19,-0.101,-0.089,-0.020,-1.318,0.025,-0.414,-61.704,5.749,15.076
1747664867.20,-0.089,-0.072,0.023,-1.280,0.025,-0.392,-62.465,5.467,14.741
1747664867.21,-0.070,-0.051,0.049,-1.257,0.085,-0.374,-63.204,5.200,14.409
1747664867.22,-0.034,-0.028,0.054,-1.299,0.176,-0.349,-63.948,4.991,14.090
1747664867.23,0.011,-0.014,0.065,-1.327,0.182,-0.330,-64.713,4.829,13.795
1747664867.24,0.029,-0.011,0.017,-1.336,0.079,-0.329,-65.487,4.641,13.499
1747664867.25,0.018,-0.019,-0.021,-1.335,-0.073,-0.315,-66.263,4.361,13.193
1747664867.26,0.023,-0.043,-0.027,-1.311,-0.113,-0.269,-67.027,4.045,12.912
1747664867.27,0.080,-0.063,-0.014,-1.351,-0.070,-0.242,-67.793,3.770,12.672
1747664867.28,0.131,-0.058,0.032,-1.378,-0.039,-0.244,-68.581,3.522,12.436
1747664867.29,0.148,-0.030,0.048,-1.386,-0.039,-0.259,-69.379,3.246,12.166
1747664867.30,0.144,-0.002,0.062,-1.382,-0.045,-0.238,-70.177,2.950,11.875
1747664867.31,0.114,0.027,0.111,-1.312,-0.074,-0.201,-70.954,2.669,11.613
1747664867.32,0.067,0.040,0.100,-1.192,-0.159,-0.179,-71.673,2.379,11.375
1747664867.33,0.021,0.015,0.058,-1.127,-0.237,-0.197,-72.335,2.014,11.113
1747664867.34,-0.015,-0.019,0.020,-1.160,-0.278,-0.220,-72.989,1.552,10.784
1747664867.35,-0.049,-0.051,0.014,-1.190,-0.281,-0.235,-73.664,1.003,10.381
1747664867.36,-0.060,-0.080,-0.000,-1.196,-0.231,-0.226,-74.347,0.425,9.931
1747664867.37,-0.053,-0.072,0.007,-1.236,-0.240,-0.211,-75.041,-0.152,9.469
1747664867.38,-0.060,-0.027,0.010,-1.248,-0.252,-0.227,-75.754,-0.792,8.955
1747664867.39,-0.072,0.010,0.025,-1.125,-0.260,-0.244,-76.432,-1.535,8.339
1747664867.40,-0.073,0.021,-0.027,-0.994,-0.270,-0.292,-77.030,-2.424,7.582
1747664867.41,-0.071,-0.006,-0.076,-0.886,-0.183,-0.301,-77.557,-3.441,6.676
1747664867.42,-0.045,-0.053,-0.059,-0.812,-0.051,-0.259,-78.029,-4.406,5.758
1747664867.43,-0.021,-0.069,-0.032,-0.819,-0.009,-0.226,-78.477,-5.268,4.889
1747664867.44,-0.055,-0.035,-0.018,-0.891,-0.006,-0.181,-78.952,-6.102,4.047
1747664867.45,-0.099,-0.019,-0.041,-0.870,0.103,-0.157,-79.444,-6.874,3.235
1747664867.46,-0.088,-0.036,-0.101,-0.867,0.198,-0.137,-79.923,-7.587,2.419
1747664867.47,-0.026,-0.040,-0.126,-0.912,0.215,-0.078,-80.418,-8.231,1.642
1747664867.48,0.064,-0.033,-0.063,-0.883,0.148,-0.035,-80.925,-8.767,0.990
1747664867.49,0.135,-0.014,-0.064,-0.747,0.035,-0.046,-81.385,-9.321,0.378
1747664867.50,0.156,0.013,-0.100,-0.563,-0.021,-0.099,-81.747,-10.007,-0.319
1747664867.51,0.135,0.040,-0.068,-0.382,-0.102,-0.167,-82.000,-10.907,-1.192
1747664867.52,0.051,0.065,-0.074,-0.237,-0.172,-0.222,-82.148,-12.020,-2.238
1747664867.53,-0.103,0.065,-0.075,-0.183,-0.210,-0.272,-82.231,-13.319,-3.434
1747664867.54,-0.275,0.036,-0.036,-0.195,-0.085,-0.336,-82.292,-14.841,-4.880
1747664867.55,-0.406,-0.011,-0.015,-0.249,0.132,-0.392,-82.357,-16.571,-6.638
1747664867.56,-0.448,-0.076,-0.017,-0.309,0.361,-0.411,-82.440,-18.442,-8.668
1747664867.57,-0.384,-0.118,-0.033,-0.358,0.607,-0.390,-82.544,-20.295,-10.816
1747664867.58,-0.249,-0.094,-0.011,-0.364,0.791,-0.345,-82.661,-21.975,-12.918
1747664867.59,-0.113,-0.017,0.029,-0.364,0.799,-0.284,-82.784,-23.447,-14.864
1747664867.60,-0.011,0.058,0.027,-0.337,0.755,-0.199,-82.912,-24.665,-16.538
1747664867.61,0.075,0.079,0.019,-0.287,0.738,-0.090,-83.038,-25.461,-17.769
1747664867.62,0.147,0.044,0.014,-0.261,0.719,0.023,-83.169,-25.741,-18.471
1747664867.63,0.200,-0.017,0.009,-0.292,0.669,0.114,-83.326,-25.604,-18.733
1747664867.64,0.233,-0.063,0.008,-0.303,0.550,0.145,-83.514,-25.294,-18.775
1747664867.65,0.255,-0.076,-0.016,-0.289,0.353,0.121,-83.700,-25.047,-18.787
1747664867.66,0.254,-0.056,-0.056,-0.245,0.119,0.050,-83.862,-25.092,-18.968
1747664867.67,0.217,-0.014,-0.066,-0.152,-0.031,-0.045,-83.966,-25.508,-19.407
1747664867.68,0.161,0.033,-0.060,-0.057,-0.078,-0.134,-83.998,-26.232,-20.104
1747664867.69,0.096,0.059,-0.026,-0.005,-0.185,-0.179,-83.970,-27.140,-20.945
1747664867.70,0.000,0.061,-0.036,-0.038,-0.319,-0.187,-83.929,-28.203,-21.869
1747664867.71,-0.104,0.034,-0.031,-0.096,-0.427,-0.187,-83.912,-29.473,-22.929
1747664867.72,-0.172,-0.010,-0.012,-0.135,-0.406,-0.172,-83.917,-30.867,-24.087
1747664867.73,-0.176,-0.055,-0.016,-0.189,-0.260,-0.106,-83.953,-32.166,-25.198
1747664867.74,-0.130,-0.075,-0.015,-0.231,-0.022,-0.021,-84.036,-33.159,-26.115
1747664867.75,-0.073,-0.062,-0.009,-0.240,0.202,0.035,-84.151,-33.779,-26.791
1747664867.76,-0.040,-0.024,-0.019,-0.256,0.367,0.066,-84.283,-34.147,-27.327
1747664867.77,-0.022,0.013,-0.014,-0.279,0.455,0.088,-84.435,-34.419,-27.838
1747664867.78,-0.018,0.033,0.008,-0.261,0.461,0.074,-84.590,-34.662,-28.349
1747664867.79,-0.022,0.035,0.019,-0.232,0.394,0.043,-84.725,-34.984,-28.920
1747664867.80,-0.018,0.027,0.008,-0.183,0.293,0.012,-84.832,-35.400,-29.534
1747664867.81,0.015,0.020,-0.011,-0.133,0.253,-0.014,-84.905,-35.835,-30.125
1747664867.82,0.060,0.014,-0.026,-0.087,0.262,-0.030,-84.947,-36.217,-30.656
1747664867.83,0.108,0.006,-0.025,-0.065,0.232,-0.022,-84.972,-36.501,-31.084
1747664867.84,0.132,-0.009,-0.009,-0.080,0.112,0.001,-85.000,-36.725,-31.411
1747664867.85,0.121,-0.016,0.006,-0.130,-0.074,0.019,-85.052,-37.059,-31.758
1747664867.86,0.079,-0.020,0.004,-0.171,-0.211,-0.004,-85.125,-37.704,-32.321
1747664867.87,0.023,-0.022,0.013,-0.168,-0.264,-0.033,-85.196,-38.661,-33.143
1747664867.88,-0.029,-0.020,0.027,-0.123,-0.307,-0.035,-85.249,-39.657,-33.979
1747664867.89,-0.067,-0.027,0.013,-0.116,-0.349,-0.017,-85.290,-40.497,-34.634
1747664867.90,-0.079,-0.039,-0.004,-0.138,-0.336,0.000,-85.342,-41.318,-35.260
1747664867.91,-0.062,-0.039,0.001,-0.126,-0.352,0.006,-85.401,-42.121,-35.869
1747664867.92,-0.037,-0.025,-0.023,-0.070,-0.316,0.007,-85.446,-42.766,-36.319
1747664867.93,-0.015,-0.001,-0.035,0.004,-0.208,0.002,-85.463,-43.065,-36.468
1747664867.94,-0.003,0.028,-0.017,0.105,-0.111,-0.003,-85.439,-42.888,-36.200
1747664867.95,-0.023,0.054,-0.037,0.162,-0.088,0.008,-85.382,-42.277,-35.534
1747664867.96,-0.065,0.077,-0.059,0.167,-0.111,0.020,-85.317,-41.482,-34.678
1747664867.97,-0.116,0.081,-0.048,0.152,-0.053,0.003,-85.253,-40.744,-33.884
1747664867.98,-0.150,0.047,-0.018,0.133,0.165,-0.010,-85.188,-40.124,-33.289
1747664867.99,-0.123,-0.013,0.029,0.070,0.408,0.014,-85.142,-39.520,-32.850
1747664868.00,-0.065,-0.064,0.071,-0.028,0.517,0.051,-85.143,-38.990,-32.590
1747664868.01,-0.024,-0.075,0.082,-0.088,0.466,0.056,-85.190,-38.674,-32.559
1747664868.02,0.006,-0.049,0.063,-0.088,0.337,0.039,-85.248,-38.575,-32.689
1747664868.03,0.042,-0.018,0.033,-0.049,0.231,0.028,-85.291,-38.535,-32.812
1747664868.04,0.086,-0.000,0.032,0.004,0.105,0.045,-85.314,-38.359,-32.731
1747664868.05,0.128,0.011,0.031,0.064,-0.034,0.056,-85.318,-37.913,-32.305
1747664868.06,0.142,0.026,0.026,0.119,-0.204,0.064,-85.297,-37.257,-31.580
1747664868.07,0.122,0.034,0.012,0.135,-0.389,0.061,-85.259,-36.534,-30.685
1747664868.08,0.073,0.026,-0.022,0.101,-0.469,0.035,-85.220,-36.027,-29.925
1747664868.09,0.025,0.004,0.005,0.047,-0.450,0.019,-85.195,-35.863,-29.496
1747664868.10,0.004,-0.027,0.055,0.034,-0.428,0.024,-85.184,-35.850,-29.232
1747664868.11,0.002,-0.049,0.070,0.049,-0.473,0.031,-85.175,-35.789,-28.915
1747664868.12,0.000,-0.041,0.041,0.054,-0.549,0.044,-85.163,-35.668,-28.501
1747664868.13,-0.003,-0.024,0.020,0.071,-0.616,0.062,-85.152,-35.476,-27.975
1747664868.14,-0.009,-0.014,0.029,0.109,-0.649,0.088,-85.134,-35.073,-27.208
1747664868.15,-0.017,-0.012,0.011,0.153,-0.613,0.096,-85.102,-34.417,-26.187
1747664868.16,-0.019,-0.006,0.002,0.196,-0.552,0.100,-85.051,-33.566,-24.998
1747664868.17,-0.024,0.020,0.000,0.243,-0.506,0.103,-84.977,-32.516,-23.643
1747664868.18,-0.032,0.058,-0.004,0.261,-0.489,0.095,-84.883,-31.398,-22.234
1747664868.19,-0.044,0.077,-0.001,0.267,-0.403,0.094,-84.782,-30.306,-20.878
1747664868.20,-0.035,0.053,0.034,0.298,-0.250,0.116,-84.671,-29.083,-19.462
1747664868.21,-0.030,0.005,0.091,0.314,-0.129,0.146,-84.552,-27.611,-17.876
1747664868.22,-0.072,-0.037,0.124,0.304,-0.041,0.165,-84.434,-26.003,-16.212
1747664868.23,-0.141,-0.054,0.155,0.280,-0.008,0.166,-84.324,-24.420,-14.611
1747664868.24,-0.205,-0.023,0.148,0.255,-0.011,0.148,-84.219,-22.988,-13.166
1747664868.25,-0.245,0.022,0.091,0.220,0.078,0.113,-84.122,-21.776,-11.963
1747664868.26,-0.223,0.033,0.074,0.203,0.214,0.092,-84.032,-20.752,-11.018
1747664868.27,-0.144,0.013,0.090,0.247,0.293,0.095,-83.933,-19.720,-10.129
1747664868.28,-0.052,-0.003,0.074,0.346,0.324,0.101,-83.792,-18.541,-9.121
1747664868.29,0.018,0.007,0.061,0.402,0.245,0.119,-83.607,-17.233,-7.973
1747664868.30,0.045,0.049,0.061,0.440,0.084,0.128,-83.396,-15.924,-6.751
1747664868.31,0.015,0.087,0.030,0.430,-0.021,0.113,-83.173,-14.788,-5.620
1747664868.32,-0.029,0.069,0.014,0.366,0.015,0.117,-82.968,-13.807,-4.627
1747664868.33,-0.010,-0.003,0.038,0.321,0.077,0.132,-82.796,-12.863,-3.703
1747664868.34,0.046,-0.067,0.028,0.352,0.103,0.142,-82.628,-11.891,-2.776
1747664868.35,0.105,-0.085,0.006,0.456,0.043,0.135,-82.419,-10.905,-1.828
1747664868.36,0.136,-0.054,-0.009,0.570,-0.085,0.114,-82.143,-10.009,-0.913
1747664868.37,0.121,-0.000,-0.036,0.622,-0.204,0.112,-81.816,-9.240,-0.050
1747664868.38,0.085,0.050,-0.042,0.659,-0.263,0.116,-81.466,-8.550,0.784
1747664868.39,0.037,0.064,-0.033,0.684,-0.246,0.109,-81.095,-7.924,1.568
1747664868.40,-0.033,0.041,-0.023,0.685,-0.189,0.088,-80.715,-7.372,2.251
1747664868.41,-0.108,0.017,-0.023,0.677,-0.212,0.081,-80.334,-6.920,2.824
1747664868.41,-0.171,-0.001,-0.082,0.661,-0.135,0.087,-79.959,-6.494,3.364
1747664868.43,-0.172,-0.034,-0.101,0.644,0.154,0.080,-79.595,-6.006,3.859
1747664868.43,-0.090,-0.059,-0.030,0.683,0.413,0.081,-79.226,-5.400,4.305
1747664868.45,-0.004,-0.068,0.018,0.770,0.454,0.089,-78.816,-4.708,4.749
1747664868.45,0.017,-0.048,-0.020,0.808,0.303,0.120,-78.369,-4.025,5.222
1747664868.46,-0.008,-0.005,-0.055,0.832,0.233,0.143,-77.906,-3.377,5.735
1747664868.47,-0.032,0.021,-0.034,0.865,0.258,0.146,-77.427,-2.743,6.241
1747664868.48,-0.042,0.004,-0.012,0.888,0.303,0.158,-76.930,-2.114,6.724
1747664868.49,-0.052,-0.039,-0.042,0.860,0.428,0.197,-76.431,-1.418,7.227
1747664868.51,-0.045,-0.071,-0.030,0.813,0.562,0.250,-75.956,-0.577,7.800
1747664868.51,-0.026,-0.088,0.011,0.811,0.635,0.272,-75.494,0.358,8.412
1747664868.52,-0.025,-0.073,-0.005,0.818,0.637,0.266,-75.026,1.286,8.992
1747664868.53,-0.024,-0.035,-0.021,0.824,0.575,0.227,-74.552,2.103,9.477
1747664868.54,0.000,0.006,-0.036,0.843,0.448,0.173,-74.072,2.733,9.826
1747664868.55,0.036,0.024,-0.055,0.860,0.318,0.138,-73.579,3.164,10.048
1747664868.56,0.052,0.022,-0.048,0.851,0.170,0.144,-73.087,3.476,10.227
1747664868.57,0.053,-0.010,-0.005,0.873,0.054,0.179,-72.590,3.731,10.430
1747664868.58,0.054,-0.047,-0.021,0.841,0.031,0.219,-72.093,4.005,10.695
1747664868.59,0.058,-0.065,-0.027,0.819,0.071,0.243,-71.613,4.333,11.010
1747664868.60,0.045,-0.063,-0.011,0.855,0.097,0.223,-71.126,4.670,11.313
1747664868.61,0.001,-0.031,-0.011,0.892,0.099,0.190,-70.620,4.942,11.543
1747664868.62,-0.039,0.006,-0.006,0.945,0.129,0.177,-70.089,5.167,11.714
1747664868.63,-0.029,0.010,-0.021,0.967,0.163,0.163,-69.535,5.380,11.852
1747664868.64,0.016,-0.007,-0.038,0.932,0.196,0.137,-68.983,5.571,11.947
1747664868.65,0.059,-0.027,-0.011,0.826,0.232,0.125,-68.475,5.756,12.014
1747664868.66,0.071,-0.030,0.067,0.764,0.239,0.142,-68.020,5.962,12.089
1747664868.67,0.016,-0.015,0.089,0.766,0.165,0.203,-67.577,6.208,12.226
1747664868.68,-0.050,0.011,0.042,0.790,0.006,0.271,-67.119,6.461,12.446
1747664868.69,-0.062,0.046,-0.002,0.782,-0.032,0.325,-66.653,6.725,12.750
1747664868.70,0.007,0.060,0.046,0.785,0.061,0.301,-66.189,7.026,13.070
1747664868.71,0.089,0.044,0.097,0.886,0.069,0.207,-65.703,7.263,13.283
1747664868.72,0.098,0.017,0.032,1.043,-0.027,0.105,-65.142,7.317,13.327
1747664868.73,0.039,0.011,-0.081,1.059,-0.126,0.017,-64.538,7.179,13.227
1747664868.74,-0.038,0.018,-0.086,1.051,-0.125,-0.038,-63.940,6.937,13.040
1747664868.75,-0.084,0.007,-0.031,0.986,-0.142,-0.083,-63.366,6.655,12.808
1747664868.76,-0.112,-0.016,0.011,0.927,-0.083,-0.099,-62.830,6.356,12.552
1747664868.77,-0.106,-0.041,0.065,0.936,0.099,-0.084,-62.311,6.150,12.314
1747664868.78,-0.059,-0.046,0.074,0.937,0.165,-0.068,-61.779,6.042,12.099
1747664868.79,-0.049,-0.010,-0.025,0.825,0.086,-0.013,-61.280,5.967,11.931
1747664868.80,-0.051,0.009,-0.038,0.750,0.026,0.105,-60.834,5.959,11.887
1747664868.81,0.010,-0.016,-0.005,0.816,0.015,0.196,-60.385,6.044,11.971
1747664868.82,0.110,-0.045,0.006,0.953,-0.013,0.228,-59.869,6.166,12.112
1747664868.83,0.192,-0.048,-0.037,1.019,-0.031,0.163,-59.294,6.242,12.215
1747664868.84,0.222,-0.029,-0.082,1.051,-0.067,0.067,-58.700,6.217,12.217
1747664868.85,0.189,-0.019,-0.042,1.033,-0.134,0.025,-58.100,6.093,12.139
1747664868.86,0.135,-0.027,0.060,0.962,-0.161,0.062,-57.532,5.948,12.070
1747664868.87,0.097,-0.032,0.057,0.836,-0.174,0.131,-57.011,5.860,12.073
1747664868.88,0.080,-0.025,-0.049,0.699,-0.291,0.188,-56.570,5.798,12.157
1747664868.89,0.060,-0.026,-0.082,0.707,-0.416,0.260,-56.162,5.723,12.313
1747664868.90,0.073,-0.039,-0.056,0.781,-0.497,0.334,-55.723,5.649,12.541
1747664868.91,0.102,-0.049,-0.013,0.888,-0.505,0.349,-55.231,5.578,12.806
1747664868.92,0.082,-0.041,0.007,1.040,-0.470,0.259,-54.667,5.478,13.024
1747664868.93,0.004,-0.006,-0.006,1.155,-0.458,0.087,-54.029,5.269,13.091
1747664868.94,-0.095,0.036,-0.021,1.088,-0.311,-0.065,-53.383,4.967,12.999
1747664868.95,-0.155,0.048,0.048,0.937,-0.039,-0.120,-52.813,4.728,12.824
1747664868.96,-0.163,0.025,0.101,0.876,-0.020,-0.092,-52.305,4.587,12.651
1747664868.97,-0.156,-0.014,-0.046,0.788,-0.179,0.028,-51.832,4.454,12.555
1747664868.98,-0.086,-0.040,-0.144,0.740,-0.223,0.215,-51.395,4.378,12.610
1747664868.99,0.074,-0.068,-0.036,0.765,-0.242,0.339,-50.956,4.410,12.820
1747664869.00,0.198,-0.084,0.057,0.868,-0.291,0.310,-50.479,4.445,13.058
1747664869.01,0.211,-0.040,0.068,0.968,-0.427,0.235,-49.943,4.380,13.238
1747664869.02,0.132,0.017,0.027,1.012,-0.499,0.144,-49.369,4.184,13.339
1747664869.03,0.050,0.048,0.009,1.048,-0.350,0.062,-48.780,3.955,13.365
1747664869.04,0.033,0.055,0.059,1.102,-0.118,0.001,-48.163,3.796,13.328
1747664869.05,0.035,0.063,0.057,1.013,-0.054,-0.024,-47.555,3.704,13.256
1747664869.06,-0.006,0.068,-0.000,0.848,-0.209,0.019,-47.026,3.589,13.199
1747664869.07,-0.070,0.039,-0.115,0.771,-0.297,0.131,-46.565,3.454,13.218
1747664869.08,-0.074,-0.021,-0.086,0.769,-0.270,0.216,-46.122,3.368,13.328
1747664869.09,-0.091,-0.062,0.037,0.842,-0.184,0.198,-45.659,3.338,13.465
1747664869.10,-0.125,-0.047,0.090,0.951,-0.126,0.093,-45.143,3.306,13.545
1747664869.11,-0.140,0.001,0.077,1.031,-0.133,-0.065,-44.574,3.212,13.512
1747664869.12,-0.138,0.053,0.048,1.100,-0.053,-0.230,-43.973,3.035,13.348
1747664869.13,-0.098,0.097,0.090,1.190,0.136,-0.352,-43.328,2.869,13.070
1747664869.14,-0.039,0.129,0.102,1.187,0.141,-0.421,-42.654,2.717,12.720
1747664869.15,-0.035,0.139,0.009,1.053,-0.019,-0.412,-42.023,2.508,12.354
1747664869.16,-0.083,0.103,-0.075,0.962,-0.215,-0.278,-41.460,2.235,12.051
1747664869.17,-0.077,0.024,-0.064,0.940,-0.223,-0.153,-40.923,1.979,11.868
1747664869.18,0.015,-0.057,0.007,0.969,-0.038,-0.114,-40.383,1.821,11.745
1747664869.19,0.084,-0.103,0.071,1.008,0.117,-0.132,-39.820,1.780,11.633
1747664869.20,0.073,-0.098,0.049,1.048,0.027,-0.194,-39.236,1.734,11.489
1747664869.21,0.035,-0.054,0.006,1.065,-0.052,-0.220,-38.637,1.607,11.312
1747664869.22,0.058,-0.005,0.108,1.098,0.122,-0.195,-38.023,1.513,11.138
1747664869.23,0.151,0.046,0.185,1.122,0.213,-0.186,-37.391,1.519,10.982
1747664869.24,0.198,0.091,0.085,1.055,0.107,-0.147,-36.767,1.531,10.837
1747664869.25,0.130,0.079,-0.042,0.950,-0.069,-0.015,-36.199,1.494,10.758
1747664869.26,0.050,0.018,-0.082,0.930,-0.167,0.141,-35.663,1.441,10.786
1747664869.27,0.032,-0.052,-0.015,0.922,-0.146,0.258,-35.132,1.424,10.914
1747664869.28,0.049,-0.083,0.006,0.934,-0.111,0.266,-34.598,1.451,11.085
1747664869.29,0.082,-0.061,-0.031,0.982,-0.139,0.208,-34.049,1.465,11.233
1747664869.30,0.104,-0.012,-0.028,1.078,-0.165,0.156,-33.460,1.435,11.338
1747664869.31,0.148,0.036,0.054,1.150,-0.154,0.113,-32.820,1.382,11.412
1747664869.32,0.181,0.063,0.121,1.202,-0.111,0.064,-32.148,1.331,11.454
1747664869.33,0.146,0.059,0.109,1.212,-0.164,0.009,-31.455,1.259,11.457
1747664869.34,0.030,0.012,-0.018,1.143,-0.254,0.031,-30.780,1.134,11.450
1747664869.35,-0.085,-0.066,-0.080,1.075,-0.257,0.131,-30.147,1.003,11.488
1747664869.36,-0.137,-0.140,-0.046,1.053,-0.110,0.235,-29.539,0.948,11.599
1747664869.37,-0.125,-0.158,0.008,1.053,0.076,0.259,-28.936,1.017,11.754
1747664869.38,-0.085,-0.091,0.032,1.086,0.112,0.220,-28.323,1.141,11.896
1747664869.39,-0.049,0.002,0.044,1.107,0.067,0.180,-27.694,1.248,12.011
1747664869.40,-0.001,0.083,0.079,1.157,-0.069,0.133,-27.042,1.288,12.092
1747664869.41,0.054,0.120,0.076,1.201,-0.097,0.136,-26.367,1.267,12.161
1747664869.42,0.120,0.125,0.084,1.236,-0.086,0.089,-25.669,1.235,12.217
1747664869.43,0.097,0.100,0.084,1.243,-0.014,0.051,-24.960,1.226,12.245
1747664869.44,0.017,0.054,0.055,1.231,-0.063,0.031,-24.252,1.206,12.251
1747664869.45,-0.079,0.005,-0.010,1.207,0.008,0.095,-23.555,1.193,12.272
1747664869.46,-0.121,-0.030,-0.036,1.226,0.038,0.159,-22.859,1.232,12.335
1747664869.47,-0.119,-0.055,-0.065,1.211,0.043,0.214,-22.159,1.297,12.434
1747664869.48,-0.078,-0.051,-0.083,1.219,0.017,0.225,-21.464,1.360,12.555
1747664869.49,0.002,-0.034,-0.029,1.272,-0.002,0.151,-20.752,1.399,12.654
1747664869.50,0.064,-0.019,0.092,1.366,-0.003,0.074,-19.999,1.413,12.703
1747664869.51,0.080,0.001,0.161,1.448,0.076,0.001,-19.192,1.431,12.705
1747664869.52,0.037,0.012,0.109,1.417,0.046,-0.040,-18.373,1.463,12.670
1747664869.53,-0.025,0.006,0.003,1.375,-0.030,-0.072,-17.569,1.459,12.606
1747664869.54,-0.069,-0.036,-0.072,1.275,-0.036,0.019,-16.815,1.431,12.572
1747664869.55,-0.071,-0.043,-0.031,1.290,0.047,0.055,-16.085,1.431,12.577
1747664869.56,-0.128,-0.029,0.033,1.304,0.153,0.024,-15.342,1.490,12.582
1747664869.57,-0.187,-0.000,0.011,1.270,0.166,-0.006,-14.606,1.578,12.567
1747664869.58,-0.185,-0.010,-0.047,1.260,0.133,-0.018,-13.884,1.655,12.537
1747664869.59,-0.085,-0.044,-0.007,1.253,0.117,0.037,-13.169,1.724,12.523
1747664869.60,0.046,-0.046,0.049,1.362,0.146,-0.132,-12.431,1.786,12.478
1747664869.61,0.116,-0.022,0.106,1.565,0.181,-0.206,-11.597,1.852,12.343
1747664869.62,0.128,0.052,0.132,1.576,0.191,-0.160,-10.695,1.939,12.206
1747664869.63,0.041,0.119,0.091,1.481,0.119,-0.093,-9.825,2.005,12.100
1747664869.64,-0.014,0.159,0.036,1.441,0.208,-0.024,-8.996,2.090,12.039
1747664869.65,-0.022,0.170,0.001,1.421,0.254,-0.006,-8.179,2.215,12.000
1747664869.66,-0.039,0.155,-0.033,1.385,0.271,0.019,-7.379,2.364,11.973
1747664869.67,-0.048,0.135,0.001,1.369,0.245,0.022,-6.594,2.506,11.951
1747664869.68,-0.027,0.095,0.044,1.424,0.267,-0.027,-5.800,2.649,11.915
1747664869.69,0.070,0.070,0.049,1.420,0.159,-0.081,-4.985,2.768,11.845
1747664869.70,0.138,0.028,0.003,1.358,0.059,-0.115,-4.196,2.819,11.749
1747664869.71,0.148,-0.054,-0.015,1.340,-0.008,-0.149,-3.429,2.825,11.634
1747664869.72,0.084,-0.169,-0.013,1.323,0.014,-0.122,-2.675,2.815,11.518
1747664869.73,0.032,-0.268,-0.037,1.327,0.135,-0.035,-1.921,2.852,11.433
1747664869.74,0.017,-0.157,-0.033,1.341,0.239,0.070,-1.161,2.961,11.406
1747664869.75,-0.020,0.134,0.026,1.357,0.255,0.133,-0.387,3.104,11.424
1747664869.76,-0.121,0.372,0.024,1.370,0.259,0.188,0.395,3.250,11.473
1747664869.77,-0.161,0.421,0.022,1.453,0.349,0.157,1.200,3.418,11.529
1747664869.78,-0.079,0.324,0.005,1.587,0.423,0.083,2.077,3.643,11.545
1747664869.79,0.056,0.111,-0.014,1.535,0.323,-0.064,2.967,3.868,11.496
1747664869.80,0.160,-0.112,-0.045,1.488,0.055,-0.133,3.823,3.985,11.374
1747664869.81,0.191,-0.383,-0.113,1.398,-0.106,-0.100,4.642,3.972,11.251
1747664869.82,0.140,-0.459,-0.090,1.343,-0.050,-0.081,5.416,3.930,11.145
1747664869.83,-0.020,-0.298,-0.077,1.369,0.156,-0.030,6.186,3.966,11.059
1747664869.84,-0.165,-0.039,-0.033,1.344,0.389,0.011,6.961,4.129,11.000
1747664869.85,-0.211,0.176,-0.045,1.375,0.587,-0.003,7.730,4.417,10.945
1747664869.86,-0.180,0.244,-0.016,1.387,0.615,0.007,8.521,4.778,10.881
1747664869.87,-0.112,0.221,0.043,1.332,0.455,0.015,9.295,5.097,10.820
1747664869.88,0.030,0.171,-0.035,1.315,0.179,-0.003,10.048,5.292,10.755
1747664869.89,0.186,0.111,-0.137,1.261,-0.145,-0.026,10.780,5.314,10.678
1747664869.90,0.258,0.056,-0.179,1.204,-0.407,-0.060,11.480,5.170,10.587
1747664869.91,0.222,-0.032,-0.184,1.165,-0.509,-0.064,12.148,4.920,10.491
1747664869.92,0.115,-0.105,-0.117,1.185,-0.384,-0.082,12.813,4.680,10.391
1747664869.93,-0.017,-0.115,-0.034,1.148,-0.161,-0.099,13.475,4.550,10.282
1747664869.94,-0.101,-0.075,-0.009,1.131,0.002,-0.081,14.118,4.533,10.175
1747664869.95,-0.106,0.003,-0.041,1.156,0.104,-0.040,14.766,4.587,10.085
1747664869.96,-0.073,0.110,-0.012,1.173,0.174,-0.025,15.427,4.687,10.011
1747664869.97,-0.043,0.182,0.009,1.188,0.211,-0.044,16.098,4.818,9.934
1747664869.98,-0.027,0.173,0.004,1.160,0.192,-0.068,16.765,4.962,9.840
1747664869.99,0.008,0.109,-0.031,1.149,0.094,-0.071,17.422,5.076,9.739
1747664870.00,0.076,-0.006,-0.082,1.069,-0.022,-0.082,18.050,5.127,9.635
1747664870.01,0.137,-0.175,-0.110,0.988,-0.142,-0.087,18.640,5.124,9.519
1747664870.02,0.177,-0.253,-0.147,0.922,-0.258,-0.053,19.177,5.036,9.429
1747664870.03,0.163,-0.221,-0.149,0.858,-0.255,-0.065,19.679,4.912,9.348
1747664870.04,0.075,-0.150,-0.111,0.841,-0.144,-0.053,20.158,4.823,9.266
1747664870.05,-0.006,-0.058,-0.044,0.849,-0.017,0.002,20.637,4.798,9.207
1747664870.06,-0.060,0.065,-0.023,0.866,0.115,0.062,21.128,4.835,9.182
1747664870.07,-0.075,0.099,-0.010,0.855,0.224,0.110,21.623,4.932,9.191
1747664870.08,-0.045,0.047,-0.021,0.794,0.209,0.126,22.100,5.049,9.219
1747664870.09,0.013,-0.039,-0.054,0.731,0.120,0.099,22.541,5.133,9.250
1747664870.10,0.084,-0.123,-0.095,0.631,0.049,0.067,22.933,5.179,9.262
1747664870.11,0.128,-0.247,-0.101,0.546,-0.042,0.059,23.271,5.178,9.266
1747664870.12,0.106,-0.187,-0.130,0.488,-0.079,0.076,23.564,5.137,9.280
1747664870.13,0.046,-0.069,-0.141,0.450,-0.121,0.113,23.836,5.067,9.310
1747664870.14,-0.012,0.013,-0.126,0.431,-0.139,0.159,24.093,4.967,9.371
1747664870.15,-0.037,0.042,-0.117,0.398,-0.132,0.160,24.339,4.856,9.450
1747664870.16,-0.045,0.024,-0.097,0.356,-0.113,0.135,24.560,4.755,9.524
1747664870.17,-0.071,-0.019,-0.076,0.332,-0.066,0.102,24.762,4.679,9.580
1747664870.18,-0.105,-0.047,-0.051,0.301,0.004,0.083,24.948,4.645,9.621
1747664870.19,-0.125,-0.054,-0.060,0.275,0.052,0.065,25.116,4.650,9.651
1747664870.20,-0.111,-0.054,-0.091,0.227,0.053,0.043,25.264,4.673,9.673
1747664870.21,-0.069,-0.052,-0.107,0.136,0.053,0.019,25.371,4.696,9.683
1747664870.22,-0.018,-0.064,-0.095,0.122,0.016,-0.004,25.438,4.721,9.680
1747664870.23,0.006,-0.073,-0.044,0.122,-0.037,-0.001,25.511,4.717,9.671
1747664870.24,0.001,-0.022,-0.011,0.060,-0.094,-0.026,25.561,4.686,9.659
1747664870.25,0.049,-0.006,-0.083,0.044,-0.131,-0.039,25.588,4.629,9.633
1747664870.26,0.031,-0.038,-0.075,0.043,-0.070,-0.019,25.611,4.576,9.613
1747664870.27,-0.037,-0.012,-0.013,0.065,0.035,-0.001,25.641,4.572,9.603
1747664870.28,-0.071,0.040,-0.015,0.064,0.092,0.020,25.680,4.609,9.606
1747664870.29,-0.039,0.036,-0.047,0.028,0.099,0.035,25.708,4.659,9.622
1747664870.30,0.024,-0.011,-0.064,-0.015,0.050,0.042,25.713,4.692,9.647
1747664870.31,0.069,-0.048,-0.042,-0.011,-0.011,0.038,25.706,4.692,9.673
1747664870.32,0.090,-0.044,-0.014,-0.010,-0.041,0.048,25.704,4.664,9.699
1747664870.33,0.090,-0.025,-0.010,-0.050,-0.053,0.060,25.689,4.622,9.735
1747664870.34,0.053,-0.039,-0.014,-0.065,-0.038,0.096,25.658,4.574,9.787
1747664870.35,0.005,-0.053,-0.006,-0.062,-0.011,0.121,25.627,4.528,9.860
1747664870.36,-0.017,-0.024,0.004,-0.051,0.007,0.116,25.598,4.490,9.940
1747664870.37,-0.012,0.019,0.001,-0.031,0.023,0.100,25.578,4.468,10.011
1747664870.38,-0.004,0.005,0.005,-0.023,-0.003,0.098,25.568,4.451,10.074
1747664870.39,0.005,-0.022,0.000,-0.042,-0.053,0.095,25.556,4.409,10.136
1747664870.40,0.016,-0.034,0.006,-0.060,-0.065,0.082,25.532,4.353,10.194
1747664870.41,0.034,-0.050,-0.001,-0.071,-0.088,0.057,25.499,4.294,10.239
1747664870.42,0.023,-0.048,-0.012,-0.077,-0.115,0.048,25.460,4.221,10.274
1747664870.43,-0.011,-0.030,-0.008,-0.067,-0.093,0.047,25.421,4.147,10.307
1747664870.44,-0.034,0.002,-0.010,-0.034,-0.080,0.038,25.396,4.084,10.336
1747664870.45,-0.063,0.023,-0.003,-0.027,-0.021,0.018,25.381,4.044,10.356
1747664870.46,-0.064,0.020,0.025,-0.044,0.026,-0.008,25.360,4.047,10.360
1747664870.47,-0.035,-0.008,0.021,-0.064,0.002,-0.015,25.328,4.058,10.354
1747664870.48,-0.021,-0.035,-0.013,-0.057,0.046,0.000,25.295,4.068,10.351
1747664870.49,-0.016,-0.031,-0.016,-0.076,0.165,-0.037,25.263,4.134,10.345
1747664870.50,-0.014,0.007,-0.040,-0.141,0.171,-0.089,25.203,4.252,10.308
1747664870.51,-0.040,-0.023,-0.134,-0.218,0.166,-0.087,25.100,4.366,10.259
1747664870.52,-0.086,-0.107,-0.195,-0.306,0.233,-0.058,24.947,4.489,10.227
1747664870.53,-0.116,-0.136,-0.173,-0.374,0.309,-0.036,24.751,4.650,10.215
1747664870.54,-0.104,-0.106,-0.158,-0.472,0.293,-0.030,24.512,4.823,10.216
1747664870.55,-0.064,-0.071,-0.161,-0.573,0.257,-0.018,24.210,4.975,10.230
1747664870.56,0.001,-0.078,-0.162,-0.656,0.201,-0.010,23.864,5.096,10.254
1747664870.57,0.072,-0.105,-0.187,-0.796,0.093,-0.013,23.449,5.169,10.288
1747664870.58,0.096,-0.117,-0.240,-0.878,-0.035,0.019,22.972,5.164,10.337
1747664870.59,0.071,-0.126,-0.263,-0.950,-0.066,0.057,22.453,5.103,10.412
1747664870.60,0.042,-0.110,-0.246,-1.042,-0.018,0.057,21.890,5.040,10.503
1747664870.61,0.012,-0.073,-0.233,-1.133,0.146,0.063,21.273,5.040,10.597
1747664870.62,-0.017,-0.053,-0.163,-1.175,0.247,0.097,20.621,5.117,10.707
1747664870.63,-0.069,-0.049,-0.103,-1.261,0.330,0.141,19.936,5.231,10.847
1747664870.64,-0.049,-0.042,-0.145,-1.338,0.291,0.129,19.201,5.362,11.002
1747664870.65,0.043,-0.067,-0.222,-1.356,0.191,0.156,18.442,5.447,11.163
1747664870.66,0.084,-0.085,-0.196,-1.396,0.099,0.179,17.669,5.473,11.345
1747664870.67,0.089,-0.050,-0.171,-1.474,0.037,0.144,16.863,5.456,11.523
1747664870.68,0.050,-0.004,-0.178,-1.518,0.027,0.112,16.017,5.426,11.683
1747664870.69,0.006,-0.009,-0.114,-1.560,0.089,0.095,15.149,5.421,11.830
1747664870.70,-0.023,-0.047,-0.033,-1.594,0.099,0.064,14.256,5.440,11.964
1747664870.71,-0.030,-0.092,-0.031,-1.635,0.117,0.046,13.341,5.474,12.087
1747664870.72,-0.000,-0.120,-0.061,-1.667,0.083,0.036,12.405,5.506,12.203
1747664870.73,0.018,-0.122,-0.059,-1.697,0.059,0.027,11.450,5.523,12.316
1747664870.74,0.041,-0.100,-0.052,-1.705,0.018,0.033,10.483,5.524,12.428
1747664870.75,0.053,-0.068,-0.074,-1.707,-0.021,0.066,9.517,5.501,12.551
1747664870.76,0.040,-0.026,-0.081,-1.734,0.000,0.058,8.542,5.472,12.683
1747664870.77,0.007,0.014,-0.058,-1.728,0.037,0.010,7.559,5.466,12.798
1747664870.78,-0.053,0.025,0.009,-1.736,0.048,-0.054,6.574,5.481,12.882
1747664870.79,-0.096,-0.004,0.028,-1.765,0.054,-0.127,5.574,5.505,12.927
1747664870.80,-0.080,-0.069,-0.010,-1.763,0.093,-0.185,4.561,5.543,12.935
1747664870.81,-0.042,-0.148,0.014,-1.729,0.142,-0.192,3.558,5.614,12.922
1747664870.82,0.001,-0.190,0.034,-1.754,0.133,-0.146,2.560,5.695,12.923
1747664870.83,0.038,-0.185,-0.001,-1.772,0.058,-0.089,1.550,5.751,12.957
1747664870.84,0.066,-0.153,-0.051,-1.803,-0.050,-0.051,0.532,5.750,13.021
1747664870.85,0.048,-0.095,-0.053,-1.827,-0.077,-0.053,-0.503,5.711,13.097
1747664870.86,0.030,-0.045,-0.034,-1.803,-0.053,-0.096,-1.539,5.673,13.159
1747664870.87,-0.000,-0.022,-0.004,-1.822,0.035,-0.118,-2.575,5.669,13.198
1747664870.88,-0.009,-0.036,0.020,-1.847,0.082,-0.116,-3.624,5.706,13.235
1747664870.89,0.002,-0.076,-0.021,-1.833,0.101,-0.114,-4.681,5.763,13.276
1747664870.90,0.000,-0.110,-0.004,-1.813,0.101,-0.121,-5.719,5.825,13.316
1747664870.91,0.001,-0.131,0.010,-1.836,0.080,-0.161,-6.765,5.880,13.343
1747664870.92,-0.016,-0.138,0.019,-1.818,0.070,-0.228,-7.815,5.919,13.340
1747664870.93,-0.063,-0.133,0.030,-1.800,0.089,-0.282,-8.858,5.959,12.844
1747664870.94,-0.089,-0.120,0.041,-1.782,0.103,-0.325,-9.892,6.002,12.777
1747664870.95,-0.082,-0.103,0.022,-1.822,0.120,-0.340,-10.934,6.050,12.233
1747664870.96,-0.051,-0.085,0.034,-1.851,0.108,-0.328,-11.999,6.101,12.152
1747664870.97,-0.003,-0.078,0.050,-1.863,0.064,-0.279,-13.072,6.138,11.628
1747664870.98,0.048,-0.087,0.047,-1.891,0.029,-0.235,-14.153,6.155,11.595
1747664870.99,0.086,-0.095,0.040,-1.865,0.009,-0.237,-15.237,6.160,11.107
1747664871.00,0.113,-0.104,0.041,-1.807,0.011,-0.235,-16.294,6.160,11.085
1747664871.01,0.129,-0.119,0.052,-1.778,0.021,-0.226,-17.325,6.161,10.586
1747664871.02,0.127,-0.126,0.042,-1.752,0.071,-0.185,-18.341,6.185,10.577
1747664871.03,0.105,-0.125,0.052,-1.723,0.132,-0.154,-19.337,6.248,10.120
1747664871.04,0.092,-0.101,0.103,-1.723,0.152,-0.122,-20.323,6.343,10.150
1747664871.05,0.078,-0.059,0.104,-1.717,0.089,-0.086,-21.306,6.433,9.985
1747664871.06,0.047,-0.020,0.027,-1.703,0.068,-0.073,-22.280,6.501,10.057
1747664871.07,0.025,0.013,-0.019,-1.688,0.085,-0.069,-23.247,6.575,10.134
1747664871.08,0.016,0.029,0.026,-1.678,0.091,-0.113,-24.207,6.651,10.201
1747664871.09,-0.011,0.029,0.090,-1.694,0.104,-0.175,-25.173,6.720,10.234
1747664871.10,-0.033,0.016,0.073,-1.731,0.019,-0.197,-26.155,6.765,10.242
1747664871.11,-0.047,-0.016,-0.017,-1.791,-0.153,-0.165,-27.167,6.732,10.256
1747664871.12,-0.024,-0.048,-0.063,-1.809,-0.184,-0.096,-28.199,6.652,10.308
1747664871.13,0.063,-0.072,-0.007,-1.773,-0.041,-0.041,-29.220,6.627,10.399
1747664871.14,0.149,-0.074,0.079,-1.745,0.042,-0.035,-30.219,6.690,10.509
1747664871.15,0.129,-0.061,0.113,-1.740,-0.075,-0.050,-31.209,6.739,10.616
1747664871.16,0.014,-0.038,0.042,-1.751,-0.154,-0.066,-32.202,6.720,10.715
1747664871.17,-0.069,-0.020,-0.009,-1.775,-0.109,-0.083,-33.207,6.692,10.804
1747664871.18,-0.079,-0.004,-0.014,-1.784,-0.062,-0.094,-34.224,6.690,10.885
1747664871.19,-0.058,-0.003,-0.013,-1.788,-0.038,-0.097,-35.242,6.705,10.963
1747664871.20,-0.040,-0.012,-0.001,-1.817,-0.001,-0.086,-36.270,6.743,11.048
1747664871.21,-0.025,-0.038,0.010,-1.838,0.006,-0.102,-37.314,6.798,11.137
1747664871.22,-0.027,-0.062,-0.032,-1.841,0.029,-0.142,-38.365,6.849,11.207
1747664871.23,-0.044,-0.085,-0.030,-1.861,0.087,-0.154,-39.425,6.915,11.260
1747664871.24,-0.045,-0.100,0.004,-1.876,0.139,-0.158,-40.496,7.015,11.314
1747664871.25,-0.047,-0.094,0.012,-1.875,0.173,-0.167,-41.569,7.139,11.367
1747664871.26,-0.053,-0.078,0.013,-1.893,0.153,-0.166,-42.649,7.271,11.421
1747664871.27,-0.045,-0.042,-0.001,-1.915,0.107,-0.148,-43.737,7.392,11.488
1747664871.28,-0.020,-0.014,0.016,-1.932,0.089,-0.113,-44.838,7.513,11.584
1747664871.29,0.022,0.012,0.080,-1.877,0.142,-0.072,-45.925,7.670,11.715
1747664871.30,0.082,0.026,0.096,-1.790,0.182,-0.046,-46.968,7.879,11.874
1747664871.31,0.139,0.028,0.053,-1.711,0.181,-0.032,-47.958,8.114,12.047
1747664871.32,0.178,0.012,-0.013,-1.691,0.118,-0.038,-48.921,8.334,12.228
1747664871.33,0.171,-0.000,-0.045,-1.708,0.046,-0.070,-49.885,8.512,12.399
1747664871.34,0.127,-0.014,0.002,-1.690,-0.003,-0.082,-50.853,8.645,12.559
1747664871.35,0.069,-0.012,0.040,-1.657,-0.020,-0.093,-51.805,8.759,12.712
1747664871.36,0.004,0.009,0.050,-1.653,-0.017,-0.128,-52.746,8.854,12.848
1747664871.37,-0.072,0.038,0.001,-1.703,-0.005,-0.176,-53.704,8.930,12.950
1747664871.38,-0.126,0.051,-0.014,-1.791,-0.044,-0.222,-54.707,8.978,13.022
1747664871.39,-0.132,0.026,0.049,-1.830,-0.151,-0.226,-55.752,8.968,13.079
1747664871.40,-0.102,-0.018,0.066,-1.788,-0.170,-0.205,-56.792,8.933,13.151
1747664871.41,-0.036,-0.062,0.078,-1.713,-0.143,-0.182,-57.798,8.917,13.238
1747664871.42,0.030,-0.085,0.114,-1.623,-0.130,-0.198,-58.753,8.904,13.313
1747664871.43,0.067,-0.074,0.065,-1.606,-0.135,-0.202,-59.681,8.881,13.373
1747664871.44,0.056,-0.042,0.041,-1.569,-0.181,-0.227,-60.597,8.825,13.411
1747664871.45,0.017,-0.003,0.025,-1.509,-0.243,-0.237,-61.486,8.706,13.416
1747664871.46,-0.017,0.032,0.006,-1.471,-0.197,-0.241,-62.347,8.563,13.403
1747664871.46,-0.001,0.042,-0.000,-1.392,-0.048,-0.273,-63.178,8.448,13.352
1747664871.48,0.022,0.018,0.003,-1.336,0.018,-0.315,-63.970,8.335,13.232
1747664871.48,0.016,-0.028,-0.025,-1.343,0.013,-0.370,-64.755,8.169,13.037
1747664871.50,0.006,-0.082,-0.050,-1.338,-0.000,-0.358,-65.545,7.954,12.796
1747664871.51,0.014,-0.137,-0.084,-1.345,0.030,-0.300,-66.327,7.777,12.593
1747664871.51,0.027,-0.167,-0.085,-1.383,0.074,-0.252,-67.120,7.688,12.465
1747664871.52,0.028,-0.167,-0.029,-1.387,0.101,-0.222,-67.922,7.670,12.392
1747664871.53,0.029,-0.141,-0.002,-1.364,0.118,-0.243,-68.718,7.672,12.324
1747664871.54,0.039,-0.092,-0.004,-1.305,0.146,-0.229,-69.494,7.662,12.236
1747664871.55,0.047,-0.033,-0.026,-1.251,0.207,-0.248,-70.232,7.665,12.131
1747664871.56,0.041,0.013,0.003,-1.270,0.194,-0.275,-70.965,7.638,11.975
1747664871.57,0.025,0.042,0.086,-1.290,0.012,-0.313,-71.713,7.493,11.755
1747664871.58,-0.001,0.044,0.089,-1.260,-0.202,-0.266,-72.459,7.209,11.519
1747664871.59,-0.032,0.033,0.035,-1.177,-0.253,-0.245,-73.167,6.890,11.327
1747664871.60,-0.052,0.009,-0.017,-1.179,-0.236,-0.303,-73.850,6.495,11.061
1747664871.61,-0.083,-0.016,-0.037,-1.179,-0.196,-0.376,-74.542,5.946,10.621
1747664871.62,-0.084,-0.048,-0.048,-1.154,-0.145,-0.399,-75.229,5.271,10.022
1747664871.63,-0.061,-0.066,-0.057,-1.055,-0.056,-0.390,-75.878,4.548,9.337
1747664871.64,-0.035,-0.073,-0.048,-0.981,0.044,-0.391,-76.471,3.825,8.596
1747664871.65,-0.019,-0.055,-0.002,-0.996,0.111,-0.381,-77.046,3.064,7.765
1747664871.66,-0.017,-0.024,0.021,-0.993,0.172,-0.320,-77.625,2.381,6.984
1747664871.67,-0.014,0.002,-0.037,-0.995,0.240,-0.289,-78.196,1.788,6.256
1747664871.68,0.002,0.022,-0.033,-1.071,0.263,-0.263,-78.791,1.246,5.555
1747664871.69,0.019,0.003,0.047,-1.099,0.310,-0.213,-79.417,0.741,4.873
1747664871.70,0.059,-0.064,0.022,-1.013,0.294,-0.121,-80.022,0.437,4.385
1747664871.71,0.118,-0.141,-0.080,-0.907,0.199,-0.103,-80.570,0.241,4.043
1747664871.72,0.140,-0.144,-0.112,-0.818,0.076,-0.146,-81.063,-0.106,3.609
1747664871.73,0.137,-0.062,-0.093,-0.718,-0.088,-0.217,-81.502,-0.805,2.906
1747664871.74,0.126,0.038,-0.118,-0.644,-0.182,-0.288,-81.885,-1.943,1.837
1747664871.75,0.108,0.115,-0.107,-0.575,-0.180,-0.342,-82.225,-3.460,0.414
1747664871.76,0.087,0.110,-0.038,-0.475,-0.147,-0.357,-82.509,-5.231,-1.281
1747664871.77,0.051,0.051,-0.015,-0.448,-0.202,-0.299,-82.747,-6.998,-2.966
1747664871.78,-0.003,-0.020,-0.030,-0.473,-0.274,-0.256,-82.986,-8.663,-4.507
1747664871.79,-0.054,-0.070,-0.020,-0.509,-0.271,-0.244,-83.239,-10.360,-6.056
1747664871.80,-0.075,-0.062,0.006,-0.538,-0.165,-0.235,-83.505,-12.153,-7.734
1747664871.81,-0.078,-0.012,0.061,-0.573,-0.044,-0.220,-83.785,-14.000,-9.532
1747664871.82,-0.098,0.030,0.104,-0.584,0.008,-0.191,-84.075,-15.885,-11.420
1747664871.83,-0.140,0.029,0.087,-0.591,0.054,-0.150,-84.368,-17.760,-13.320
1747664871.84,-0.185,-0.005,0.060,-0.557,0.187,-0.134,-84.655,-19.580,-15.217
1747664871.85,-0.196,-0.040,0.056,-0.490,0.285,-0.156,-84.907,-21.412,-17.192
1747664871.86,-0.194,-0.056,0.014,-0.423,0.431,-0.218,-85.108,-23.482,-19.474
1747664871.87,-0.154,-0.055,-0.009,-0.339,0.557,-0.271,-85.247,-25.784,-22.070
1747664871.88,-0.072,-0.012,-0.015,-0.260,0.566,-0.299,-85.326,-28.167,-24.787
1747664871.89,-0.002,0.056,-0.025,-0.225,0.484,-0.293,-85.361,-30.513,-27.446
1747664871.90,0.046,0.103,-0.020,-0.219,0.312,-0.235,-85.391,-32.701,-29.870
1747664871.91,0.080,0.108,-0.015,-0.166,0.109,-0.173,-85.420,-34.537,-31.835
1747664871.92,0.092,0.085,-0.035,-0.098,-0.093,-0.132,-85.429,-35.950,-33.253
1747664871.93,0.084,0.044,-0.055,-0.145,-0.088,-0.099,-85.442,-37.154,-34.401
1747664871.94,0.086,-0.020,-0.000,-0.303,0.062,-0.063,-85.513,-38.601,-35.844
1747664871.95,0.080,-0.098,0.109,-0.412,0.162,-0.058,-85.654,-40.586,-37.904
1747664871.96,0.033,-0.157,0.133,-0.395,0.153,-0.078,-85.803,-42.951,-40.369
1747664871.97,-0.036,-0.161,0.063,-0.320,0.140,-0.120,-85.910,-45.414,-42.922
1747664871.98,-0.080,-0.076,-0.000,-0.205,0.067,-0.146,-85.958,-47.641,-45.217
1747664871.99,-0.104,0.047,-0.044,-0.116,-0.048,-0.137,-85.957,-49.342,-46.928
1747664872.00,-0.126,0.128,-0.068,-0.089,-0.042,-0.129,-85.937,-50.678,-48.235
1747664872.01,-0.144,0.135,-0.055,-0.065,0.040,-0.135,-85.905,-51.830,-49.391
1747664872.02,-0.141,0.081,-0.038,-0.063,0.121,-0.116,-85.869,-52.782,-50.392
1747664872.03,-0.113,0.007,-0.039,-0.079,0.214,-0.092,-85.845,-53.615,-51.322
1747664872.04,-0.046,-0.050,-0.019,-0.103,0.295,-0.083,-85.835,-54.429,-52.286
1747664872.05,0.013,-0.070,0.006,-0.128,0.279,-0.080,-85.836,-55.382,-53.408
1747664872.06,0.041,-0.054,0.016,-0.104,0.213,-0.082,-85.836,-56.378,-54.549
1747664872.07,0.043,-0.018,-0.005,-0.080,0.134,-0.072,-85.828,-57.201,-55.473
1747664872.08,0.020,-0.003,-0.023,-0.072,0.138,-0.072,-85.818,-57.940,-56.288
1747664872.09,-0.011,-0.008,-0.040,-0.033,0.187,-0.057,-85.802,-58.497,-56.939
1747664872.10,-0.017,-0.014,-0.056,0.021,0.248,-0.017,-85.784,-58.562,-57.129
1747664872.11,-0.002,-0.006,-0.054,0.042,0.249,0.021,-85.774,-58.183,-56.894
1747664872.12,0.013,0.023,-0.028,0.057,0.211,0.034,-85.771,-57.618,-56.458
1747664872.13,0.016,0.035,-0.032,0.059,0.191,0.047,-85.772,-56.945,-55.897
1747664872.14,0.014,0.025,-0.014,0.037,0.179,0.045,-85.780,-56.335,-55.392
1747664872.15,0.001,-0.004,0.021,0.044,0.163,0.022,-85.786,-55.832,-54.984
1747664872.16,-0.016,-0.040,0.024,0.045,0.128,0.008,-85.777,-55.382,-54.616
1747664872.17,-0.010,-0.060,-0.004,0.021,0.105,-0.006,-85.766,-55.100,-54.399
1747664872.18,0.018,-0.050,-0.018,0.008,0.080,-0.014,-85.753,-54.987,-54.340
1747664872.19,0.042,-0.014,-0.016,0.024,0.056,-0.012,-85.739,-54.870,-54.261
1747664872.20,0.041,0.034,-0.005,0.055,0.047,-0.001,-85.722,-54.588,-54.009
1747664872.21,0.018,0.059,0.012,0.070,0.055,-0.002,-85.701,-54.150,-53.597
1747664872.22,-0.009,0.052,-0.000,0.087,0.105,-0.014,-85.671,-53.643,-53.135
1747664872.23,-0.026,0.028,-0.000,0.076,0.145,-0.015,-85.636,-53.152,-52.715
1747664872.24,-0.033,-0.010,0.011,0.038,0.184,-0.021,-85.609,-52.833,-52.490
1747664872.25,-0.037,-0.042,0.023,0.016,0.219,-0.021,-85.592,-52.692,-52.463
1747664872.26,-0.028,-0.049,0.024,0.038,0.245,-0.029,-85.572,-52.501,-52.406
1747664872.27,-0.014,-0.026,0.010,0.075,0.229,-0.032,-85.540,-52.167,-52.209
1747664872.28,-0.006,0.006,-0.000,0.127,0.174,-0.006,-85.497,-51.540,-51.697
1747664872.29,0.007,0.022,-0.011,0.153,0.107,0.029,-85.453,-50.603,-50.837
1747664872.30,0.006,0.013,0.001,0.161,0.065,0.050,-85.412,-49.523,-49.802
1747664872.31,-0.001,-0.002,0.020,0.170,0.047,0.056,-85.372,-48.379,-48.684
1747664872.32,0.004,-0.007,-0.010,0.186,0.048,0.042,-85.323,-47.231,-47.559
1747664872.33,0.015,0.002,-0.030,0.200,0.052,0.026,-85.260,-46.121,-46.474
1747664872.34,0.017,0.005,-0.027,0.214,0.046,0.012,-85.185,-45.044,-45.422
1747664872.35,0.004,-0.000,-0.015,0.228,0.010,0.017,-85.099,-43.959,-44.350
1747664872.36,-0.002,-0.005,-0.001,0.253,-0.050,0.042,-85.013,-42.769,-43.145
1747664872.37,-0.000,-0.002,0.008,0.303,-0.125,0.062,-84.917,-41.355,-41.675
1747664872.38,-0.002,0.000,-0.013,0.314,-0.163,0.078,-84.810,-39.833,-40.062
1747664872.39,0.010,-0.004,-0.008,0.294,-0.162,0.102,-84.712,-38.358,-38.486
1747664872.40,0.033,-0.017,0.023,0.304,-0.156,0.122,-84.618,-36.802,-36.832
1747664872.41,0.048,-0.028,0.023,0.350,-0.153,0.124,-84.509,-35.106,-35.041
1747664872.42,0.034,-0.023,0.033,0.413,-0.211,0.115,-84.368,-33.353,-33.177
1747664872.43,0.001,0.003,0.037,0.512,-0.291,0.109,-84.180,-31.550,-31.221
1747664872.44,-0.030,0.038,0.012,0.577,-0.331,0.107,-83.942,-29.685,-29.163
1747664872.45,-0.052,0.056,0.009,0.600,-0.294,0.105,-83.677,-27.884,-27.170
1747664872.46,-0.061,0.039,0.056,0.629,-0.226,0.114,-83.393,-26.142,-25.267
1747664872.47,-0.053,0.006,0.057,0.648,-0.211,0.131,-83.092,-24.411,-23.402
1747664872.48,-0.053,-0.020,0.049,0.627,-0.317,0.150,-82.789,-22.790,-21.622
1747664872.49,-0.061,-0.021,0.060,0.613,-0.463,0.160,-82.495,-21.348,-19.941
1747664872.50,-0.071,-0.005,0.028,0.636,-0.484,0.160,-82.195,-20.050,-18.351
1747664872.51,-0.085,-0.003,0.029,0.698,-0.336,0.172,-81.869,-18.754,-16.801
1747664872.52,-0.086,-0.023,0.049,0.794,-0.095,0.167,-81.493,-17.334,-15.242
1747664872.53,-0.090,-0.025,0.054,0.822,0.015,0.145,-81.074,-15.930,-13.804
1747664872.54,-0.118,-0.001,0.056,0.807,0.050,0.159,-80.647,-14.631,-12.508
1747664872.55,-0.136,0.013,0.057,0.809,0.021,0.182,-80.225,-13.382,-11.266
1747664872.56,-0.139,0.018,0.059,0.862,-0.059,0.181,-79.784,-12.223,-10.074
1747664872.57,-0.146,0.020,0.002,0.870,0.007,0.179,-79.317,-11.155,-8.967
1747664872.58,-0.124,0.002,0.032,0.835,0.186,0.189,-78.859,-10.102,-7.950
1747664872.59,-0.085,-0.036,0.106,0.852,0.319,0.215,-78.405,-8.997,-6.974
1747664872.60,-0.052,-0.070,0.083,0.904,0.317,0.264,-77.928,-7.809,-5.956
1747664872.61,-0.014,-0.057,0.026,0.893,0.014,0.303,-77.436,-6.664,-4.890
1747664872.62,0.020,0.008,-0.044,0.842,-0.342,0.269,-76.964,-5.807,-3.910
1747664872.63,0.033,0.052,-0.068,0.896,-0.394,0.222,-76.489,-5.246,-3.102
1747664872.64,0.073,0.027,0.003,1.057,-0.233,0.205,-75.945,-4.739,-2.395
1747664872.65,0.089,-0.019,0.048,1.215,-0.184,0.182,-75.304,-4.218,-1.741
1747664872.66,0.012,-0.028,0.010,1.232,-0.184,0.171,-74.608,-3.773,-1.168
1747664872.67,-0.080,-0.019,-0.014,1.096,-0.075,0.179,-73.947,-3.351,-0.647
1747664872.68,-0.117,-0.011,-0.018,0.928,0.071,0.173,-73.377,-2.900,-0.177
1747664872.69,-0.134,-0.012,0.001,0.826,0.227,0.174,-72.883,-2.415,0.240
1747664872.70,-0.134,-0.021,0.058,0.780,0.347,0.211,-72.431,-1.844,0.665
1747664872.71,-0.099,-0.028,0.089,0.803,0.384,0.266,-71.983,-1.170,1.150
1747664872.72,-0.051,-0.042,0.032,0.796,0.301,0.313,-71.527,-0.449,1.699
1747664872.73,0.034,-0.066,0.007,0.851,0.185,0.344,-71.062,0.243,2.287
1747664872.74,0.148,-0.071,-0.026,0.991,0.134,0.392,-70.535,0.922,2.910
1747664872.75,0.261,-0.057,-0.055,1.128,0.062,0.399,-69.925,1.574,3.543
1747664872.76,0.299,-0.020,-0.044,1.190,0.068,0.371,-69.253,2.142,4.116
1747664872.77,0.244,0.015,0.015,1.198,0.098,0.349,-68.563,2.652,4.606
1747664872.78,0.138,0.033,0.090,1.149,-0.063,0.330,-67.880,3.070,5.039
1747664872.79,-0.007,0.052,0.033,0.994,-0.225,0.298,-67.258,3.330,5.418
1747664872.80,-0.151,0.061,-0.023,0.890,-0.123,0.278,-66.715,3.536,5.757
1747664872.81,-0.188,0.020,0.012,0.902,-0.020,0.261,-66.198,3.778,6.058
1747664872.82,-0.130,-0.048,0.004,0.986,0.023,0.267,-65.652,4.032,6.337
1747664872.83,-0.020,-0.085,-0.066,1.110,0.023,0.253,-65.046,4.283,6.593
1747664872.84,0.095,-0.087,-0.069,1.315,-0.089,0.175,-64.347,4.416,6.760
1747664872.85,0.119,-0.062,-0.047,1.398,-0.170,0.051,-63.562,4.347,6.770
1747664872.86,0.054,-0.013,0.030,1.311,-0.107,0.005,-62.786,4.175,6.670
1747664872.87,-0.025,0.018,0.172,1.204,-0.028,0.045,-62.070,4.062,6.585
1747664872.88,-0.094,0.030,0.144,1.093,0.012,0.050,-61.411,4.026,6.547
1747664872.89,-0.176,0.050,-0.016,0.895,0.043,0.043,-60.841,4.012,6.517
1747664872.90,-0.200,0.051,-0.012,0.831,0.201,0.140,-60.353,4.106,6.546
1747664872.91,-0.111,0.025,0.032,0.887,0.217,0.310,-59.857,4.396,6.732
1747664872.92,0.035,-0.005,-0.011,1.032,0.062,0.344,-59.300,4.733,7.028
1747664872.93,0.119,-0.002,-0.062,1.290,-0.104,0.228,-58.627,4.907,7.243
1747664872.94,0.125,0.027,-0.039,1.483,-0.289,0.033,-57.824,4.806,7.257
1747664872.95,0.061,0.058,-0.038,1.388,-0.351,-0.160,-57.000,4.451,7.065
1747664872.96,-0.052,0.070,-0.060,1.221,-0.174,-0.285,-56.270,4.015,6.727
1747664872.97,-0.132,0.043,0.022,1.082,0.090,-0.251,-55.623,3.689,6.365
1747664872.98,-0.139,-0.021,0.108,0.953,0.329,-0.092,-55.053,3.618,6.125
1747664872.99,-0.064,-0.070,0.072,0.881,0.286,0.082,-54.531,3.751,6.062
1747664873.00,0.065,-0.085,-0.058,0.835,0.139,0.271,-54.038,3.965,6.175
1747664873.01,0.189,-0.098,-0.045,0.852,-0.007,0.428,-53.546,4.230,6.459
1747664873.02,0.270,-0.102,0.018,0.977,-0.078,0.451,-53.010,4.494,6.822
1747664873.03,0.285,-0.068,0.035,1.158,-0.151,0.336,-52.384,4.668,7.118
1747664873.04,0.204,-0.015,-0.003,1.300,-0.285,0.133,-51.672,4.643,7.244
1747664873.05,0.066,0.032,-0.036,1.352,-0.289,-0.053,-50.910,4.422,7.181
1747664873.06,-0.052,0.058,0.018,1.294,-0.193,-0.153,-50.158,4.143,6.994
1747664873.07,-0.160,0.063,0.100,1.161,-0.237,-0.143,-49.462,3.862,6.781
1747664873.08,-0.201,0.055,0.008,1.021,-0.271,-0.061,-48.845,3.599,6.629
1747664873.09,-0.112,0.025,-0.058,0.926,-0.278,0.051,-48.294,3.403,6.572
1747664873.10,0.020,-0.023,0.014,0.957,-0.356,0.178,-47.757,3.256,6.623
1747664873.11,0.136,-0.076,0.065,1.030,-0.320,0.231,-47.183,3.159,6.756
1747664873.12,0.224,-0.083,0.061,1.097,-0.355,0.202,-46.570,3.069,6.889
1747664873.13,0.203,-0.051,0.002,1.186,-0.492,0.158,-45.914,2.897,6.988
1747664873.14,0.082,-0.024,-0.039,1.226,-0.486,0.138,-45.219,2.659,7.059
1747664873.15,-0.018,-0.003,0.059,1.204,-0.284,0.136,-44.519,2.482,7.125
1747664873.16,-0.060,0.019,0.107,1.105,-0.048,0.135,-43.855,2.439,7.194
1747664873.17,-0.072,0.030,0.025,0.992,0.036,0.151,-43.254,2.496,7.269
1747664873.18,-0.053,0.013,-0.071,0.906,-0.041,0.238,-42.710,2.575,7.384
1747664873.19,0.023,-0.042,-0.068,0.910,-0.136,0.368,-42.188,2.659,7.587
1747664873.20,0.125,-0.100,-0.016,0.981,-0.152,0.431,-41.640,2.759,7.864
1747664873.21,0.168,-0.117,0.002,1.062,-0.220,0.374,-41.047,2.838,8.137
1747664873.22,0.111,-0.077,-0.010,1.111,-0.337,0.238,-40.417,2.802,8.329
1747664873.23,-0.001,-0.019,0.026,1.163,-0.354,0.108,-39.765,2.656,8.417
1747664873.24,-0.069,0.026,0.109,1.211,-0.230,0.015,-39.084,2.489,8.422
1747664873.25,-0.066,0.061,0.057,1.170,-0.057,-0.037,-38.402,2.378,8.376
1747664873.26,-0.055,0.078,-0.023,1.071,-0.015,-0.041,-37.764,2.322,8.310
1747664873.27,-0.086,0.056,-0.049,1.027,-0.079,0.046,-37.167,2.277,8.278
1747664873.28,-0.105,0.005,-0.042,0.986,-0.120,0.160,-36.591,2.247,8.326
1747664873.29,-0.070,-0.030,-0.039,0.973,-0.119,0.196,-36.029,2.240,8.430
1747664873.30,-0.014,-0.016,-0.010,1.033,-0.150,0.145,-35.455,2.220,8.526
1747664873.31,0.020,0.044,0.040,1.123,-0.140,0.067,-34.837,2.157,8.570
1747664873.32,0.042,0.100,0.145,1.230,-0.035,-0.004,-34.166,2.100,8.561
1747664873.33,0.064,0.119,0.207,1.318,0.075,-0.051,-33.437,2.084,8.510
1747664873.34,0.066,0.112,0.104,1.337,0.038,-0.059,-32.675,2.084,8.437
1747664873.35,0.033,0.074,-0.068,1.211,-0.066,-0.017,-31.946,2.047,8.379
1747664873.36,0.003,0.002,-0.167,1.086,-0.182,0.077,-31.293,1.970,8.369
1747664873.37,0.003,-0.096,-0.109,1.039,-0.204,0.215,-30.685,1.892,8.442
1747664873.38,0.051,-0.183,-0.038,0.997,-0.142,0.310,-30.098,1.869,8.595
1747664873.39,0.100,-0.196,0.025,1.017,-0.016,0.353,-29.523,1.919,8.792
1747664873.40,0.103,-0.136,0.021,1.224,0.062,0.390,-28.883,2.044,9.010
1747664873.41,0.099,-0.032,-0.014,1.488,-0.012,0.404,-28.098,2.167,9.237
1747664873.42,0.100,0.069,0.059,1.574,0.055,0.385,-27.206,2.272,9.454
1747664873.43,0.135,0.125,0.145,1.492,0.246,0.292,-26.321,2.441,9.635
1747664873.44,0.141,0.097,0.095,1.470,0.214,0.155,-25.470,2.633,9.732
1747664873.45,0.000,0.024,-0.051,1.379,0.037,0.210,-24.652,2.728,9.797
1747664873.46,-0.151,-0.051,-0.085,1.245,0.066,0.367,-23.897,2.805,9.938
1747664873.47,-0.157,-0.100,-0.023,1.191,0.245,0.474,-23.193,2.987,10.166
1747664873.48,-0.085,-0.088,0.053,1.173,0.286,0.481,-22.504,3.246,10.425
1747664873.49,-0.060,-0.026,0.042,1.154,0.205,0.447,-21.826,3.481,10.668
1747664873.50,-0.054,0.045,0.037,1.201,0.069,0.407,-21.141,3.640,10.885
1747664873.51,-0.014,0.081,0.072,1.280,-0.070,0.355,-20.419,3.705,11.071
1747664873.52,0.043,0.084,0.107,1.260,-0.152,0.239,-19.678,3.685,11.205
1747664873.53,0.081,0.075,0.028,1.174,-0.258,0.076,-18.980,3.588,11.254
1747664873.54,0.025,0.046,-0.059,1.135,-0.356,-0.003,-18.323,3.400,11.229
1747664873.55,-0.103,-0.000,-0.045,1.156,-0.285,0.007,-17.670,3.199,11.188
1747664873.56,-0.195,-0.057,0.038,1.183,-0.095,0.039,-17.004,3.082,11.164
1747664873.57,-0.205,-0.070,0.039,1.189,0.050,0.049,-16.324,3.070,11.153
1747664873.58,-0.119,-0.018,-0.027,1.157,0.091,0.078,-15.655,3.112,11.152
1747664873.59,0.006,0.058,-0.023,1.168,0.031,0.109,-14.992,3.156,11.172
1747664873.60,0.095,0.126,0.059,1.232,-0.095,0.077,-14.304,3.141,11.189
1747664873.61,0.093,0.166,0.089,1.296,-0.127,-0.001,-13.582,3.071,11.173
1747664873.62,0.063,0.169,0.092,1.296,-0.112,-0.126,-12.843,2.983,11.097
1747664873.63,0.024,0.128,-0.019,1.369,-0.034,-0.178,-12.091,2.911,10.964
1747664873.64,-0.040,0.046,-0.087,1.407,0.067,-0.225,-11.289,2.907,10.800
1747664873.65,-0.148,-0.048,-0.062,1.249,0.178,-0.179,-10.544,2.947,10.644
1747664873.66,-0.160,-0.154,-0.091,1.214,0.258,-0.167,-9.847,3.049,10.508
1747664873.67,-0.127,-0.200,-0.121,1.144,0.243,-0.113,-9.180,3.175,10.389
1747664873.68,-0.027,-0.120,-0.031,1.149,0.167,-0.065,-8.533,3.282,10.301
1747664873.69,0.064,0.057,0.067,1.211,-0.002,-0.063,-7.862,3.319,10.226
1747664873.70,0.115,0.227,0.163,1.281,-0.198,-0.099,-7.156,3.252,10.138
1747664873.71,0.142,0.299,0.133,1.346,-0.374,-0.116,-6.409,3.072,10.035
1747664873.72,0.129,0.231,0.069,1.393,-0.390,-0.129,-5.631,2.836,9.925
1747664873.73,0.104,0.099,0.052,1.360,-0.258,-0.172,-4.845,2.634,9.802
1747664873.74,0.046,-0.052,-0.049,1.302,-0.013,-0.194,-4.091,2.544,9.661
1747664873.75,-0.045,-0.198,-0.132,1.261,0.219,-0.197,-3.364,2.594,9.514
1747664873.76,-0.156,-0.271,-0.156,1.242,0.440,-0.141,-2.657,2.779,9.385
1747664873.77,-0.173,-0.199,-0.127,1.262,0.525,-0.120,-1.946,3.054,9.274
1747664873.78,-0.126,0.015,-0.043,1.256,0.531,-0.091,-1.230,3.357,9.174
1747664873.79,-0.035,0.210,0.041,1.243,0.372,-0.048,-0.520,3.616,9.090
1747664873.80,0.034,0.321,0.126,1.265,0.169,-0.035,0.193,3.767,9.022
1747664873.81,0.041,0.321,0.147,1.308,0.052,-0.101,0.922,3.830,8.938
1747664873.82,0.074,0.203,0.066,1.310,-0.109,-0.138,1.664,3.816,8.817
1747664873.83,0.129,0.035,-0.065,1.363,-0.229,-0.139,2.420,3.720,8.691
1747664873.84,0.151,-0.120,-0.146,1.324,-0.234,-0.160,3.184,3.588,8.558
1747664873.85,0.111,-0.245,-0.120,1.252,-0.148,-0.179,3.912,3.485,8.414
1747664873.86,0.006,-0.231,-0.133,1.200,0.006,-0.159,4.603,3.452,8.275
1747664873.87,-0.111,-0.138,-0.099,1.174,0.226,-0.138,5.274,3.529,8.149
1747664873.88,-0.166,-0.036,-0.009,1.168,0.359,-0.083,5.936,3.712,8.042
1747664873.89,-0.103,0.107,0.081,1.256,0.362,0.008,6.623,3.929,7.974
1747664873.90,0.002,0.301,0.184,1.241,0.259,0.037,7.344,4.115,7.940
1747664873.91,0.087,0.368,0.154,1.165,0.020,0.016,8.028,4.204,7.904
1747664873.92,0.162,0.212,-0.064,1.168,-0.267,0.023,8.694,4.135,7.866
1747664873.93,0.183,-0.007,-0.201,1.135,-0.341,0.008,9.349,3.961,7.832
1747664873.94,0.197,-0.165,-0.212,1.131,-0.326,-0.119,9.999,3.819,7.749
1747664873.95,0.116,-0.284,-0.195,1.033,-0.243,-0.094,10.603,3.669,7.649
1747664873.96,0.024,-0.239,-0.100,1.001,-0.032,-0.103,11.178,3.606,7.554
1747664873.97,-0.096,-0.192,-0.052,0.966,0.138,-0.070,11.736,3.656,7.465
1747664873.98,-0.129,-0.183,0.004,0.932,0.243,-0.016,12.276,3.781,7.406
1747664873.99,-0.062,-0.123,0.031,0.907,0.218,-0.000,12.798,3.926,7.366
1747664874.00,0.039,0.032,0.030,0.927,0.104,0.006,13.319,4.027,7.331
1747664874.01,0.091,0.215,0.012,0.949,0.009,-0.004,13.855,4.065,7.293
1747664874.02,0.100,0.296,-0.043,0.949,-0.020,-0.031,14.395,4.071,7.244
1747664874.03,0.070,0.265,-0.127,0.961,-0.041,-0.048,14.938,4.069,7.181
1747664874.04,0.006,0.167,-0.152,0.942,-0.005,-0.067,15.478,4.074,7.107
1747664874.05,-0.046,0.033,-0.136,0.913,0.030,-0.087,16.002,4.106,7.021
1747664874.06,-0.047,-0.087,-0.124,0.859,0.008,-0.075,16.506,4.142,6.932
1747664874.07,-0.011,-0.182,-0.143,0.804,-0.088,-0.069,16.975,4.144,6.855
1747664874.08,0.027,-0.126,-0.134,0.772,-0.134,-0.109,17.421,4.103,6.769
1747664874.09,0.024,-0.025,-0.072,0.746,-0.135,-0.151,17.847,4.060,6.658
1747664874.10,0.001,0.049,-0.022,0.767,-0.141,-0.141,18.272,4.018,6.536
1747664874.11,-0.033,0.102,-0.025,0.764,-0.105,-0.105,18.705,3.980,6.431
1747664874.12,-0.033,0.089,-0.058,0.759,-0.083,-0.088,19.135,3.956,6.342
1747664874.13,-0.027,0.056,-0.070,0.754,-0.064,-0.102,19.563,3.942,6.254
1747664874.14,-0.026,0.010,-0.047,0.708,0.013,-0.118,19.977,3.963,6.157
1747664874.15,-0.020,-0.062,-0.029,0.679,-0.002,-0.088,20.364,4.001,6.065
1747664874.16,-0.017,-0.105,-0.019,0.616,-0.015,-0.054,20.733,4.019,5.995
1747664874.17,0.053,-0.173,-0.034,0.554,-0.096,-0.044,21.063,4.009,5.941
1747664874.18,0.133,-0.167,-0.045,0.495,-0.206,-0.037,21.361,3.939,5.893
1747664874.19,0.146,-0.148,-0.067,0.460,-0.248,-0.049,21.630,3.821,5.848
1747664874.20,0.102,-0.111,-0.073,0.468,-0.209,-0.041,21.892,3.706,5.800
1747664874.21,0.023,-0.011,-0.051,0.489,-0.102,-0.010,22.163,3.627,5.766
1747664874.22,-0.049,0.066,-0.037,0.474,0.055,0.034,22.442,3.615,5.754
1747664874.23,-0.085,0.022,-0.035,0.384,0.226,0.063,22.688,3.692,5.767
1747664874.24,-0.069,-0.067,-0.027,0.370,0.212,0.101,22.903,3.810,5.802
1747664874.25,-0.036,-0.109,0.019,0.343,0.111,0.124,23.112,3.879,5.858
1747664874.26,0.030,-0.111,0.042,0.290,-0.008,0.087,23.298,3.889,5.912
1747664874.27,0.152,-0.126,-0.032,0.228,-0.168,0.085,23.448,3.824,5.953
1747664874.28,0.190,-0.112,-0.101,0.217,-0.290,0.093,23.577,3.671,6.001
1747664874.29,0.117,-0.014,-0.136,0.217,-0.281,0.066,23.704,3.486,6.042
1747664874.30,-0.020,0.097,-0.114,0.216,-0.127,0.055,23.829,3.354,6.070
1747664874.31,-0.154,0.093,-0.051,0.226,0.061,0.089,23.957,3.321,6.106
1747664874.32,-0.225,0.023,-0.010,0.204,0.218,0.125,24.085,3.376,6.166
1747664874.33,-0.194,-0.030,-0.005,0.156,0.318,0.074,24.191,3.509,6.225
1747664874.34,-0.082,-0.054,-0.010,0.066,0.279,-0.023,24.257,3.681,6.237
1747664874.35,0.008,-0.074,-0.093,-0.054,0.111,-0.088,24.258,3.810,6.198
1747664874.36,0.013,-0.133,-0.169,-0.085,0.001,-0.076,24.213,3.857,6.148
1747664874.37,-0.043,-0.145,-0.150,-0.149,-0.023,-0.043,24.145,3.866,6.117
1747664874.38,-0.050,-0.145,-0.153,-0.223,-0.072,-0.054,24.038,3.845,6.096
1747664874.39,-0.062,-0.086,-0.187,-0.281,-0.019,-0.079,23.892,3.829,6.066
1747664874.40,-0.078,-0.074,-0.136,-0.338,0.062,-0.074,23.712,3.855,6.030
1747664874.41,-0.072,-0.086,-0.079,-0.385,0.124,-0.041,23.504,3.916,6.010
1747664874.42,-0.036,-0.098,-0.045,-0.441,0.132,-0.029,23.268,3.994,6.007
1747664874.43,0.011,-0.065,-0.055,-0.505,0.050,-0.030,22.996,4.046,6.009
1747664874.44,0.046,-0.034,-0.096,-0.552,-0.003,-0.005,22.693,4.052,6.022
1747664874.45,0.087,-0.040,-0.118,-0.618,-0.032,0.013,22.361,4.031,6.050
1747664874.46,0.109,-0.042,-0.142,-0.689,-0.094,0.028,21.988,3.979,6.090
1747664874.47,0.087,-0.053,-0.170,-0.743,-0.104,0.056,21.581,3.898,6.146
1747664874.48,0.038,-0.067,-0.137,-0.764,0.012,0.095,21.154,3.841,6.224
1747664874.49,-0.007,-0.066,-0.080,-0.824,0.091,0.128,20.707,3.837,6.325
1747664874.49,-0.028,-0.041,-0.095,-0.868,0.144,0.158,20.230,3.861,6.446
1747664874.50,-0.024,-0.033,-0.111,-0.889,0.168,0.179,19.736,3.904,6.584
1747664874.51,-0.010,-0.029,-0.068,-0.947,0.188,0.198,19.222,3.955,6.738
1747664874.53,0.023,-0.038,-0.069,-1.020,0.176,0.208,18.668,4.007,6.902
1747664874.53,0.077,-0.081,-0.133,-1.050,0.127,0.212,18.087,4.042,7.072
1747664874.54,0.102,-0.120,-0.132,-1.136,0.060,0.182,17.474,4.045,7.237
1747664874.55,0.081,-0.141,-0.148,-1.196,0.036,0.147,16.814,4.027,7.384
1747664874.56,0.016,-0.140,-0.169,-1.192,0.082,0.154,16.139,4.018,7.523
1747664874.58,-0.062,-0.110,-0.127,-1.238,0.154,0.164,15.455,4.047,7.668
1747664874.58,-0.105,-0.053,-0.134,-1.312,0.183,0.151,14.734,4.106,7.814
1747664874.59,-0.107,-0.017,-0.147,-1.350,0.201,0.156,13.981,4.177,7.961
1747664874.60,-0.086,-0.001,-0.114,-1.399,0.263,0.156,13.206,4.275,8.113
1747664874.61,-0.033,0.009,-0.114,-1.444,0.235,0.143,12.402,4.388,8.262
1747664874.62,0.008,-0.001,-0.135,-1.493,0.160,0.167,11.574,4.469,8.417
1747664874.63,0.035,-0.038,-0.142,-1.549,0.121,0.177,10.715,4.515,8.587
1747664874.64,0.054,-0.078,-0.128,-1.581,0.135,0.170,9.832,4.556,8.758
1747664874.65,0.041,-0.111,-0.077,-1.618,0.154,0.162,8.930,4.612,8.929
1747664874.66,0.006,-0.117,-0.049,-1.675,0.127,0.113,7.999,4.670,9.087
1747664874.67,-0.021,-0.106,-0.101,-1.683,0.078,0.065,7.046,4.711,9.217
1747664874.68,-0.045,-0.077,-0.097,-1.702,0.050,0.048,6.085,4.734,9.329
1747664874.69,-0.061,-0.039,-0.054,-1.701,0.009,0.015,5.116,4.740,9.429
1747664874.70,-0.089,-0.000,-0.041,-1.720,0.014,-0.031,4.145,4.739,9.506
1747664874.71,-0.096,0.016,-0.057,-1.774,0.006,-0.039,3.147,4.744,9.567
1747664874.72,-0.057,-0.007,-0.094,-1.796,-0.032,-0.010,2.129,4.730,9.637
1747664874.73,-0.011,-0.047,-0.091,-1.798,-0.008,0.007,1.105,4.715,9.725
1747664874.74,0.035,-0.065,-0.033,-1.792,-0.025,-0.061,0.083,4.706,9.796
1747664874.75,0.005,-0.061,0.024,-1.779,-0.022,-0.179,-0.940,4.688,9.812
1747664874.76,-0.094,-0.060,0.092,-1.754,0.041,-0.283,-1.956,4.691,9.761
1747664874.77,-0.167,-0.069,0.086,-1.738,0.135,-0.359,-2.965,4.735,9.659
1747664874.78,-0.217,-0.084,0.001,-1.730,0.196,-0.394,-3.970,4.826,9.523
1747664874.79,-0.239,-0.085,-0.031,-1.753,0.139,-0.348,-4.977,4.914,9.175
1747664874.80,-0.189,-0.072,-0.104,-1.807,0.113,-0.280,-6.006,4.976,9.084
1747664874.81,-0.065,-0.064,-0.103,-1.798,0.095,-0.255,-7.047,5.027,8.645
1747664874.82,0.037,-0.067,-0.004,-1.768,0.107,-0.280,-8.075,5.076,8.583
1747664874.83,0.080,-0.068,0.050,-1.751,0.112,-0.330,-9.089,5.126,8.107
1747664874.84,0.077,-0.074,0.047,-1.776,0.124,-0.361,-10.109,5.175,7.997
1747664874.85,0.043,-0.082,0.051,-1.764,0.147,-0.343,-11.137,5.230,7.499
1747664874.86,0.015,-0.086,0.054,-1.742,0.165,-0.276,-12.148,5.301,7.412
1747664874.87,0.021,-0.062,0.046,-1.799,0.176,-0.187,-13.165,5.391,6.981
1747664874.88,0.050,-0.014,0.016,-1.832,0.116,-0.097,-14.210,5.482,6.999
1747664874.89,0.074,0.028,-0.010,-1.795,0.052,-0.058,-15.243,5.543,6.661
1747664874.90,0.111,0.057,-0.021,-1.788,0.052,-0.086,-16.264,5.590,6.724
1747664874.91,0.147,0.067,0.010,-1.781,0.007,-0.159,-17.286,5.618,6.345
1747664874.92,0.125,0.040,0.038,-1.745,-0.059,-0.228,-18.299,5.598,6.333
1747664874.93,0.063,-0.012,0.081,-1.722,-0.111,-0.273,-19.298,5.533,5.884
1747664874.94,0.022,-0.060,0.116,-1.710,-0.160,-0.279,-20.289,5.433,5.814
1747664874.95,0.012,-0.101,0.107,-1.684,-0.195,-0.238,-21.269,5.308,5.359
1747664874.96,0.028,-0.130,0.109,-1.624,-0.128,-0.185,-22.221,5.196,5.322
1747664874.97,0.058,-0.146,0.058,-1.632,-0.005,-0.161,-23.152,5.154,5.307
1747664874.98,0.049,-0.161,-0.014,-1.636,0.076,-0.139,-24.091,5.177,5.306
1747664874.99,-0.005,-0.189,-0.016,-1.606,0.128,-0.121,-25.021,5.239,5.317
1747664875.00,-0.014,-0.207,-0.018,-1.620,0.222,-0.094,-25.941,5.350,5.344
1747664875.01,0.050,-0.215,0.037,-1.616,0.257,-0.080,-26.868,5.510,5.387
1747664875.02,0.121,-0.214,0.050,-1.573,0.182,-0.065,-27.778,5.664,5.440
1747664875.03,0.159,-0.188,0.030,-1.573,0.069,-0.054,-28.673,5.765,5.503
1747664875.04,0.182,-0.141,0.024,-1.602,-0.020,-0.053,-29.578,5.812,5.574
1747664875.05,0.174,-0.094,0.031,-1.606,-0.071,-0.063,-30.493,5.821,5.643
1747664875.06,0.132,-0.060,0.048,-1.594,-0.119,-0.090,-31.409,5.796,5.701
1747664875.07,0.060,-0.043,0.052,-1.541,-0.150,-0.114,-32.307,5.738,5.736
1747664875.08,0.006,-0.036,0.019,-1.521,-0.171,-0.101,-33.180,5.662,5.766
1747664875.09,-0.012,-0.049,-0.035,-1.601,-0.192,-0.097,-34.071,5.580,5.804
1747664875.10,-0.012,-0.060,-0.038,-1.622,-0.186,-0.071,-34.995,5.497,5.852
1747664875.11,0.008,-0.078,-0.002,-1.624,-0.161,-0.044,-35.920,5.438,5.921
1747664875.12,0.017,-0.068,0.048,-1.644,-0.169,-0.016,-36.851,5.398,6.009
1747664875.13,0.003,-0.036,0.045,-1.657,-0.236,-0.003,-37.790,5.350,6.115
1747664875.14,-0.010,0.003,-0.023,-1.687,-0.365,-0.049,-38.741,5.237,6.210
1747664875.15,-0.030,0.034,-0.075,-1.708,-0.414,-0.122,-39.712,5.041,6.260
1747664875.16,-0.034,0.037,-0.065,-1.717,-0.341,-0.201,-40.694,4.817,6.249
1747664875.17,-0.007,0.004,-0.040,-1.721,-0.234,-0.264,-41.684,4.606,6.179
1747664875.18,0.007,-0.059,-0.016,-1.729,-0.151,-0.275,-42.678,4.426,6.075
1747664875.19,0.007,-0.120,0.005,-1.783,-0.101,-0.227,-43.688,4.289,5.980
1747664875.20,0.020,-0.152,0.030,-1.820,-0.004,-0.131,-44.723,4.233,5.945
1747664875.21,0.049,-0.150,0.041,-1.839,0.120,-0.048,-45.769,4.294,5.984
1747664875.22,0.085,-0.113,0.052,-1.828,0.192,0.012,-46.814,4.462,6.087
1747664875.23,0.105,-0.054,0.032,-1.787,0.182,0.046,-47.842,4.677,6.233
1747664875.24,0.111,0.009,-0.023,-1.745,0.126,0.034,-48.843,4.890,6.397
1747664875.25,0.104,0.064,-0.036,-1.717,-0.001,-0.025,-49.827,5.029,6.533
1747664875.26,0.082,0.104,-0.043,-1.721,-0.101,-0.107,-50.808,5.058,6.611
1747664875.27,0.075,0.103,-0.032,-1.728,-0.151,-0.183,-51.796,4.988,6.616
1747664875.28,0.080,0.076,0.023,-1.708,-0.184,-0.245,-52.785,4.842,6.552
1747664875.29,0.081,0.041,0.070,-1.670,-0.186,-0.258,-53.758,4.651,6.445
1747664875.30,0.068,0.019,0.084,-1.639,-0.191,-0.272,-54.710,4.439,6.315
1747664875.31,0.036,0.008,0.059,-1.636,-0.237,-0.273,-55.654,4.193,6.165
1747664875.32,-0.009,0.012,0.028,-1.639,-0.253,-0.266,-56.597,3.924,6.009
1747664875.33,-0.037,0.025,0.023,-1.645,-0.241,-0.272,-57.543,3.641,5.841
1747664875.34,-0.055,0.027,0.056,-1.634,-0.241,-0.264,-58.488,3.347,5.657
1747664875.35,-0.055,0.014,0.091,-1.596,-0.203,-0.237,-59.416,3.068,5.481
1747664875.36,-0.034,-0.004,0.092,-1.599,-0.152,-0.229,-60.331,2.820,5.311
1747664875.37,-0.013,-0.019,0.080,-1.639,-0.121,-0.240,-61.260,2.579,5.123
1747664875.38,0.005,-0.030,0.056,-1.681,-0.100,-0.245,-62.214,2.333,4.916
1747664875.39,0.022,-0.038,0.028,-1.691,-0.076,-0.281,-63.184,2.067,4.675
1747664875.40,0.023,-0.040,0.041,-1.698,-0.115,-0.309,-64.156,1.736,4.362
1747664875.41,0.020,-0.039,0.079,-1.660,-0.179,-0.295,-65.121,1.340,4.019
1747664875.42,0.023,-0.031,0.051,-1.606,-0.176,-0.267,-66.056,0.922,3.675
1747664875.43,0.036,-0.019,-0.006,-1.558,-0.129,-0.279,-66.961,0.509,3.320
1747664875.44,0.038,-0.013,-0.001,-1.534,-0.086,-0.301,-67.845,0.055,2.894
1747664875.45,0.025,-0.008,0.035,-1.495,-0.028,-0.284,-68.709,-0.404,2.435
1747664875.46,0.010,-0.005,0.040,-1.464,0.013,-0.281,-69.551,-0.852,1.958
1747664875.47,-0.009,-0.005,0.028,-1.464,0.007,-0.292,-70.383,-1.340,1.433
1747664875.48,-0.041,-0.017,0.021,-1.452,-0.027,-0.300,-71.211,-1.898,0.847
1747664875.49,-0.075,-0.041,-0.001,-1.460,-0.126,-0.306,-72.035,-2.559,0.194
1747664875.50,-0.088,-0.068,-0.023,-1.438,-0.203,-0.299,-72.855,-3.337,-0.519
1747664875.51,-0.058,-0.086,-0.050,-1.372,-0.119,-0.310,-73.644,-4.191,-1.311
1747664875.52,-0.007,-0.086,-0.037,-1.295,0.009,-0.286,-74.389,-5.030,-2.151
1747664875.53,0.017,-0.071,-0.020,-1.205,0.113,-0.269,-75.084,-5.817,-3.005
1747664875.54,0.026,-0.057,-0.001,-1.151,0.175,-0.279,-75.736,-6.600,-3.900
1747664875.55,0.018,-0.032,0.010,-1.109,0.228,-0.290,-76.354,-7.459,-4.904
1747664875.56,-0.021,-0.003,0.007,-1.131,0.222,-0.269,-76.964,-8.365,-5.971
1747664875.57,-0.065,0.003,0.010,-1.113,0.169,-0.266,-77.578,-9.350,-7.096
1747664875.58,-0.082,-0.016,-0.000,-1.104,0.179,-0.246,-78.173,-10.437,-8.306
1747664875.59,-0.078,-0.043,-0.012,-1.138,0.289,-0.201,-78.778,-11.512,-9.535
1747664875.60,-0.069,-0.054,0.051,-1.131,0.461,-0.208,-79.390,-12.585,-10.848
1747664875.61,-0.063,-0.060,0.117,-1.097,0.477,-0.219,-79.983,-13.761,-12.322
1747664875.62,-0.060,-0.063,0.093,-1.043,0.361,-0.230,-80.545,-15.140,-13.966
1747664875.63,-0.042,-0.034,-0.005,-0.996,0.234,-0.231,-81.067,-16.744,-15.761
1747664875.64,-0.008,0.014,-0.053,-0.943,0.163,-0.246,-81.555,-18.578,-17.729
1747664875.65,0.027,0.050,-0.057,-0.906,0.150,-0.263,-82.003,-20.664,-19.925
1747664875.66,0.048,0.063,-0.051,-0.877,0.157,-0.277,-82.418,-23.005,-22.374
1747664875.67,0.036,0.040,-0.011,-0.849,0.151,-0.270,-82.802,-25.578,-25.073
1747664875.68,0.002,-0.002,0.005,-0.807,0.182,-0.222,-83.160,-28.240,-27.848
1747664875.69,-0.051,-0.058,-0.008,-0.781,0.206,-0.210,-83.492,-30.938,-30.677
1747664875.70,-0.090,-0.077,0.011,-0.817,0.138,-0.242,-83.806,-34.004,-33.862
1747664875.71,-0.120,-0.072,0.009,-0.849,0.105,-0.274,-84.107,-37.717,-37.662
1747664875.72,-0.087,-0.052,-0.025,-0.826,0.191,-0.289,-84.372,-41.912,-41.961
1747664875.73,-0.014,-0.013,-0.042,-0.817,0.285,-0.270,-84.597,-46.350,-46.556
1747664875.74,0.039,0.016,-0.020,-0.790,0.352,-0.227,-84.794,-50.911,-51.320
1747664875.75,0.053,0.023,0.008,-0.715,0.310,-0.198,-84.955,-55.375,-55.993
1747664875.76,0.029,0.016,-0.037,-0.638,0.280,-0.183,-85.071,-59.591,-60.396
1747664875.77,0.002,0.013,-0.102,-0.594,0.282,-0.176,-85.148,-63.619,-64.595
1747664875.78,-0.007,0.003,-0.105,-0.541,0.294,-0.163,-85.195,-67.428,-68.585
1747664875.79,-0.005,-0.003,-0.086,-0.477,0.289,-0.156,-85.214,-70.874,-72.209
1747664875.80,-0.008,-0.006,-0.092,-0.431,0.312,-0.154,-85.208,-73.960,-75.478
1747664875.81,-0.009,-0.016,-0.067,-0.447,0.361,-0.150,-85.186,-76.870,-78.592
1747664875.82,-0.013,-0.034,-0.029,-0.500,0.351,-0.148,-85.157,-80.006,-81.944
1747664875.83,-0.014,-0.042,-0.007,-0.513,0.356,-0.136,-85.118,-83.336,-85.489
1747664875.84,-0.008,-0.047,0.005,-0.478,0.355,-0.112,-85.072,-86.503,-88.871
1747664875.85,0.003,-0.025,0.014,-0.414,0.288,-0.113,-85.019,-89.281,-91.844
1747664875.86,0.014,0.021,-0.023,-0.322,0.342,-0.234,-84.928,-91.515,-94.260
1747664875.87,0.011,0.011,-0.040,-0.304,0.421,-0.463,-84.713,-93.087,-96.058
1747664875.88,0.006,-0.129,-0.035,-0.379,0.406,-0.435,-84.437,-94.699,-97.919
1747664875.89,0.025,-0.095,-0.025,-0.418,0.260,-0.307,-84.203,-96.590,-100.012
1747664875.90,0.014,-0.063,-0.028,-0.419,0.134,-0.214,-84.026,-98.597,-102.143
1747664875.91,-0.018,-0.026,-0.020,-0.386,0.071,-0.172,-83.881,-100.530,-104.142
1747664875.92,-0.009,0.012,-0.016,-0.329,0.012,-0.171,-83.745,-102.180,-105.830
1747664875.93,0.019,0.035,-0.021,-0.253,-0.042,-0.191,-83.607,-103.447,-107.095
1747664875.94,0.042,0.032,-0.047,-0.174,-0.159,-0.177,-83.476,-104.327,-107.926
1747664875.95,0.050,0.027,-0.070,-0.095,-0.290,-0.172,-83.361,-104.876,-108.343
1747664875.96,0.021,0.027,-0.078,-0.086,-0.332,-0.155,-83.257,-105.245,-108.536
1747664875.97,-0.023,0.053,-0.043,-0.111,-0.315,-0.133,-83.161,-105.708,-108.815
1747664875.98,-0.062,0.087,0.007,-0.090,-0.318,-0.091,-83.081,-106.227,-109.158
1747664875.99,-0.089,0.109,0.031,-0.025,-0.331,-0.079,-83.026,-106.554,-109.300
1747664876.00,-0.095,0.001,0.014,0.015,-0.264,-0.066,-82.984,-106.634,-109.206
1747664876.01,-0.064,-0.051,0.001,0.038,-0.142,-0.023,-82.963,-106.572,-109.027
1747664876.02,-0.031,-0.038,-0.002,0.078,-0.086,0.044,-82.979,-106.395,-108.787
1747664876.03,-0.034,-0.005,-0.004,0.134,-0.083,0.084,-83.032,-106.063,-108.401
1747664876.04,-0.080,0.012,-0.012,0.149,-0.015,0.061,-83.095,-105.530,-107.835
1747664876.05,-0.140,0.025,0.002,0.106,0.050,0.017,-83.135,-104.988,-107.299
1747664876.06,-0.170,0.030,0.011,0.097,0.118,-0.009,-83.150,-104.493,-106.847
1747664876.07,-0.156,0.029,-0.017,0.123,0.230,-0.020,-83.157,-103.862,-106.312
1747664876.08,-0.108,0.021,-0.035,0.119,0.330,-0.009,-83.166,-103.120,-105.726
1747664876.09,-0.055,0.011,-0.025,0.094,0.417,0.015,-83.179,-102.405,-105.224
1747664876.10,-0.006,0.001,0.005,0.063,0.381,0.050,-83.206,-101.842,-104.890
1747664876.11,0.028,-0.015,0.017,0.050,0.232,0.070,-83.247,-101.468,-104.692
1747664876.12,0.038,-0.032,0.002,0.067,0.049,0.066,-83.292,-101.193,-104.495
1747664876.13,0.042,-0.045,-0.013,0.088,-0.082,0.068,-83.336,-100.886,-104.174
1747664876.14,0.061,-0.043,-0.012,0.100,-0.146,0.066,-83.380,-100.567,-103.785
1747664876.15,0.085,-0.030,0.017,0.127,-0.197,0.062,-83.425,-100.175,-103.292
1747664876.16,0.096,-0.016,0.014,0.156,-0.246,0.053,-83.470,-99.647,-102.632
1747664876.17,0.096,-0.002,-0.008,0.190,-0.258,0.050,-83.514,-98.981,-101.816
1747664876.18,0.091,0.009,-0.017,0.228,-0.284,0.055,-83.561,-98.125,-100.800
1747664876.19,0.062,0.011,-0.034,0.218,-0.347,0.059,-83.611,-97.208,-99.698
1747664876.20,0.017,0.008,-0.011,0.218,-0.411,0.071,-83.663,-96.359,-98.624
1747664876.21,-0.008,0.002,0.006,0.235,-0.462,0.098,-83.724,-95.503,-97.511
1747664876.22,-0.014,0.014,0.000,0.253,-0.516,0.131,-83.802,-94.548,-96.271
1747664876.23,-0.033,0.040,0.002,0.233,-0.553,0.149,-83.893,-93.622,-95.030
1747664876.24,-0.073,0.039,0.025,0.225,-0.486,0.147,-83.986,-92.748,-93.849
1747664876.25,-0.112,0.004,0.068,0.248,-0.341,0.135,-84.071,-91.721,-92.579
1747664876.26,-0.132,-0.036,0.099,0.292,-0.211,0.128,-84.149,-90.399,-91.093
1747664876.27,-0.134,-0.051,0.090,0.346,-0.113,0.132,-84.221,-88.700,-89.292
1747664876.28,-0.125,-0.036,0.058,0.405,-0.038,0.147,-84.292,-86.574,-87.114
1747664876.29,-0.118,0.007,0.028,0.443,-0.030,0.159,-84.359,-84.075,-84.586
1747664876.30,-0.128,0.043,0.020,0.445,-0.033,0.166,-84.419,-81.394,-81.873
1747664876.31,-0.146,0.039,0.030,0.431,0.039,0.174,-84.471,-78.691,-79.156
1747664876.32,-0.138,0.021,0.050,0.428,0.139,0.191,-84.518,-75.929,-76.432
1747664876.33,-0.107,-0.002,0.045,0.450,0.213,0.204,-84.561,-72.992,-73.584
1747664876.34,-0.072,-0.017,0.026,0.499,0.248,0.213,-84.587,-69.769,-70.480
1747664876.35,-0.028,-0.026,0.011,0.553,0.237,0.216,-84.588,-66.188,-67.023
1747664876.36,0.025,-0.023,0.001,0.593,0.178,0.219,-84.559,-62.389,-63.330
1747664876.37,0.071,-0.001,0.014,0.633,0.009,0.224,-84.497,-58.500,-59.480
1747664876.38,0.091,0.029,0.012,0.664,-0.189,0.231,-84.400,-54.625,-55.533
1747664876.39,0.086,0.046,0.003,0.665,-0.302,0.237,-84.276,-50.890,-51.636
1747664876.40,0.077,0.024,0.037,0.630,-0.348,0.220,-84.133,-47.471,-48.012
1747664876.41,0.047,-0.005,0.079,0.618,-0.296,0.196,-83.972,-44.420,-44.756
1747664876.42,0.007,-0.039,0.109,0.632,-0.237,0.195,-83.788,-41.547,-41.715
1747664876.43,-0.022,-0.060,0.120,0.678,-0.232,0.192,-83.575,-38.754,-38.770
1747664876.44,-0.048,-0.045,0.090,0.751,-0.221,0.182,-83.316,-35.988,-35.854
1747664876.45,-0.070,-0.013,0.051,0.813,-0.167,0.159,-83.004,-33.321,-33.056
1747664876.46,-0.072,0.012,0.056,0.861,-0.125,0.157,-82.644,-30.776,-30.408
1747664876.47,-0.045,0.032,0.024,0.844,-0.082,0.154,-82.262,-28.426,-27.978
1747664876.48,-0.015,0.039,-0.004,0.810,-0.083,0.148,-81.885,-26.367,-25.854
1747664876.49,0.001,0.021,0.009,0.857,-0.093,0.144,-81.494,-24.513,-23.929
1747664876.50,-0.003,-0.008,0.000,0.910,-0.150,0.149,-81.064,-22.763,-22.089
1747664876.51,-0.035,-0.018,-0.012,0.903,-0.147,0.187,-80.619,-21.104,-20.316
1747664876.52,-0.071,-0.024,-0.027,0.889,0.050,0.198,-80.177,-19.473,-18.626
1747664876.53,-0.082,-0.029,-0.009,0.903,0.267,0.172,-79.728,-17.887,-17.113
1747664876.54,-0.085,-0.024,0.033,0.934,0.356,0.129,-79.252,-16.426,-15.810
1747664876.55,-0.084,-0.021,0.010,0.920,0.422,0.098,-78.760,-15.142,-14.729
1747664876.56,-0.049,-0.016,0.021,0.908,0.444,0.113,-78.270,-13.973,-13.791
1747664876.57,0.024,-0.012,0.045,0.971,0.427,0.163,-77.770,-12.783,-12.829
1747664876.58,0.093,-0.003,0.043,1.025,0.336,0.216,-77.232,-11.532,-11.775
1747664876.59,0.110,0.021,0.055,1.036,0.173,0.221,-76.678,-10.371,-10.734
1747664876.60,0.054,0.024,0.062,1.040,0.065,0.225,-76.115,-9.370,-9.769
1747664876.61,-0.011,-0.008,0.049,1.057,0.068,0.251,-75.547,-8.439,-8.844
1747664876.62,-0.041,-0.045,0.039,1.083,0.074,0.267,-74.960,-7.515,-7.932
1747664876.63,-0.063,-0.062,-0.018,1.035,0.099,0.257,-74.377,-6.657,-7.088
1747664876.64,-0.070,-0.062,-0.060,0.994,0.230,0.206,-73.819,-5.876,-6.371
1747664876.65,-0.025,-0.054,-0.009,1.055,0.387,0.101,-73.249,-5.208,-5.863
1747664876.66,0.028,-0.046,0.031,1.179,0.354,-0.003,-72.615,-4.724,-5.588
1747664876.67,0.053,-0.034,0.003,1.247,0.112,-0.022,-71.920,-4.449,-5.444
1747664876.68,0.041,-0.008,-0.063,1.221,-0.087,0.049,-71.213,-4.275,-5.259
1747664876.69,0.015,0.009,-0.084,1.072,0.034,0.171,-70.561,-3.987,-4.924
1747664876.70,-0.004,-0.002,-0.003,0.914,0.350,0.240,-70.005,-3.440,-4.461
1747664876.71,-0.003,-0.030,0.072,0.886,0.445,0.248,-69.504,-2.751,-3.979
1747664876.72,-0.009,-0.048,0.014,0.946,0.331,0.275,-68.988,-2.080,-3.502
1747664876.73,-0.001,-0.044,-0.055,1.011,0.240,0.331,-68.437,-1.431,-2.977
1747664876.74,0.045,-0.033,-0.035,1.183,0.202,0.346,-67.819,-0.791,-2.423
1747664876.75,0.105,-0.033,-0.002,1.387,0.147,0.331,-67.083,-0.206,-1.897
1747664876.76,0.147,-0.026,-0.026,1.426,0.117,0.259,-66.274,0.260,-1.473
1747664876.77,0.144,-0.016,0.039,1.375,0.022,0.193,-65.471,0.572,-1.176
1747664876.78,0.051,-0.025,0.049,1.273,-0.005,0.172,-64.713,0.775,-0.953
1747664876.79,-0.068,-0.053,-0.015,1.192,0.004,0.191,-64.007,0.969,-0.741
1747664876.80,-0.136,-0.066,-0.059,1.032,-0.046,0.233,-63.368,1.174,-0.497
1747664876.81,-0.134,-0.055,-0.020,0.931,0.024,0.301,-62.809,1.437,-0.189
1747664876.82,-0.013,-0.040,0.043,0.985,0.098,0.375,-62.262,1.820,0.198
1747664876.83,0.138,-0.024,0.069,1.127,-0.050,0.380,-61.651,2.213,0.618
1747664876.84,0.213,0.007,0.094,1.318,-0.285,0.296,-60.947,2.426,0.971
1747664876.85,0.227,0.050,0.057,1.456,-0.472,0.119,-60.145,2.359,1.144
1747664876.86,0.190,0.084,0.004,1.439,-0.618,-0.012,-59.315,2.039,1.134
1747664876.87,0.087,0.086,0.002,1.416,-0.679,-0.049,-58.500,1.583,1.044
1747664876.88,-0.041,0.067,-0.018,1.333,-0.492,-0.006,-57.714,1.182,0.976
1747664876.89,-0.151,0.035,0.017,1.211,-0.260,0.064,-56.985,0.976,0.980
1747664876.90,-0.239,-0.000,0.032,1.049,-0.176,0.158,-56.341,0.933,1.075
1747664876.91,-0.262,-0.045,0.021,1.013,-0.075,0.295,-55.754,1.032,1.284
1747664876.92,-0.159,-0.086,0.015,1.040,0.022,0.436,-55.165,1.307,1.634
1747664876.93,0.007,-0.093,0.079,1.136,0.080,0.453,-54.539,1.683,2.057
1747664876.94,0.101,-0.058,0.075,1.227,0.003,0.328,-53.855,2.000,2.408
1747664876.95,0.136,-0.004,0.007,1.264,-0.202,0.170,-53.137,2.095,2.598
1747664876.96,0.140,0.037,-0.045,1.210,-0.226,0.120,-52.424,2.033,2.688
1747664876.97,0.110,0.045,0.035,1.120,-0.054,0.129,-51.760,2.014,2.765
1747664876.98,0.055,0.042,0.126,1.121,-0.003,0.172,-51.119,2.083,2.864
1747664876.99,-0.009,0.039,0.022,1.098,-0.107,0.262,-50.480,2.172,3.020
1747664877.00,-0.064,0.035,-0.038,1.059,-0.137,0.368,-49.858,2.286,3.264
1747664877.01,-0.068,0.024,0.009,1.069,-0.081,0.427,-49.244,2.461,3.579
1747664877.02,-0.018,0.003,0.020,1.152,-0.059,0.399,-48.602,2.663,3.900
1747664877.03,0.020,-0.022,0.005,1.243,-0.108,0.278,-47.908,2.802,4.145
1747664877.04,0.024,-0.032,-0.030,1.253,-0.185,0.129,-47.188,2.804,4.265
1747664877.05,0.013,-0.031,-0.036,1.232,-0.122,0.014,-46.477,2.714,4.272
1747664877.06,0.019,-0.028,0.038,1.198,0.092,-0.033,-45.783,2.661,4.214
1747664877.07,0.036,-0.026,0.107,1.095,0.145,-0.012,-45.128,2.693,4.146
1747664877.08,0.010,-0.019,0.027,0.992,-0.020,0.110,-44.534,2.727,4.146
1747664877.09,-0.040,-0.024,-0.066,0.892,-0.182,0.267,-43.993,2.738,4.255
1747664877.10,-0.009,-0.030,-0.046,0.881,-0.157,0.446,-43.481,2.811,4.508
1747664877.11,0.088,-0.015,0.027,0.967,-0.096,0.542,-42.942,2.983,4.862
1747664877.12,0.147,0.025,0.079,1.105,-0.085,0.423,-42.336,3.166,5.201
1747664877.13,0.141,0.095,0.079,1.181,-0.209,0.294,-41.669,3.234,5.423
1747664877.14,0.089,0.148,0.057,1.210,-0.245,0.197,-40.980,3.183,5.557
1747664877.15,0.051,0.154,0.113,1.260,-0.104,0.164,-40.270,3.132,5.637
1747664877.16,0.066,0.142,0.120,1.185,0.047,0.173,-39.561,3.167,5.711
1747664877.17,0.047,0.116,-0.019,1.048,-0.020,0.197,-38.920,3.240,5.799
1747664877.18,-0.068,0.059,-0.116,0.974,-0.196,0.291,-38.338,3.258,5.932
1747664877.19,-0.171,-0.023,-0.128,0.945,-0.205,0.402,-37.781,3.267,6.146
1747664877.20,-0.170,-0.084,-0.038,0.991,-0.095,0.407,-37.219,3.338,6.405
1747664877.21,-0.138,-0.077,0.011,1.065,-0.007,0.287,-36.622,3.436,6.614
1747664877.22,-0.130,-0.014,0.002,1.137,-0.001,0.107,-35.987,3.491,6.706
1747664877.23,-0.126,0.053,0.053,1.190,-0.060,-0.033,-35.321,3.458,6.679
1747664877.24,-0.100,0.083,0.130,1.211,-0.069,-0.121,-34.638,3.357,6.574
1747664877.25,-0.043,0.086,0.082,1.227,0.021,-0.195,-33.948,3.252,6.419
1747664877.26,-0.006,0.059,0.004,1.121,-0.054,-0.188,-33.282,3.143,6.237
1747664877.27,0.001,0.012,-0.063,1.058,-0.158,-0.050,-32.668,3.013,6.111
1747664877.28,0.042,-0.047,-0.083,1.017,-0.184,0.111,-32.076,2.903,6.098
1747664877.29,0.079,-0.092,-0.048,1.043,-0.099,0.157,-31.487,2.855,6.159
1747664877.30,0.065,-0.080,0.004,1.089,-0.069,0.124,-30.873,2.840,6.217
1747664877.31,-0.002,-0.057,0.025,1.105,-0.076,0.109,-30.244,2.819,6.257
1747664877.32,-0.023,-0.048,0.055,1.113,-0.012,0.096,-29.608,2.806,6.290
1747664877.33,0.047,-0.047,0.082,1.161,0.125,0.049,-28.960,2.846,6.303
1747664877.34,0.147,-0.033,0.116,1.231,0.141,-0.005,-28.275,2.916,6.278
1747664877.35,0.196,-0.011,0.044,1.256,-0.001,-0.027,-27.565,2.937,6.226
1747664877.36,0.165,-0.020,-0.037,1.210,-0.072,-0.015,-26.864,2.879,6.174
1747664877.37,0.119,-0.053,-0.095,1.078,-0.174,0.026,-26.206,2.790,6.136
1747664877.38,0.065,-0.095,-0.107,0.989,-0.196,0.108,-25.619,2.685,6.147
1747664877.39,-0.026,-0.101,-0.047,0.985,-0.057,0.147,-25.057,2.629,6.200
1747664877.40,-0.124,-0.065,0.049,1.049,0.107,0.155,-24.473,2.673,6.264
1747664877.41,-0.196,-0.020,0.094,1.140,0.191,0.138,-23.846,2.785,6.325
1747664877.42,-0.170,0.038,0.085,1.282,0.207,0.070,-23.152,2.914,6.355
1747664877.43,-0.044,0.104,0.122,1.424,0.161,-0.032,-22.379,3.007,6.323
1747664877.44,0.089,0.157,0.150,1.480,0.046,-0.124,-21.547,3.034,6.227
1747664877.45,0.189,0.186,0.088,1.428,-0.135,-0.190,-20.716,2.971,6.079
1747664877.46,0.207,0.146,0.003,1.379,-0.264,-0.049,-19.925,2.809,5.958
1747664877.47,0.223,0.048,-0.008,1.297,-0.282,0.146,-19.153,2.646,5.948
1747664877.48,0.220,-0.063,-0.085,1.170,-0.224,0.286,-18.446,2.534,6.049
1747664877.49,0.176,-0.139,-0.116,1.094,-0.186,0.394,-17.794,2.472,6.224
1747664877.50,0.084,-0.160,-0.050,1.058,-0.146,0.453,-17.171,2.446,6.454
1747664877.51,0.003,-0.098,0.013,1.099,-0.050,0.445,-16.549,2.459,6.696
1747664877.51,-0.037,-0.014,0.080,1.236,0.040,0.387,-15.874,2.520,6.915
1747664877.53,-0.027,0.041,0.149,1.402,0.089,0.289,-15.112,2.600,7.082
1747664877.54,0.006,0.065,0.124,1.503,0.171,0.185,-14.274,2.700,7.181
1747664877.55,0.032,0.044,0.008,1.547,0.148,0.143,-13.401,2.808,7.231
1747664877.55,-0.016,-0.017,-0.126,1.617,0.082,0.209,-12.492,2.880,7.282
1747664877.56,-0.090,-0.096,-0.101,1.578,0.305,0.369,-11.568,3.005,7.403
1747664877.57,-0.008,-0.113,0.018,1.463,0.573,0.438,-10.689,3.300,7.592
1747664877.59,0.107,-0.059,0.017,1.489,0.640,0.423,-9.842,3.681,7.797
1747664877.59,0.129,0.033,-0.022,1.353,0.325,0.475,-9.013,3.978,7.998
1747664877.60,0.112,0.078,-0.028,1.257,0.225,0.485,-8.252,4.165,8.226
1747664877.61,0.080,0.047,-0.043,1.192,0.151,0.397,-7.538,4.300,8.427
1747664877.62,-0.022,-0.061,-0.034,1.164,0.132,0.388,-6.851,4.399,8.597
1747664877.63,-0.119,-0.155,-0.018,1.158,0.141,0.445,-6.172,4.496,8.784
1747664877.64,-0.172,-0.141,0.017,1.097,0.164,0.434,-5.508,4.607,8.988
1747664877.66,-0.190,-0.030,0.028,1.104,0.108,0.379,-4.867,4.704,9.170
1747664877.66,-0.199,0.078,-0.034,1.111,0.077,0.331,-4.217,4.767,9.320
1747664877.68,-0.183,0.129,-0.045,1.059,0.070,0.258,-3.586,4.816,9.437
1747664877.68,-0.132,0.087,-0.091,1.034,0.036,0.166,-2.978,4.853,9.507
1747664877.69,-0.089,0.002,-0.124,0.970,-0.017,0.085,-2.404,4.861,9.529
1747664877.70,-0.042,-0.100,-0.176,0.978,-0.068,0.054,-1.847,4.833,9.519
1747664877.71,-0.018,-0.173,-0.144,0.954,0.016,0.030,-1.295,4.814,9.498
1747664877.72,-0.020,-0.128,-0.007,0.945,0.072,-0.013,-0.756,4.844,9.457
1747664877.73,-0.044,0.022,0.032,0.973,0.047,-0.011,-0.211,4.878,9.401
1747664877.74,-0.102,0.168,0.053,1.006,0.043,0.054,0.352,4.902,9.365
1747664877.75,-0.131,0.271,0.080,1.042,0.087,0.068,0.940,4.938,9.352
1747664877.76,-0.124,0.310,0.060,1.040,0.090,0.019,1.533,4.994,9.327
1747664877.77,-0.066,0.252,-0.035,1.050,0.008,-0.034,2.129,5.024,9.271
1747664877.78,0.013,0.132,-0.115,1.012,-0.088,-0.084,2.713,5.006,9.186
1747664877.79,0.078,0.021,-0.107,1.009,-0.191,-0.154,3.282,4.931,9.069
1747664877.80,0.073,-0.057,-0.077,1.006,-0.239,-0.204,3.846,4.814,8.918
1747664877.81,0.039,-0.113,-0.017,0.973,-0.193,-0.244,4.399,4.701,8.742
1747664877.82,0.025,-0.122,-0.009,0.953,-0.168,-0.228,4.936,4.612,8.561
1747664877.83,0.014,-0.101,-0.039,0.935,-0.135,-0.189,5.462,4.540,8.399
1747664877.84,-0.003,-0.015,-0.038,0.947,-0.069,-0.161,5.990,4.493,8.256
1747664877.85,-0.021,0.115,-0.007,0.979,-0.009,-0.136,6.532,4.485,8.128
1747664877.86,-0.058,0.203,0.017,0.981,0.054,-0.130,7.085,4.514,8.009
1747664877.87,-0.070,0.217,0.014,0.978,0.037,-0.143,7.637,4.560,7.887
1747664877.88,-0.028,0.146,-0.018,0.996,-0.049,-0.166,8.191,4.573,7.753
1747664877.89,0.043,0.034,-0.068,1.023,-0.135,-0.268,8.760,4.571,7.583
1747664877.90,0.127,-0.068,-0.101,0.931,-0.287,-0.243,9.294,4.479,7.392
1747664877.91,0.194,-0.173,-0.080,0.923,-0.356,-0.276,9.814,4.319,7.204
1747664877.92,0.118,-0.213,-0.047,0.863,-0.242,-0.327,10.308,4.184,6.989
1747664877.93,0.024,-0.188,-0.011,0.878,-0.096,-0.281,10.789,4.125,6.773
1747664877.94,-0.056,-0.095,-0.014,0.897,0.091,-0.201,11.286,4.157,6.597
1747664877.95,-0.073,0.100,0.014,0.902,0.186,-0.132,11.791,4.269,6.462
1747664877.96,-0.046,0.262,0.036,0.928,0.186,-0.078,12.308,4.398,6.361
1747664877.97,0.005,0.291,0.023,0.954,0.119,-0.069,12.841,4.507,6.277
1747664877.98,0.070,0.214,-0.039,0.923,-0.018,-0.079,13.374,4.558,6.190
1747664877.99,0.129,0.095,-0.126,0.887,-0.165,-0.086,13.887,4.525,6.100
1747664878.00,0.160,-0.033,-0.179,0.838,-0.221,-0.151,14.376,4.435,5.990
1747664878.01,0.139,-0.151,-0.169,0.773,-0.225,-0.172,14.826,4.343,5.858
1747664878.02,0.099,-0.214,-0.146,0.716,-0.202,-0.153,15.243,4.253,5.728
1747664878.03,0.037,-0.158,-0.117,0.688,-0.158,-0.141,15.636,4.181,5.611
1747664878.04,-0.002,-0.065,-0.053,0.674,-0.085,-0.140,16.018,4.142,5.498
1747664878.05,-0.027,0.023,0.014,0.681,-0.031,-0.129,16.397,4.141,5.389
1747664878.06,-0.052,0.083,0.042,0.721,-0.008,-0.086,16.792,4.157,5.295
1747664878.07,-0.060,0.149,0.027,0.734,0.017,-0.073,17.205,4.182,5.217
1747664878.08,-0.032,0.165,-0.004,0.724,0.023,-0.071,17.618,4.218,5.141
1747664878.09,0.007,0.077,-0.062,0.704,-0.015,-0.058,18.021,4.244,5.071
1747664878.10,0.042,-0.042,-0.107,0.672,-0.070,-0.049,18.409,4.238,5.010
1747664878.11,0.062,-0.090,-0.101,0.594,-0.105,-0.085,18.769,4.210,4.942
1747664878.12,0.089,-0.150,-0.084,0.561,-0.191,-0.101,19.091,4.154,4.858
1747664878.13,0.093,-0.100,-0.075,0.580,-0.238,-0.097,19.413,4.058,4.773
1747664878.14,0.063,-0.028,-0.024,0.575,-0.217,-0.128,19.738,3.956,4.681
1747664878.15,-0.011,-0.003,0.029,0.570,-0.120,-0.135,20.059,3.895,4.576
1747664878.16,-0.091,0.021,0.036,0.572,-0.051,-0.098,20.380,3.881,4.481
1747664878.17,-0.125,0.033,0.021,0.575,0.026,-0.059,20.705,3.898,4.409
1747664878.18,-0.106,0.016,-0.004,0.563,0.057,-0.038,21.027,3.944,4.357
1747664878.19,-0.020,0.007,-0.063,0.545,0.010,-0.042,21.341,3.980,4.311
1747664878.20,0.046,-0.000,-0.111,0.512,-0.012,-0.062,21.641,3.999,4.257
1747664878.21,0.078,-0.045,-0.109,0.461,-0.027,-0.077,21.916,4.012,4.192
1747664878.22,0.056,-0.080,-0.076,0.418,-0.080,-0.063,22.162,4.006,4.130
1747664878.23,0.010,-0.079,-0.047,0.378,-0.081,-0.030,22.388,3.975,4.083
1747664878.24,-0.002,-0.057,-0.034,0.347,-0.085,-0.005,22.594,3.940,4.057
1747664878.25,0.018,-0.013,-0.052,0.324,-0.132,-0.001,22.784,3.883,4.042
1747664878.26,0.007,0.028,-0.062,0.327,-0.128,-0.011,22.970,3.814,4.026
1747664878.27,-0.020,0.041,-0.086,0.319,-0.081,-0.032,23.154,3.762,3.999
1747664878.28,-0.064,0.017,-0.096,0.306,0.077,-0.022,23.331,3.771,3.968
1747664878.29,-0.088,-0.024,-0.056,0.240,0.162,-0.020,23.489,3.855,3.943
1747664878.30,-0.075,-0.048,-0.074,0.128,0.122,-0.006,23.593,3.945,3.926
1747664878.31,-0.036,-0.085,-0.115,0.081,0.046,-0.009,23.651,3.994,3.919
1747664878.32,0.013,-0.108,-0.101,0.020,0.007,-0.017,23.678,4.017,3.909
1747664878.33,0.042,-0.098,-0.092,-0.004,-0.075,-0.016,23.681,4.000,3.897
1747664878.34,0.028,-0.020,-0.134,-0.027,0.011,-0.030,23.673,3.980,3.885
1747664878.35,-0.020,-0.012,-0.085,-0.103,0.120,-0.066,23.635,4.033,3.858
1747664878.36,-0.076,-0.021,-0.078,-0.163,0.170,-0.056,23.557,4.130,3.824
1747664878.37,-0.117,-0.076,-0.098,-0.256,0.197,-0.046,23.438,4.243,3.803
1747664878.38,-0.104,-0.144,-0.129,-0.361,0.190,-0.062,23.260,4.360,3.785
1747664878.39,-0.051,-0.184,-0.131,-0.441,0.125,-0.059,23.029,4.459,3.767
1747664878.40,-0.003,-0.173,-0.114,-0.534,0.032,-0.068,22.749,4.509,3.752
1747664878.41,0.032,-0.148,-0.147,-0.597,-0.047,-0.077,22.424,4.511,3.734
1747664878.42,0.051,-0.125,-0.179,-0.672,-0.079,-0.079,22.059,4.478,3.717
1747664878.43,0.019,-0.097,-0.149,-0.757,-0.053,-0.068,21.649,4.444,3.706
1747664878.44,-0.026,-0.101,-0.129,-0.831,0.034,-0.039,21.195,4.433,3.710
1747664878.45,-0.050,-0.142,-0.121,-0.905,0.133,0.005,20.701,4.470,3.741
1747664878.46,-0.045,-0.151,-0.123,-0.972,0.195,0.067,20.168,4.541,3.808
1747664878.47,-0.028,-0.118,-0.151,-1.068,0.225,0.108,19.593,4.628,3.911
1747664878.48,0.017,-0.105,-0.173,-1.154,0.208,0.118,18.964,4.712,4.034
1747664878.49,0.066,-0.130,-0.150,-1.207,0.181,0.114,18.299,4.781,4.163
1747664878.50,0.101,-0.149,-0.109,-1.285,0.133,0.088,17.594,4.836,4.287
1747664878.51,0.117,-0.133,-0.108,-1.347,0.059,0.066,16.849,4.857,4.398
1747664878.52,0.081,-0.114,-0.127,-1.410,0.054,0.088,16.066,4.855,4.512
1747664878.53,0.026,-0.094,-0.109,-1.457,0.056,0.120,15.257,4.848,4.646
1747664878.54,-0.030,-0.054,-0.128,-1.487,0.101,0.144,14.422,4.855,4.797
1747664878.55,-0.052,-0.009,-0.137,-1.495,0.124,0.163,13.583,4.879,4.962
1747664878.56,-0.049,0.031,-0.136,-1.537,0.133,0.155,12.729,4.915,5.134
1747664878.57,-0.027,0.047,-0.140,-1.559,0.113,0.109,11.853,4.952,5.289
1747664878.58,-0.035,0.023,-0.088,-1.566,0.126,0.079,10.967,4.993,5.423
1747664878.59,-0.036,-0.017,-0.021,-1.570,0.128,0.055,10.079,5.045,5.540
1747664878.60,-0.011,-0.044,-0.035,-1.593,0.087,0.058,9.183,5.089,5.652
1747664878.61,0.010,-0.036,-0.056,-1.616,0.049,0.083,8.274,5.107,5.775
1747664878.62,0.012,-0.008,-0.075,-1.615,0.058,0.092,7.359,5.119,5.909
1747664878.63,-0.007,0.022,-0.084,-1.636,0.040,0.084,6.440,5.134,6.043
1747664878.64,-0.051,0.040,-0.093,-1.654,0.004,0.060,5.508,5.132,6.170
1747664878.65,-0.089,0.029,-0.096,-1.670,0.065,0.024,4.563,5.139,6.279
1747664878.66,-0.083,-0.011,-0.030,-1.656,0.125,-0.015,3.616,5.188,6.367
1747664878.67,-0.077,-0.072,0.033,-1.658,0.156,-0.023,2.675,5.264,6.442
1747664878.68,-0.049,-0.119,0.050,-1.660,0.137,-0.026,1.729,5.348,6.516
1747664878.69,0.003,-0.132,0.017,-1.639,0.070,-0.027,0.791,5.405,6.589
1747664878.70,0.016,-0.107,0.007,-1.618,0.072,-0.030,-0.137,5.444,6.662
1747664878.71,0.016,-0.058,0.024,-1.612,0.079,-0.057,-1.057,5.487,6.727
1747664878.72,-0.021,-0.010,0.002,-1.628,0.106,-0.111,-1.982,5.540,6.769
1747664878.73,-0.102,0.028,-0.039,-1.629,0.165,-0.171,-2.915,5.616,6.779
1747664878.74,-0.191,0.030,-0.024,-1.628,0.242,-0.225,-3.851,5.733,6.758
1747664878.75,-0.188,-0.009,-0.038,-1.633,0.269,-0.259,-4.791,5.876,6.713
1747664878.76,-0.109,-0.079,-0.037,-1.654,0.299,-0.263,-5.738,6.034,6.661
1747664878.77,-0.003,-0.144,0.009,-1.658,0.253,-0.249,-6.696,6.190,6.617
1747664878.78,0.070,-0.170,0.005,-1.651,0.173,-0.260,-7.650,6.306,6.394
1747664878.79,0.064,-0.146,-0.005,-1.663,0.115,-0.298,-8.608,6.381,6.340
1747664878.80,0.017,-0.091,0.010,-1.642,0.090,-0.335,-9.568,6.424,5.918
1747664878.81,-0.038,-0.042,0.040,-1.636,0.121,-0.355,-10.518,6.467,5.824
1747664878.82,-0.054,-0.011,0.034,-1.678,0.132,-0.341,-11.482,6.522,5.400
1747664878.83,-0.039,-0.015,0.019,-1.680,0.158,-0.314,-12.457,6.587,5.321
1747664878.84,-0.014,-0.048,0.009,-1.678,0.242,-0.280,-13.430,6.687,4.909
1747664878.85,0.026,-0.085,0.013,-1.652,0.276,-0.285,-14.392,6.825,4.861
1747664878.86,0.042,-0.107,0.012,-1.630,0.291,-0.338,-15.343,6.971,4.444
1747664878.87,0.028,-0.111,0.028,-1.619,0.287,-0.389,-16.288,7.111,4.347
1747664878.88,0.005,-0.107,0.042,-1.630,0.249,-0.441,-17.238,7.230,3.872
1747664878.89,-0.031,-0.094,0.048,-1.641,0.180,-0.473,-18.195,7.306,3.722
1747664878.90,-0.056,-0.080,0.040,-1.705,0.110,-0.434,-19.177,7.342,3.191
1747664878.91,-0.024,-0.071,0.004,-1.700,0.061,-0.357,-20.172,7.355,3.086
1747664878.92,0.041,-0.061,0.016,-1.653,0.082,-0.330,-21.147,7.366,2.838
1747664878.93,0.100,-0.037,0.065,-1.625,0.124,-0.346,-22.100,7.396,2.762
1747664878.94,0.139,-0.027,0.084,-1.600,0.133,-0.357,-23.040,7.437,2.674
1747664878.95,0.134,-0.044,0.068,-1.532,0.122,-0.356,-23.952,7.472,2.580
1747664878.96,0.100,-0.072,0.022,-1.526,0.108,-0.364,-24.843,7.497,2.482
1747664878.97,0.081,-0.095,-0.055,-1.575,0.104,-0.343,-25.747,7.518,2.388
1747664878.98,0.068,-0.121,-0.035,-1.593,0.088,-0.293,-26.669,7.541,2.319
1747664878.99,0.064,-0.143,0.033,-1.579,0.142,-0.238,-27.587,7.588,2.284
1747664879.00,0.062,-0.143,0.114,-1.559,0.171,-0.192,-28.491,7.680,2.283
1747664879.01,0.054,-0.119,0.144,-1.521,0.114,-0.194,-29.377,7.769,2.294
1747664879.02,0.055,-0.073,0.097,-1.505,0.053,-0.196,-30.246,7.818,2.300
1747664879.03,0.082,-0.025,0.061,-1.526,0.020,-0.203,-31.118,7.844,2.308
1747664879.04,0.096,0.002,0.007,-1.541,-0.096,-0.207,-32.005,7.824,2.311
1747664879.05,0.085,0.007,-0.093,-1.515,-0.161,-0.172,-32.885,7.755,2.324
1747664879.06,0.081,-0.011,-0.096,-1.532,-0.153,-0.129,-33.757,7.684,2.363
1747664879.07,0.082,-0.031,-0.004,-1.548,-0.050,-0.106,-34.638,7.659,2.426
1747664879.08,0.086,-0.054,0.098,-1.562,0.028,-0.095,-35.526,7.698,2.501
1747664879.09,0.077,-0.076,0.095,-1.551,0.038,-0.063,-36.413,7.774,2.594
1747664879.10,0.037,-0.096,0.061,-1.540,0.018,-0.025,-37.291,7.863,2.713
1747664879.11,-0.002,-0.099,0.009,-1.569,-0.032,0.004,-38.168,7.949,2.859
1747664879.12,-0.012,-0.088,-0.076,-1.641,-0.078,0.004,-39.076,8.021,3.026
1747664879.13,0.001,-0.075,-0.082,-1.655,-0.107,-0.022,-40.010,8.075,3.192
1747664879.14,0.012,-0.065,-0.033,-1.630,-0.138,-0.063,-40.943,8.096,3.334
1747664879.15,0.011,-0.046,-0.014,-1.594,-0.176,-0.085,-41.860,8.084,3.452
1747664879.16,0.014,-0.021,-0.031,-1.608,-0.216,-0.125,-42.770,8.036,3.545
1747664879.17,0.006,-0.003,-0.036,-1.682,-0.256,-0.162,-43.711,7.943,3.611
1747664879.18,-0.003,0.004,-0.003,-1.715,-0.246,-0.158,-44.687,7.842,3.670
1747664879.19,0.005,-0.008,0.061,-1.710,-0.243,-0.135,-45.667,7.752,3.741
1747664879.20,0.011,-0.020,0.064,-1.725,-0.212,-0.106,-46.647,7.687,3.834
1747664879.21,0.024,-0.020,0.046,-1.772,-0.182,-0.075,-47.642,7.667,3.956
1747664879.22,0.038,-0.019,0.016,-1.834,-0.136,-0.069,-48.669,7.683,4.103
1747664879.23,0.040,-0.008,-0.001,-1.870,-0.064,-0.082,-49.725,7.743,4.254
1747664879.24,0.025,0.012,0.039,-1.833,-0.080,-0.110,-50.783,7.812,4.395
1747664879.25,-0.007,0.042,0.033,-1.777,-0.118,-0.122,-51.812,7.847,4.513
1747664879.26,-0.019,0.072,0.024,-1.736,-0.116,-0.131,-52.815,7.862,4.619
1747664879.27,0.010,0.087,0.036,-1.674,-0.086,-0.151,-53.790,7.878,4.709
1747664879.28,0.043,0.078,0.028,-1.626,-0.129,-0.183,-54.738,7.868,4.769
1747664879.29,0.058,0.044,0.030,-1.561,-0.211,-0.213,-55.654,7.788,4.789
1747664879.30,0.071,0.000,0.023,-1.526,-0.294,-0.240,-56.544,7.628,4.772
1747664879.31,0.085,-0.030,-0.006,-1.519,-0.377,-0.267,-57.424,7.388,4.716
1747664879.32,0.084,-0.050,0.003,-1.502,-0.430,-0.284,-58.301,7.081,4.626
1747664879.33,0.074,-0.058,0.039,-1.446,-0.414,-0.288,-59.155,6.735,4.508
1747664879.34,0.073,-0.050,0.025,-1.463,-0.333,-0.307,-59.996,6.396,4.364
1747664879.35,0.062,-0.035,0.046,-1.487,-0.229,-0.309,-60.855,6.086,4.192
1747664879.36,0.029,-0.025,0.067,-1.484,-0.175,-0.276,-61.716,5.828,4.027
1747664879.37,0.001,-0.014,0.049,-1.518,-0.200,-0.233,-62.582,5.607,3.897
1747664879.38,-0.013,-0.008,0.049,-1.532,-0.181,-0.178,-63.461,5.431,3.824
1747664879.39,0.008,-0.015,0.031,-1.521,-0.154,-0.177,-64.338,5.305,3.789
1747664879.40,0.032,-0.019,0.016,-1.510,-0.175,-0.220,-65.210,5.138,3.706
1747664879.41,0.020,-0.022,0.027,-1.491,-0.222,-0.242,-66.077,4.900,3.567
1747664879.42,-0.006,-0.029,-0.006,-1.428,-0.238,-0.272,-66.922,4.589,3.374
1747664879.43,-0.040,-0.031,-0.047,-1.339,-0.232,-0.309,-67.721,4.203,3.102
1747664879.44,-0.073,-0.025,-0.057,-1.329,-0.203,-0.334,-68.492,3.749,2.749
1747664879.45,-0.092,-0.028,-0.016,-1.308,-0.075,-0.356,-69.258,3.274,2.329
1747664879.46,-0.079,-0.040,0.021,-1.308,0.040,-0.388,-70.012,2.805,1.836
1747664879.47,-0.055,-0.049,0.037,-1.379,0.070,-0.442,-70.790,2.268,1.231
1747664879.48,-0.048,-0.053,0.054,-1.416,0.080,-0.424,-71.600,1.664,0.546
1747664879.49,-0.033,-0.041,0.045,-1.352,0.032,-0.383,-72.398,1.044,-0.141
1747664879.50,-0.033,-0.021,0.032,-1.298,-0.080,-0.325,-73.155,0.408,-0.792
1747664879.51,-0.037,-0.008,-0.004,-1.283,-0.074,-0.279,-73.892,-0.217,-1.392
1747664879.52,-0.009,-0.018,-0.006,-1.260,-0.009,-0.287,-74.616,-0.828,-2.005
1747664879.53,0.011,-0.028,0.003,-1.221,-0.005,-0.331,-75.323,-1.538,-2.737
1747664879.54,-0.014,-0.032,-0.029,-1.189,-0.010,-0.377,-76.002,-2.433,-3.656
1747664879.55,-0.044,-0.036,-0.067,-1.190,0.031,-0.373,-76.670,-3.457,-4.714
1747664879.56,-0.077,-0.035,-0.056,-1.181,0.106,-0.358,-77.331,-4.525,-5.852
1747664879.57,-0.083,-0.025,-0.025,-1.132,0.137,-0.354,-77.974,-5.644,-7.069
1747664879.58,-0.054,-0.015,-0.037,-1.066,0.191,-0.358,-78.575,-6.859,-8.402
