Time,AccX,AccY,AccZ,GyroX,GyroY,GyroZ,Pitch,Roll,Yaw
1747665012.92,-0.038,0.037,0.031,0.002,0.052,-0.137,-77.314,-1.056,-14.243
1747665012.93,-0.036,0.033,0.043,0.008,0.038,-0.137,-77.307,-1.391,-14.613
1747665012.94,-0.032,0.029,0.053,0.023,0.025,-0.124,-77.294,-1.717,-14.964
1747665012.94,-0.025,0.018,0.057,0.027,0.018,-0.086,-77.276,-2.003,-15.270
1747665012.95,-0.015,0.010,0.049,0.012,0.020,0.010,-77.264,-2.066,-15.343
1747665012.96,0.005,0.042,0.045,-0.001,0.031,-0.043,-77.263,-2.093,-15.387
1747665012.97,-0.008,0.036,0.034,0.001,-0.002,-0.087,-77.266,-2.266,-15.574
1747665012.98,-0.005,-0.003,0.008,0.003,-0.024,-0.075,-77.266,-2.504,-15.807
1747665012.99,0.019,-0.019,-0.003,0.018,-0.040,-0.056,-77.264,-2.706,-15.994
1747665013.00,0.034,-0.021,-0.010,0.016,-0.036,-0.055,-77.259,-2.888,-16.157
1747665013.01,0.029,-0.012,-0.015,0.000,-0.023,-0.065,-77.262,-3.079,-16.333
1747665013.02,0.013,-0.012,-0.021,-0.002,0.019,-0.077,-77.273,-3.283,-16.540
1747665013.03,-0.005,-0.018,-0.032,0.003,0.049,-0.075,-77.280,-3.468,-16.749
1747665013.04,-0.015,-0.028,-0.041,0.027,0.058,-0.059,-77.276,-3.600,-16.918
1747665013.05,-0.002,-0.030,-0.047,0.033,0.079,-0.026,-77.261,-3.666,-17.024
1747665013.06,0.029,-0.024,-0.040,0.030,0.101,-0.015,-77.244,-3.645,-17.057
1747665013.07,0.059,-0.008,-0.030,0.030,0.098,-0.019,-77.225,-3.611,-17.083
1747665013.08,0.069,0.005,-0.023,0.024,0.059,-0.009,-77.208,-3.577,-17.096
1747665013.09,0.065,0.003,-0.013,0.018,0.020,-0.002,-77.195,-3.547,-17.089
1747665013.10,0.059,-0.009,-0.001,0.015,-0.026,0.004,-77.180,-3.532,-17.072
1747665013.11,0.057,-0.022,-0.005,0.019,-0.077,0.018,-77.164,-3.537,-17.046
1747665013.12,0.058,-0.032,-0.002,0.012,-0.120,0.033,-77.148,-3.537,-16.987
1747665013.13,0.065,-0.035,-0.009,0.024,-0.141,0.049,-77.130,-3.505,-16.876
1747665013.14,0.066,-0.023,-0.028,0.039,-0.129,0.040,-77.107,-3.441,-16.732
1747665013.15,0.040,-0.002,-0.035,0.060,-0.105,0.007,-77.076,-3.388,-16.611
1747665013.16,-0.016,0.021,-0.026,0.094,-0.078,-0.037,-77.029,-3.424,-16.597
1747665013.17,-0.091,0.036,-0.032,0.109,-0.028,-0.065,-76.967,-3.547,-16.692
1747665013.18,-0.146,0.038,-0.032,0.085,0.068,-0.066,-76.910,-3.679,-16.839
1747665013.19,-0.164,0.023,0.008,0.073,0.163,-0.047,-76.864,-3.737,-16.967
1747665013.20,-0.151,-0.004,0.023,0.078,0.211,-0.030,-76.818,-3.700,-17.040
1747665013.21,-0.120,-0.013,0.007,0.063,0.237,-0.018,-76.776,-3.617,-17.087
1747665013.22,-0.065,-0.003,0.007,0.061,0.272,0.010,-76.742,-3.468,-17.084
1747665013.23,0.003,-0.011,0.030,0.081,0.275,0.043,-76.703,-3.234,-17.004
1747665013.24,0.044,-0.007,0.049,0.103,0.257,0.055,-76.651,-2.950,-16.868
1747665013.25,0.052,0.004,0.062,0.125,0.196,0.049,-76.588,-2.685,-16.730
1747665013.26,0.041,0.016,0.057,0.161,0.092,0.031,-76.506,-2.502,-16.626
1747665013.27,0.027,0.023,0.018,0.170,0.026,0.018,-76.411,-2.406,-16.559
1747665013.28,0.024,0.025,0.006,0.188,0.030,0.009,-76.311,-2.358,-16.524
1747665013.29,0.023,0.021,0.021,0.230,0.045,0.001,-76.193,-2.317,-16.504
1747665013.30,0.008,0.021,0.016,0.249,0.043,-0.003,-76.055,-2.281,-16.492
1747665013.31,-0.020,0.019,0.006,0.258,0.070,-0.008,-75.911,-2.240,-16.482
1747665013.32,-0.048,0.018,-0.000,0.267,0.146,-0.015,-75.762,-2.180,-16.483
1747665013.33,-0.067,0.015,0.022,0.279,0.228,-0.002,-75.608,-2.066,-16.477
1747665013.34,-0.077,0.005,0.054,0.297,0.252,0.035,-75.446,-1.867,-16.418
1747665013.35,-0.082,-0.010,0.078,0.316,0.182,0.073,-75.274,-1.602,-16.274
1747665013.36,-0.083,-0.026,0.048,0.342,0.113,0.109,-75.087,-1.302,-16.051
1747665013.37,-0.064,-0.032,-0.004,0.370,0.124,0.127,-74.886,-0.970,-15.773
1747665013.38,-0.012,-0.031,-0.009,0.433,0.187,0.123,-74.660,-0.603,-15.485
1747665013.39,0.030,-0.023,-0.015,0.496,0.242,0.103,-74.394,-0.237,-15.232
1747665013.40,0.024,-0.003,-0.036,0.537,0.267,0.064,-74.100,0.083,-15.052
1747665013.41,-0.022,0.022,-0.048,0.603,0.277,0.036,-73.774,0.330,-14.956
1747665013.42,-0.073,0.041,-0.057,0.615,0.295,0.019,-73.424,0.537,-14.910
1747665013.43,-0.100,0.042,-0.040,0.596,0.321,0.027,-73.079,0.741,-14.881
1747665013.44,-0.096,0.016,0.006,0.625,0.318,0.073,-72.731,0.996,-14.807
1747665013.45,-0.069,-0.026,0.041,0.667,0.297,0.151,-72.360,1.350,-14.620
1747665013.46,-0.026,-0.062,0.045,0.661,0.283,0.221,-71.976,1.820,-14.300
1747665013.47,0.026,-0.080,0.034,0.637,0.249,0.236,-71.602,2.335,-13.921
1747665013.48,0.074,-0.082,0.023,0.668,0.168,0.199,-71.227,2.777,-13.582
1747665013.49,0.106,-0.066,0.000,0.730,0.016,0.156,-70.824,3.066,-13.332
1747665013.50,0.120,-0.039,-0.044,0.791,-0.101,0.118,-70.385,3.195,-13.167
1747665013.51,0.118,-0.011,-0.069,0.809,-0.135,0.117,-69.926,3.231,-13.050
1747665013.52,0.110,0.013,-0.035,0.889,-0.051,0.114,-69.439,3.281,-12.937
1747665013.53,0.063,0.026,-0.010,0.904,0.062,0.111,-68.921,3.375,-12.841
1747665013.54,-0.020,0.019,0.011,0.866,0.104,0.111,-68.412,3.508,-12.752
1747665013.55,-0.100,-0.007,-0.017,0.793,0.092,0.138,-67.933,3.665,-12.644
1747665013.56,-0.142,-0.038,-0.063,0.717,0.121,0.191,-67.497,3.880,-12.476
1747665013.57,-0.125,-0.066,-0.036,0.672,0.181,0.260,-67.094,4.205,-12.217
1747665013.58,-0.039,-0.089,0.007,0.683,0.157,0.316,-66.698,4.625,-11.871
1747665013.59,0.078,-0.092,0.033,0.752,0.015,0.335,-66.275,5.024,-11.491
1747665013.60,0.159,-0.060,-0.002,0.831,-0.137,0.315,-65.808,5.315,-11.133
1747665013.61,0.199,-0.016,-0.013,0.905,-0.217,0.272,-65.300,5.479,-10.843
1747665013.62,0.190,0.019,0.016,0.965,-0.242,0.277,-64.755,5.569,-10.596
1747665013.63,0.118,0.034,0.025,1.043,-0.250,0.274,-64.167,5.640,-10.528
1747665013.64,-0.020,0.054,-0.006,1.026,-0.212,0.224,-63.562,5.677,-10.335
1747665013.65,-0.155,0.066,-0.003,0.970,-0.041,0.142,-62.984,5.699,-10.375
1747665013.66,-0.240,0.061,0.030,0.887,0.174,0.067,-62.449,5.748,-10.364
1747665013.67,-0.289,0.041,0.064,0.859,0.282,0.047,-61.954,5.848,-10.715
1747665013.68,-0.285,0.011,0.049,0.880,0.268,0.080,-61.456,5.976,-10.750
1747665013.69,-0.214,-0.006,-0.005,0.921,0.256,0.135,-60.939,6.137,-11.047
1747665013.70,-0.086,-0.009,0.013,0.959,0.268,0.146,-60.396,6.330,-10.996
1747665013.71,0.044,0.009,0.045,1.001,0.248,0.080,-59.828,6.485,-11.317
1747665013.72,0.106,0.044,0.042,0.982,0.133,0.070,-59.260,6.558,-11.360
1747665013.73,0.109,0.075,0.027,0.977,0.011,0.070,-58.700,6.556,-11.715
1747665013.74,0.071,0.078,0.061,1.003,-0.085,0.064,-58.135,6.487,-11.768
1747665013.75,0.019,0.071,0.091,1.019,-0.095,0.061,-57.557,6.386,-12.127
1747665013.76,-0.037,0.059,0.053,1.027,-0.047,0.084,-56.972,6.305,-12.175
1747665013.77,-0.058,0.035,0.040,1.013,0.030,0.140,-56.383,6.302,-12.463
1747665013.78,-0.060,-0.000,0.027,0.935,0.116,0.076,-55.821,6.348,-12.461
1747665013.79,-0.062,-0.006,0.015,0.880,0.077,0.027,-55.308,6.370,-12.797
1747665013.80,-0.080,-0.010,0.007,0.920,-0.040,0.076,-54.795,6.330,-12.857
1747665013.81,-0.067,-0.004,-0.040,0.909,-0.030,0.071,-54.269,6.296,-13.028
1747665013.82,-0.005,0.024,0.001,0.928,-0.035,-0.041,-53.745,6.225,-13.122
1747665013.83,0.042,0.051,0.038,0.992,-0.040,-0.032,-53.204,6.090,-13.258
1747665013.84,0.087,0.057,0.054,1.043,0.016,0.000,-52.625,5.990,-13.375
1747665013.85,0.088,0.044,0.104,1.038,0.067,0.045,-52.030,5.948,-13.458
1747665013.86,0.070,0.005,0.097,0.962,0.067,0.098,-51.456,5.966,-13.487
1747665013.87,0.062,-0.044,0.004,0.873,0.041,0.149,-50.930,6.017,-13.462
1747665013.88,0.058,-0.080,-0.025,0.868,0.016,0.215,-50.427,6.096,-13.382
1747665013.89,0.060,-0.095,-0.007,0.897,-0.009,0.302,-49.909,6.209,-13.235
1747665013.90,0.063,-0.084,0.020,0.921,-0.034,0.244,-49.376,6.321,-13.077
1747665013.91,0.075,-0.024,0.015,0.942,-0.095,0.171,-48.833,6.350,-12.987
1747665013.92,0.067,0.029,-0.044,0.953,-0.150,0.099,-48.288,6.300,-12.962
1747665013.93,0.019,0.052,-0.060,1.002,-0.219,0.049,-47.730,6.172,-12.993
1747665013.94,-0.039,0.053,-0.053,1.049,-0.220,0.017,-47.144,5.993,-13.058
1747665013.95,-0.045,0.033,-0.029,1.049,-0.081,-0.013,-46.546,5.840,-13.147
1747665013.96,-0.013,0.010,0.042,0.964,0.089,-0.030,-45.973,5.769,-13.250
1747665013.97,-0.004,-0.024,0.048,0.862,0.138,0.021,-45.456,5.780,-13.334
1747665013.98,0.008,-0.048,0.023,0.780,0.044,0.161,-44.984,5.840,-13.322
1747665013.99,0.030,-0.071,0.015,0.731,0.027,0.210,-44.546,5.915,-13.238
1747665014.00,0.101,-0.070,0.064,0.748,0.065,0.284,-44.112,6.039,-13.102
1747665014.01,0.173,-0.072,0.085,0.814,-0.058,0.313,-43.651,6.165,-12.930
1747665014.02,0.167,-0.035,0.021,0.874,-0.212,0.321,-43.151,6.207,-12.754
1747665014.03,0.122,0.027,-0.046,0.916,-0.332,0.316,-42.622,6.167,-12.580
1747665014.04,0.072,0.080,-0.053,0.928,-0.336,0.293,-42.079,6.077,-12.422
1747665014.05,0.005,0.109,0.047,0.981,-0.234,0.243,-41.523,6.000,-12.292
1747665014.06,-0.071,0.110,0.081,0.992,-0.122,0.199,-40.944,5.956,-12.206
1747665014.07,-0.135,0.071,0.043,0.924,-0.066,0.205,-40.391,5.947,-12.131
1747665014.08,-0.167,-0.003,0.021,0.894,0.040,0.246,-39.862,5.999,-12.036
1747665014.09,-0.125,-0.120,0.000,0.862,0.109,0.339,-39.346,6.141,-11.890
1747665014.10,-0.003,-0.180,0.010,0.871,0.180,0.376,-38.833,6.346,-11.694
1747665014.11,0.110,-0.156,-0.009,0.911,0.176,0.309,-38.306,6.561,-11.513
1747665014.12,0.143,-0.069,-0.005,0.992,-0.024,0.126,-37.732,6.668,-11.473
1747665014.13,0.062,0.004,-0.010,1.046,-0.070,0.226,-37.142,6.669,-11.428
1747665014.14,0.046,0.109,0.013,1.044,-0.155,0.214,-36.534,6.642,-11.353
1747665014.15,-0.072,0.148,-0.037,1.041,-0.161,0.154,-35.929,6.576,-11.310
1747665014.16,-0.159,0.137,0.011,1.020,-0.151,0.118,-35.335,6.489,-11.297
1747665014.17,-0.169,0.090,0.045,0.981,0.031,0.082,-34.759,6.451,-11.307
1747665014.18,-0.128,0.039,0.083,0.993,0.028,0.047,-34.198,6.458,-11.338
1747665014.19,-0.098,0.004,0.070,1.008,0.042,0.032,-33.627,6.440,-11.389
1747665014.20,-0.063,-0.043,0.039,1.027,0.109,0.022,-33.048,6.464,-11.449
1747665014.21,-0.019,-0.017,0.062,1.065,0.001,0.010,-32.454,6.452,-11.517
1747665014.22,0.024,0.017,0.030,1.084,0.035,-0.017,-31.845,6.417,-11.600
1747665014.23,0.054,0.054,0.027,1.104,-0.046,-0.049,-31.227,6.360,-11.705
1747665014.24,0.046,0.070,0.040,1.122,-0.070,-0.047,-30.599,6.263,-11.821
1747665014.25,0.028,0.068,0.049,1.113,0.004,-0.016,-29.966,6.189,-11.921
1747665014.26,0.014,0.020,0.043,1.133,0.014,-0.004,-29.331,6.159,-12.008
1747665014.27,-0.032,0.013,0.036,1.137,0.075,0.069,-28.682,6.153,-12.061
1747665014.28,-0.042,0.004,0.026,1.107,0.098,0.042,-28.042,6.183,-12.104
1747665014.29,0.003,0.032,0.031,1.072,0.134,0.054,-27.421,6.218,-12.150
1747665014.30,0.030,0.039,0.037,1.091,0.129,0.105,-26.806,6.294,-12.175
1747665014.31,0.066,0.029,0.050,1.109,0.064,0.174,-26.172,6.351,-12.163
1747665014.32,0.105,-0.035,0.047,1.130,0.063,0.195,-25.527,6.402,-12.124
1747665014.33,0.117,0.002,0.043,1.203,0.102,0.177,-24.854,6.464,-12.088
1747665014.34,0.098,0.024,0.054,1.228,0.124,0.181,-24.149,6.535,-12.062
1747665014.35,0.031,0.030,0.050,1.215,0.198,0.186,-23.444,6.629,-12.035
1747665014.36,-0.051,0.020,0.025,1.207,0.229,0.179,-22.742,6.786,-12.013
1747665014.37,-0.089,0.007,0.015,1.246,0.183,0.177,-22.040,6.906,-11.990
1747665014.38,-0.044,0.035,0.001,1.275,0.108,0.198,-21.312,6.999,-11.977
1747665014.39,-0.002,-0.004,-0.020,1.303,0.072,0.233,-20.562,7.059,-11.925
1747665014.40,0.004,-0.004,-0.006,1.326,0.031,0.068,-19.808,7.080,-11.942
1747665014.41,0.080,0.031,0.043,1.321,0.042,0.051,-19.051,7.073,-12.007
1747665014.42,0.118,-0.014,0.043,1.294,0.075,0.072,-18.309,7.087,-12.069
1747665014.43,0.108,-0.029,0.029,1.288,0.162,0.142,-17.567,7.137,-12.105
1747665014.44,0.050,-0.103,0.026,1.306,0.260,0.210,-16.824,7.258,-12.099
1747665014.45,-0.011,-0.044,0.032,1.378,0.253,0.295,-16.045,7.416,-12.052
1747665014.46,-0.005,0.040,-0.026,1.383,0.302,0.307,-15.238,7.590,-11.979
1747665014.47,0.029,0.111,-0.007,1.361,0.270,0.306,-14.438,7.777,-11.909
1747665014.48,0.075,0.150,0.011,1.403,0.119,0.334,-13.635,7.905,-11.832
1747665014.49,0.117,0.152,0.030,1.451,-0.021,0.307,-12.799,7.952,-11.760
1747665014.50,0.108,0.139,0.040,1.633,0.085,-0.030,-11.926,8.012,-11.782
1747665014.51,0.015,0.061,0.023,1.434,-0.135,0.143,-11.071,7.939,-11.881
1747665014.52,0.039,-0.083,0.061,1.424,-0.008,0.172,-10.251,7.897,-11.895
1747665014.53,-0.014,-0.133,-0.010,1.425,0.124,0.166,-9.434,7.916,-11.915
1747665014.54,-0.090,-0.132,-0.035,1.478,0.343,0.181,-8.601,8.052,-11.930
1747665014.55,-0.081,-0.012,-0.064,1.565,0.533,0.191,-7.722,8.310,-11.952
1747665014.56,-0.129,0.167,-0.053,1.481,0.493,0.262,-6.842,8.595,-11.951
1747665014.57,-0.109,0.245,-0.012,1.555,0.563,0.233,-5.970,8.896,-11.938
1747665014.58,-0.078,0.224,-0.029,1.526,0.483,0.172,-5.069,9.211,-11.966
1747665014.59,-0.047,0.161,-0.019,1.419,0.314,0.142,-4.231,9.442,-12.014
1747665014.60,-0.003,0.123,-0.001,1.404,0.169,0.133,-3.425,9.576,-12.066
1747665014.61,0.041,-0.057,-0.021,1.400,0.105,0.043,-2.628,9.641,-12.148
1747665014.62,0.077,-0.032,-0.011,1.335,-0.051,0.029,-1.851,9.648,-12.264
1747665014.63,0.094,-0.018,-0.074,1.370,-0.103,0.067,-1.090,9.599,-12.364
1747665014.64,0.023,0.065,-0.051,1.376,0.002,0.073,-0.306,9.563,-12.455
1747665014.65,-0.113,0.156,-0.038,1.379,0.212,0.075,0.474,9.623,-12.544
1747665014.66,-0.215,0.209,-0.025,1.394,0.382,0.080,1.265,9.796,-12.634
1747665014.67,-0.279,0.194,-0.026,1.349,0.543,0.034,2.047,10.080,-12.737
1747665014.68,-0.245,0.092,-0.011,1.310,0.451,-0.035,2.789,10.365,-12.870
1747665014.69,-0.126,-0.031,-0.022,1.303,0.317,-0.100,3.518,10.597,-13.046
1747665014.70,0.009,-0.107,-0.076,1.303,0.158,-0.154,4.231,10.742,-13.253
1747665014.71,0.155,-0.198,-0.129,1.238,-0.206,-0.198,4.931,10.738,-13.490
1747665014.72,0.202,-0.193,-0.141,1.215,-0.372,-0.244,5.592,10.589,-13.744
1747665014.73,0.170,-0.126,-0.088,1.173,-0.397,-0.250,6.240,10.392,-14.010
1747665014.74,0.074,-0.068,-0.045,1.131,-0.292,-0.224,6.860,10.219,-14.263
1747665014.75,-0.036,-0.025,0.025,1.142,-0.094,-0.152,7.479,10.136,-14.487
1747665014.76,-0.116,0.022,0.083,1.131,0.097,-0.076,8.109,10.164,-14.668
1747665014.77,-0.120,0.094,0.068,1.742,0.942,-0.239,8.898,10.512,-14.871
1747665014.78,-0.077,-0.117,-0.180,0.821,0.169,-0.029,9.524,10.731,-15.079
1747665014.79,0.031,0.089,0.261,1.209,0.145,0.010,10.127,10.844,-15.190
1747665014.80,0.087,0.214,-0.188,1.005,0.026,-0.084,10.735,10.922,-15.334
1747665014.81,0.114,0.032,-0.088,1.004,-0.026,-0.048,11.294,10.954,-15.486
1747665014.82,0.155,-0.111,-0.073,0.921,-0.119,-0.043,11.826,10.935,-15.614
1747665014.83,0.141,-0.066,-0.055,0.917,-0.163,-0.046,12.338,10.881,-15.743
1747665014.84,0.074,-0.014,-0.076,0.917,-0.201,-0.020,12.846,10.802,-15.863
1747665014.85,0.043,-0.009,-0.055,0.909,-0.160,0.001,13.359,10.719,-15.970
1747665014.86,-0.022,0.037,-0.040,0.911,-0.068,-0.001,13.869,10.677,-16.069
1747665014.87,-0.080,0.093,-0.037,0.918,0.052,0.010,14.384,10.695,-16.166
1747665014.88,-0.118,0.089,-0.045,0.893,0.171,0.014,14.893,10.783,-16.257
1747665014.89,-0.119,0.050,-0.038,0.857,0.227,0.004,15.386,10.925,-16.349
1747665014.90,-0.079,0.012,-0.044,0.820,0.191,-0.015,15.855,11.073,-16.446
1747665014.91,-0.007,-0.040,-0.048,0.798,0.073,-0.019,16.307,11.181,-16.550
1747665014.92,0.050,-0.084,-0.048,0.775,-0.052,-0.031,16.744,11.216,-16.655
1747665014.93,0.073,-0.061,-0.049,0.740,-0.124,-0.022,17.166,11.194,-16.760
1747665014.94,0.102,-0.012,-0.074,0.741,-0.167,0.004,17.579,11.137,-16.851
1747665014.95,0.086,0.049,-0.077,0.751,-0.081,0.018,17.999,11.085,-16.931
1747665014.95,0.007,0.051,-0.033,0.732,0.062,0.021,18.417,11.104,-17.006
1747665014.96,-0.070,0.018,0.011,0.692,0.124,0.030,18.819,11.183,-17.074
1747665014.98,-0.068,-0.011,-0.048,0.651,0.103,0.036,19.200,11.269,-17.134
1747665014.99,0.013,-0.078,-0.082,0.614,0.078,0.042,19.559,11.337,-17.185
1747665014.99,0.059,-0.098,-0.049,0.568,0.071,0.036,19.895,11.395,-17.232
1747665015.00,0.050,-0.075,-0.030,0.515,0.054,0.050,20.202,11.446,-17.273
1747665015.01,0.042,-0.067,-0.037,0.525,0.008,0.084,20.496,11.474,-17.296
1747665015.02,0.073,-0.062,-0.079,0.509,-0.039,0.108,20.798,11.465,-17.301
1747665015.03,0.087,-0.027,-0.052,0.476,-0.000,0.103,21.087,11.449,-17.295
1747665015.04,0.072,-0.027,0.018,0.415,-0.001,0.094,21.348,11.452,-17.292
1747665015.05,0.064,-0.062,0.010,0.375,-0.017,0.118,21.579,11.440,-17.277
1747665015.06,0.064,-0.062,-0.037,0.352,-0.009,0.143,21.797,11.418,-17.242
1747665015.07,0.048,-0.028,-0.048,0.337,0.044,0.155,22.007,11.408,-17.194
1747665015.08,-0.009,0.008,-0.038,0.320,0.091,0.161,22.209,11.426,-17.138
1747665015.09,-0.029,0.019,-0.059,0.592,0.317,0.281,22.509,11.395,-17.015
1747665015.10,0.041,-0.143,-0.221,0.132,0.049,0.155,22.731,11.429,-16.937
1747665015.11,0.011,0.024,0.087,0.306,-0.009,0.137,22.871,11.416,-16.875
1747665015.12,0.019,0.048,-0.043,0.190,0.008,0.100,23.025,11.401,-16.833
1747665015.13,0.006,-0.059,-0.033,0.198,-0.050,0.101,23.142,11.380,-16.798
1747665015.14,0.014,-0.027,-0.049,0.191,-0.106,0.106,23.264,11.313,-16.756
1747665015.15,0.000,0.040,-0.088,0.194,-0.075,0.073,23.382,11.248,-16.725
1747665015.16,-0.042,0.076,-0.082,0.179,-0.039,0.054,23.495,11.210,-16.709
1747665015.17,-0.086,0.050,-0.078,0.153,0.009,0.025,23.591,11.199,-16.705
1747665015.18,-0.127,0.001,-0.056,0.139,0.068,0.017,23.675,11.224,-16.710
1747665015.19,-0.105,-0.005,-0.041,0.109,0.079,-0.001,23.746,11.272,-16.721
1747665015.20,-0.059,0.001,-0.055,0.082,0.031,-0.023,23.797,11.312,-16.740
1747665015.21,-0.028,-0.014,-0.065,0.079,-0.025,-0.043,23.839,11.326,-16.768
1747665015.22,-0.019,-0.007,-0.060,0.073,-0.068,-0.062,23.875,11.314,-16.809
1747665015.23,-0.004,0.020,-0.062,0.076,-0.109,-0.076,23.905,11.284,-16.860
1747665015.24,0.010,0.035,-0.072,0.079,-0.113,-0.079,23.936,11.239,-16.917
1747665015.25,-0.029,0.036,-0.050,0.087,-0.052,-0.085,23.970,11.211,-16.976
1747665015.26,-0.069,0.033,-0.014,0.076,0.002,-0.089,24.006,11.214,-17.036
1747665015.27,-0.055,0.021,-0.021,0.070,0.015,-0.087,24.036,11.239,-17.096
1747665015.28,-0.014,-0.020,-0.024,0.051,-0.000,-0.089,24.058,11.262,-17.154
1747665015.29,0.017,-0.026,-0.016,0.036,0.003,-0.086,24.071,11.284,-17.213
1747665015.30,0.036,-0.010,-0.013,0.027,-0.007,-0.062,24.079,11.301,-17.262
1747665015.31,0.050,-0.013,-0.019,0.010,-0.017,-0.029,24.083,11.305,-17.291
1747665015.32,0.064,-0.007,-0.028,0.006,-0.031,-0.024,24.082,11.299,-17.308
1747665015.33,0.075,-0.005,-0.016,-0.017,-0.052,-0.015,24.074,11.279,-17.320
1747665015.34,0.077,-0.018,-0.009,-0.018,-0.076,0.004,24.061,11.238,-17.320
1747665015.35,0.060,-0.040,-0.003,-0.027,-0.033,0.030,24.048,11.195,-17.306
1747665015.36,0.034,-0.019,0.026,-0.038,0.021,0.045,24.035,11.181,-17.279
1747665015.37,0.025,0.026,0.016,-0.034,0.063,0.087,24.022,11.186,-17.234
1747665015.38,0.038,0.015,-0.015,-0.043,0.162,0.121,24.014,11.223,-17.166
1747665015.39,0.058,0.003,-0.013,-0.066,0.243,0.131,23.996,11.311,-17.084
1747665015.40,0.053,-0.001,-0.033,-0.117,0.284,0.171,23.964,11.424,-16.983
1747665015.41,0.035,-0.035,-0.064,-0.152,0.330,0.217,23.908,11.550,-16.850
1747665015.42,0.033,-0.085,-0.051,-0.216,0.368,0.236,23.836,11.694,-16.690
1747665015.43,0.050,-0.123,-0.037,-0.336,0.328,0.224,23.710,11.827,-16.517
1747665015.44,0.077,-0.161,-0.041,-0.396,0.312,0.252,23.533,11.934,-16.326
1747665015.45,0.088,-0.155,-0.051,-0.503,0.272,0.256,23.316,12.018,-16.113
1747665015.46,0.046,-0.124,-0.100,-0.626,0.318,0.201,23.025,12.102,-15.900
1747665015.47,-0.005,-0.148,-0.132,-0.628,0.273,0.129,22.693,12.204,-15.719
1747665015.48,-0.076,-0.195,-0.140,-0.743,0.253,0.063,22.327,12.292,-15.571
1747665015.49,-0.118,-0.214,-0.145,-0.873,0.265,0.000,21.878,12.396,-15.446
1747665015.50,-0.106,-0.168,-0.153,-0.980,0.167,-0.050,21.359,12.486,-15.339
1747665015.51,-0.110,-0.105,-0.209,-1.069,0.071,-0.084,20.778,12.515,-15.243
1747665015.52,-0.096,-0.072,-0.266,-1.167,0.051,-0.123,20.143,12.520,-15.157
1747665015.53,-0.055,-0.032,-0.228,-1.263,-0.033,-0.168,19.445,12.502,-15.084
1747665015.54,-0.030,-0.013,-0.227,-1.331,-0.098,-0.168,18.701,12.441,-15.017
1747665015.55,0.001,-0.038,-0.202,-1.406,-0.123,-0.150,17.918,12.350,-14.933
1747665015.56,0.034,-0.062,-0.167,-1.441,-0.104,-0.140,17.106,12.254,-14.836
1747665015.57,0.038,-0.069,-0.157,-1.490,-0.061,-0.120,16.273,12.174,-14.728
1747665015.58,0.015,-0.052,-0.090,-1.535,-0.056,-0.127,15.413,12.111,-14.610
1747665015.59,-0.003,-0.047,-0.097,-1.575,-0.054,-0.148,14.528,12.048,-14.498
1747665015.60,-0.013,-0.061,-0.091,-1.602,-0.021,-0.178,13.622,12.002,-14.397
1747665015.61,0.006,-0.067,-0.047,-1.641,-0.043,-0.194,12.693,11.965,-14.307
1747665015.62,0.033,-0.059,-0.045,-1.649,-0.063,-0.186,11.751,11.914,-14.217
1747665015.63,0.058,-0.046,-0.052,-1.676,-0.049,-0.180,10.801,11.863,-14.121
1747665015.64,0.072,-0.024,-0.060,-1.693,-0.062,-0.195,9.837,11.816,-14.027
1747665015.65,0.060,-0.017,-0.059,-1.730,-0.094,-0.199,8.858,11.757,-13.938
1747665015.66,0.033,-0.034,-0.050,-1.745,-0.094,-0.182,7.864,11.688,-13.842
1747665015.67,0.019,-0.067,-0.036,-1.750,-0.065,-0.158,6.866,11.628,-13.734
1747665015.68,0.012,-0.082,0.000,-1.752,-0.024,-0.147,5.870,11.589,-13.617
1747665015.69,0.001,-0.063,0.013,-1.763,-0.011,-0.170,4.867,11.568,-13.502
1747665015.70,-0.019,-0.032,-0.000,-1.763,-0.004,-0.211,3.859,11.558,-13.406
1747665015.71,-0.039,-0.016,-0.008,-1.768,-0.001,-0.251,2.845,11.552,-13.334
1747665015.72,-0.061,-0.023,0.022,-1.763,0.049,-0.260,1.827,11.563,-13.277
1747665015.73,-0.041,-0.050,0.024,-1.784,0.070,-0.252,0.806,11.598,-13.217
1747665015.74,-0.002,-0.073,-0.011,-1.793,0.040,-0.251,-0.226,11.629,-13.152
1747665015.75,0.005,-0.078,-0.021,-1.777,0.006,-0.250,-1.252,11.643,-13.087
1747665015.76,0.001,-0.084,-0.002,-1.768,0.008,-0.279,-2.274,11.645,-13.029
1747665015.77,-0.013,-0.090,0.032,-1.749,0.047,-0.334,-3.293,11.664,-12.998
1747665015.78,-0.032,-0.106,0.056,-1.746,0.059,-0.382,-4.311,11.692,-12.996
1747665015.79,-0.040,-0.136,0.030,-1.776,0.112,-0.413,-5.340,11.742,-13.056
1747665015.80,-0.012,-0.149,0.000,-1.853,0.038,-0.402,-6.403,11.788,-13.075
1747665015.81,0.014,-0.139,-0.005,-1.864,-0.008,-0.352,-7.489,11.794,-13.109
1747665015.82,0.040,-0.107,0.013,-1.840,-0.003,-0.298,-8.562,11.795,-13.073
1747665015.83,0.052,-0.053,0.058,-1.810,0.025,-0.308,-9.617,11.808,-13.083
1747665015.84,0.017,0.010,0.083,-1.817,-0.004,-0.348,-10.668,11.821,-13.054
1747665015.85,-0.022,0.049,0.049,-1.806,-0.060,-0.366,-11.723,11.803,-13.112
1747665015.86,-0.019,0.050,-0.006,-1.810,-0.044,-0.345,-12.773,11.773,-13.101
1747665015.87,0.033,0.022,-0.029,-1.806,-0.035,-0.304,-13.826,11.759,-13.089
1747665015.88,0.069,-0.016,-0.018,-1.767,-0.067,-0.285,-14.856,11.739,-13.045
1747665015.89,0.049,-0.053,0.001,-1.778,-0.054,-0.291,-15.881,11.713,-12.999
1747665015.90,0.008,-0.077,0.077,-1.769,0.017,-0.302,-16.907,11.715,-12.956
1747665015.91,-0.015,-0.094,0.095,-1.782,0.070,-0.318,-17.935,11.750,-12.921
1747665015.92,-0.024,-0.091,0.048,-1.799,0.097,-0.340,-18.976,11.809,-12.894
1747665015.93,-0.027,-0.077,0.023,-1.761,0.050,-0.342,-20.013,11.859,-12.876
1747665015.94,-0.027,-0.063,-0.018,-1.760,0.004,-0.344,-21.034,11.880,-12.861
1747665015.95,-0.019,-0.042,-0.013,-1.768,-0.022,-0.356,-22.062,11.879,-12.848
1747665015.96,0.006,-0.026,0.030,-1.775,-0.017,-0.381,-23.095,11.869,-12.844
1747665015.97,0.041,-0.018,0.036,-1.784,-0.034,-0.415,-24.137,11.850,-12.860
1747665015.98,0.073,-0.008,0.045,-1.771,-0.098,-0.418,-25.181,11.802,-12.888
1747665015.99,0.093,0.000,0.052,-1.729,-0.183,-0.385,-26.206,11.710,-12.913
1747665016.00,0.106,0.006,0.084,-1.712,-0.200,-0.341,-27.209,11.597,-12.918
1747665016.01,0.104,0.007,0.087,-1.721,-0.139,-0.310,-28.207,11.506,-12.901
1747665016.02,0.065,-0.002,0.046,-1.703,-0.066,-0.293,-29.200,11.464,-12.872
1747665016.03,0.002,-0.019,0.053,-1.670,-0.025,-0.272,-30.177,11.457,-12.834
1747665016.04,-0.043,-0.043,0.030,-1.640,0.004,-0.255,-31.132,11.476,-12.787
1747665016.05,-0.051,-0.060,-0.000,-1.636,-0.003,-0.258,-32.077,11.506,-12.736
1747665016.06,-0.027,-0.063,-0.008,-1.668,-0.082,-0.279,-33.029,11.508,-12.690
1747665016.07,0.000,-0.049,0.002,-1.724,-0.168,-0.301,-34.011,11.456,-12.654
1747665016.08,0.030,-0.034,0.035,-1.740,-0.245,-0.318,-35.017,11.353,-12.627
1747665016.09,0.064,-0.017,0.017,-1.751,-0.333,-0.301,-36.029,11.202,-12.601
1747665016.10,0.090,-0.005,-0.014,-1.752,-0.411,-0.278,-37.041,11.012,-12.564
1747665016.11,0.091,-0.009,-0.004,-1.712,-0.447,-0.258,-38.043,10.793,-12.516
1747665016.12,0.076,-0.029,0.006,-1.669,-0.426,-0.258,-39.018,10.570,-12.473
1747665016.13,0.059,-0.052,0.007,-1.668,-0.372,-0.258,-39.980,10.362,-12.438
1747665016.14,0.036,-0.072,0.016,-1.717,-0.289,-0.263,-40.957,10.193,-12.404
1747665016.15,0.010,-0.079,0.019,-1.800,-0.202,-0.274,-41.972,10.077,-12.370
1747665016.16,-0.028,-0.077,0.027,-1.833,-0.149,-0.278,-43.024,10.003,-12.334
1747665016.17,-0.071,-0.066,0.052,-1.778,-0.128,-0.278,-44.071,9.946,-12.303
1747665016.18,-0.095,-0.050,0.047,-1.685,-0.096,-0.250,-45.072,9.900,-12.274
1747665016.19,-0.077,-0.029,0.014,-1.618,-0.060,-0.214,-46.021,9.888,-12.230
1747665016.20,-0.032,-0.008,-0.012,-1.588,-0.043,-0.190,-46.942,9.906,-12.165
1747665016.21,0.012,0.006,-0.021,-1.549,-0.056,-0.209,-47.845,9.926,-12.102
1747665016.22,0.043,0.015,-0.029,-1.518,-0.079,-0.254,-48.729,9.911,-12.069
1747665016.23,0.060,0.017,-0.008,-1.501,-0.116,-0.311,-49.606,9.844,-12.085
1747665016.24,0.065,0.017,0.017,-1.466,-0.136,-0.362,-50.474,9.716,-12.156
1747665016.25,0.067,0.013,0.013,-1.426,-0.167,-0.397,-51.325,9.535,-12.279
1747665016.26,0.063,0.005,-0.002,-1.422,-0.212,-0.396,-52.163,9.308,-12.428
1747665016.27,0.061,-0.008,-0.003,-1.467,-0.223,-0.363,-53.012,9.072,-12.566
1747665016.28,0.069,-0.025,0.025,-1.487,-0.205,-0.321,-53.878,8.869,-12.669
1747665016.29,0.070,-0.032,0.043,-1.473,-0.228,-0.292,-54.740,8.686,-12.745
1747665016.30,0.049,-0.028,0.032,-1.449,-0.290,-0.276,-55.590,8.485,-12.807
1747665016.31,0.024,-0.019,0.048,-1.414,-0.316,-0.267,-56.423,8.259,-12.868
1747665016.32,0.009,-0.008,0.038,-1.367,-0.306,-0.270,-57.229,8.022,-12.939
1747665016.33,0.006,0.005,-0.022,-1.399,-0.330,-0.272,-58.029,7.773,-13.022
1747665016.34,0.006,0.005,-0.024,-1.436,-0.339,-0.279,-58.853,7.501,-13.114
1747665016.35,0.020,-0.001,0.020,-1.423,-0.301,-0.288,-59.686,7.225,-13.222
1747665016.36,0.036,0.004,0.013,-1.349,-0.261,-0.310,-60.493,6.940,-13.365
1747665016.37,0.033,0.006,0.008,-1.294,-0.226,-0.321,-61.263,6.639,-13.549
1747665016.38,0.030,0.004,0.043,-1.269,-0.164,-0.334,-62.010,6.335,-13.766
1747665016.39,0.014,0.007,0.045,-1.263,-0.107,-0.377,-62.749,6.023,-14.032
1747665016.40,-0.032,0.015,0.027,-1.301,-0.114,-0.431,-63.501,5.655,-14.376
1747665016.41,-0.087,0.006,0.036,-1.311,-0.122,-0.460,-64.269,5.209,-14.795
1747665016.42,-0.117,-0.011,0.054,-1.302,-0.115,-0.442,-65.036,4.731,-15.248
1747665016.43,-0.121,-0.037,0.058,-1.288,-0.103,-0.391,-65.793,4.275,-15.681
1747665016.44,-0.095,-0.054,0.027,-1.262,-0.059,-0.350,-66.533,3.871,-16.071
1747665016.45,-0.046,-0.057,-0.059,-1.282,0.002,-0.349,-67.270,3.500,-16.457
1747665016.46,-0.007,-0.051,-0.062,-1.269,0.023,-0.378,-68.012,3.109,-16.888
1747665016.47,0.011,-0.041,-0.019,-1.186,0.061,-0.431,-68.726,2.639,-17.419
1747665016.48,0.018,-0.024,-0.007,-1.115,0.070,-0.476,-69.391,2.069,-18.071
1747665016.49,0.023,-0.007,0.021,-1.105,0.044,-0.507,-70.031,1.393,-18.828
1747665016.50,0.016,0.004,0.035,-1.138,0.047,-0.523,-70.675,0.626,-19.668
1747665016.51,0.001,0.035,0.025,-1.190,0.109,-0.543,-71.341,-0.207,-20.593
1747665016.52,-0.029,0.045,0.027,-1.197,0.162,-0.561,-72.021,-1.103,-21.621
1747665016.53,-0.071,0.030,0.029,-1.150,0.155,-0.567,-72.683,-2.087,-22.749
1747665016.54,-0.083,0.007,-0.033,-1.125,0.150,-0.553,-73.314,-3.146,-23.946
1747665016.55,-0.053,-0.039,-0.104,-1.132,0.190,-0.527,-73.938,-4.242,-25.189
1747665016.56,-0.004,-0.088,-0.090,-1.092,0.216,-0.475,-74.549,-5.326,-26.436
1747665016.57,0.026,-0.108,-0.045,-1.039,0.210,-0.407,-75.129,-6.351,-27.627
1747665016.58,0.024,-0.094,-0.023,-0.971,0.190,-0.378,-75.674,-7.349,-28.775
1747665016.59,0.012,-0.052,-0.043,-0.916,0.242,-0.390,-76.176,-8.384,-29.967
1747665016.60,0.002,-0.009,-0.026,-0.909,0.330,-0.404,-76.654,-9.488,-31.269
1747665016.61,0.003,-0.001,0.041,-0.934,0.385,-0.390,-77.132,-10.637,-32.660
1747665016.62,0.012,0.013,0.055,-0.964,0.385,-0.361,-77.622,-11.825,-34.105
1747665016.63,0.006,0.026,0.036,-0.988,0.300,-0.335,-78.124,-13.093,-35.603
1747665016.64,0.011,0.021,0.046,-1.051,0.198,-0.310,-78.645,-14.493,-37.179
1747665016.65,0.032,0.003,0.093,-1.051,0.142,-0.275,-79.185,-16.032,-38.842
1747665016.66,0.052,-0.019,0.109,-1.010,0.161,-0.257,-79.704,-17.635,-40.559
1747665016.67,0.074,-0.005,0.045,-0.996,0.181,-0.244,-80.201,-19.329,-42.380
1747665016.68,0.089,0.008,0.005,-0.945,0.164,-0.223,-80.676,-21.115,-44.290
1747665016.69,0.082,0.004,-0.012,-0.870,0.146,-0.200,-81.112,-22.928,-46.217
1747665016.70,0.041,0.008,-0.014,-0.812,0.100,-0.213,-81.503,-24.826,-48.207
1747665016.71,-0.029,0.012,-0.000,-0.777,0.112,-0.235,-81.855,-26.910,-50.372
1747665016.72,-0.098,0.017,0.008,-0.732,0.157,-0.252,-82.170,-29.156,-52.719
1747665016.73,-0.142,0.018,0.004,-0.691,0.123,-0.265,-82.446,-31.533,-55.201
1747665016.74,-0.174,0.019,-0.044,-0.674,0.090,-0.276,-82.689,-34.091,-57.839
1747665016.75,-0.186,0.008,-0.085,-0.661,0.142,-0.289,-82.906,-36.814,-60.648
1747665016.76,-0.163,-0.021,-0.058,-0.682,0.280,-0.284,-83.105,-39.665,-63.639
1747665016.77,-0.115,-0.060,0.003,-0.747,0.383,-0.253,-83.310,-42.707,-66.896
1747665016.78,-0.059,-0.091,0.045,-0.739,0.343,-0.204,-83.524,-45.898,-70.323
1747665016.79,-0.014,-0.096,0.004,-0.666,0.247,-0.164,-83.719,-49.008,-73.622
1747665016.80,-0.008,-0.068,-0.064,-0.613,0.187,-0.160,-83.880,-52.006,-76.760
1747665016.81,-0.023,-0.026,-0.074,-0.573,0.161,-0.183,-84.004,-55.025,-79.895
1747665016.82,-0.015,0.013,-0.069,-0.474,0.162,-0.208,-84.078,-57.945,-82.926
1747665016.83,0.004,0.043,-0.083,-0.318,0.135,-0.220,-84.089,-60.348,-85.428
1747665016.84,0.017,0.059,-0.138,-0.232,0.176,-0.207,-84.053,-62.111,-87.286
1747665016.85,0.030,0.058,-0.141,-0.282,0.245,-0.171,-84.020,-63.687,-88.992
1747665016.86,0.053,0.023,-0.086,-0.368,0.325,-0.119,-84.025,-65.470,-90.947
1747665016.87,0.050,-0.030,-0.035,-0.450,0.358,-0.048,-84.073,-67.514,-93.204
1747665016.88,0.020,-0.078,0.005,-0.541,0.261,0.042,-84.174,-69.903,-95.787
1747665016.89,-0.021,-0.116,0.037,-0.581,0.184,0.101,-84.318,-72.696,-98.717
1747665016.90,-0.043,-0.110,0.037,-0.508,0.101,0.106,-84.464,-75.534,-101.655
1747665016.91,-0.035,-0.058,0.015,-0.395,-0.027,0.090,-84.577,-77.995,-104.149
1747665016.92,0.001,-0.017,-0.010,-0.282,-0.175,0.073,-84.659,-79.972,-106.074
1747665016.93,0.050,-0.008,-0.026,-0.130,-0.274,0.041,-84.713,-81.298,-107.274
1747665016.94,0.071,-0.055,-0.058,-0.011,-0.323,-0.028,-84.722,-81.876,-107.685
1747665016.95,0.055,-0.069,-0.061,0.030,-0.396,-0.089,-84.687,-82.049,-107.651
1747665016.96,0.028,-0.021,-0.045,-0.004,-0.446,-0.117,-84.627,-82.292,-107.653
1747665016.97,-0.021,0.017,-0.027,-0.053,-0.508,-0.118,-84.561,-82.827,-107.918
1747665016.98,-0.084,0.050,-0.036,-0.117,-0.540,-0.109,-84.502,-83.703,-108.495
1747665016.99,-0.140,0.086,-0.052,-0.191,-0.467,-0.104,-84.451,-84.962,-109.468
1747665017.00,-0.166,0.125,-0.012,-0.218,-0.347,-0.090,-84.403,-86.441,-110.720
1747665017.01,-0.139,0.078,0.042,-0.214,-0.194,-0.060,-84.365,-87.879,-112.008
1747665017.02,-0.074,0.011,0.092,-0.190,-0.022,-0.025,-84.345,-89.101,-113.175
1747665017.03,-0.021,-0.010,0.109,-0.173,0.144,0.005,-84.340,-90.118,-114.233
1747665017.04,0.005,-0.017,0.078,-0.142,0.227,0.027,-84.348,-90.924,-115.154
1747665017.05,0.003,-0.020,0.011,-0.099,0.191,0.052,-84.370,-91.498,-115.854
1747665017.06,-0.006,-0.025,-0.070,-0.066,0.155,0.068,-84.403,-91.889,-116.344
1747665017.07,-0.007,-0.019,-0.117,-0.026,0.230,0.052,-84.437,-92.071,-116.634
1747665017.08,0.001,-0.000,-0.110,0.009,0.284,0.014,-84.457,-91.970,-116.682
1747665017.09,0.008,0.024,-0.088,0.031,0.237,-0.013,-84.458,-91.700,-116.564
1747665017.10,0.010,0.044,-0.071,0.065,0.161,-0.019,-84.448,-91.299,-116.276
1747665017.11,0.018,0.054,-0.053,0.060,0.096,0.002,-84.444,-90.827,-115.877
1747665017.12,0.033,0.044,-0.018,-0.003,-0.006,0.033,-84.455,-90.631,-115.708
1747665017.13,0.042,0.015,0.011,-0.026,-0.131,0.056,-84.479,-90.797,-115.834
1747665017.14,0.038,-0.025,0.004,0.002,-0.194,0.068,-84.515,-90.973,-115.915
1747665017.15,0.031,-0.053,0.009,0.006,-0.213,0.071,-84.554,-91.014,-115.840
1747665017.16,0.023,-0.057,0.062,-0.007,-0.242,0.061,-84.594,-91.114,-115.811
1747665017.17,0.021,-0.043,0.092,0.004,-0.275,0.039,-84.623,-91.260,-115.810
1747665017.18,0.020,-0.011,0.080,0.033,-0.314,0.016,-84.639,-91.317,-115.699
1747665017.19,0.018,0.019,0.044,0.087,-0.304,-0.009,-84.643,-91.115,-115.316
1747665017.20,0.007,0.031,0.002,0.120,-0.271,-0.035,-84.631,-90.618,-114.652
1747665017.21,-0.007,0.029,-0.010,0.111,-0.208,-0.038,-84.611,-90.041,-113.935
1747665017.22,-0.017,0.014,-0.005,0.114,-0.124,-0.028,-84.593,-89.459,-113.254
1747665017.23,-0.035,-0.002,-0.012,0.133,-0.065,-0.007,-84.582,-88.763,-112.503
1747665017.24,-0.053,-0.009,-0.027,0.137,0.015,0.014,-84.583,-88.006,-111.725
1747665017.25,-0.059,-0.005,-0.033,0.127,0.139,0.024,-84.593,-87.245,-111.005
1747665017.26,-0.055,0.004,-0.024,0.122,0.210,0.032,-84.609,-86.455,-110.314
1747665017.27,-0.055,0.009,-0.029,0.109,0.214,0.038,-84.626,-85.678,-109.655
1747665017.28,-0.045,0.010,-0.038,0.111,0.204,0.042,-84.645,-84.880,-108.973
1747665017.29,-0.012,0.008,-0.037,0.122,0.200,0.055,-84.665,-84.034,-108.240
1747665017.30,0.025,0.001,-0.021,0.137,0.185,0.072,-84.691,-83.112,-107.423
1747665017.31,0.056,-0.006,0.001,0.171,0.123,0.085,-84.721,-82.021,-106.419
1747665017.32,0.072,-0.011,0.015,0.221,0.012,0.100,-84.751,-80.684,-105.115
1747665017.33,0.075,-0.015,0.011,0.278,-0.110,0.116,-84.781,-79.052,-103.448
1747665017.34,0.062,-0.016,0.002,0.331,-0.199,0.125,-84.809,-77.110,-101.408
1747665017.35,0.037,-0.017,-0.010,0.380,-0.214,0.117,-84.823,-74.875,-99.042
1747665017.36,0.011,-0.015,-0.012,0.435,-0.215,0.100,-84.814,-72.333,-96.370
1747665017.37,-0.004,-0.014,-0.015,0.473,-0.279,0.079,-84.776,-69.562,-93.448
1747665017.38,-0.013,-0.001,-0.048,0.467,-0.346,0.053,-84.711,-66.868,-90.561
1747665017.39,-0.013,0.019,-0.064,0.463,-0.330,0.064,-84.630,-64.340,-87.826
1747665017.40,0.011,0.027,-0.034,0.490,-0.255,0.084,-84.545,-61.755,-85.061
1747665017.41,0.035,0.017,0.008,0.504,-0.174,0.107,-84.451,-59.017,-82.189
1747665017.42,0.038,-0.002,0.046,0.509,-0.126,0.122,-84.351,-56.244,-79.317
1747665017.43,0.023,-0.016,0.065,0.505,-0.147,0.149,-84.247,-53.501,-76.485
1747665017.44,-0.014,-0.022,0.057,0.525,-0.216,0.182,-84.142,-50.762,-73.629
1747665017.45,-0.056,-0.023,0.042,0.590,-0.295,0.194,-84.017,-47.919,-70.624
1747665017.46,-0.087,-0.020,0.013,0.664,-0.359,0.195,-83.851,-44.933,-67.431
1747665017.47,-0.103,-0.015,-0.024,0.712,-0.339,0.190,-83.643,-41.941,-64.217
1747665017.48,-0.099,-0.013,-0.031,0.800,-0.274,0.166,-83.380,-38.971,-61.052
1747665017.49,-0.088,0.005,-0.028,0.869,-0.265,0.153,-83.055,-36.063,-57.970
1747665017.50,-0.082,0.025,-0.024,0.881,-0.164,0.150,-82.691,-33.331,-55.087
1747665017.51,-0.088,0.042,-0.012,0.800,0.092,0.153,-82.329,-30.855,-52.566
1747665017.52,-0.084,0.041,0.049,0.738,0.292,0.166,-81.994,-28.595,-50.402
1747665017.53,-0.069,0.016,0.099,0.751,0.312,0.192,-81.666,-26.426,-48.391
1747665017.54,-0.075,-0.014,0.084,0.763,0.202,0.235,-81.325,-24.303,-46.396
1747665017.55,-0.076,-0.046,0.055,0.751,0.093,0.291,-80.990,-22.239,-44.389
1747665017.56,-0.046,-0.069,0.035,0.807,0.079,0.322,-80.641,-20.189,-42.360
1747665017.57,-0.026,-0.066,0.007,0.870,0.145,0.324,-80.249,-18.152,-40.356
1747665017.58,-0.021,-0.044,0.025,0.894,0.164,0.317,-79.821,-16.214,-38.482
1747665017.59,-0.006,-0.021,0.061,0.881,0.055,0.300,-79.379,-14.485,-36.791
1747665017.60,0.010,0.010,0.055,0.864,-0.108,0.256,-78.934,-13.073,-35.338
1747665017.61,0.016,0.041,0.034,0.881,-0.174,0.212,-78.478,-11.975,-34.129
1747665017.62,0.024,0.043,0.026,0.933,-0.105,0.214,-77.994,-10.995,-33.047
1747665017.63,0.045,0.016,0.060,0.959,-0.079,0.253,-77.486,-9.992,-31.969
1747665017.64,0.049,-0.016,0.067,0.984,-0.106,0.286,-76.965,-8.970,-30.868
1747665017.65,0.014,-0.027,0.052,0.995,-0.106,0.312,-76.429,-7.965,-29.772
1747665017.66,-0.024,-0.022,0.041,0.952,-0.045,0.329,-75.899,-6.976,-28.707
1747665017.67,-0.046,-0.013,0.039,0.893,0.025,0.332,-75.398,-6.012,-27.707
1747665017.68,-0.058,-0.012,0.049,0.881,0.074,0.306,-74.914,-5.111,-26.805
1747665017.69,-0.063,-0.019,0.040,0.925,0.140,0.271,-74.417,-4.298,-26.024
1747665017.70,-0.057,-0.023,0.034,1.027,0.140,0.250,-73.872,-3.558,-25.343
1747665017.71,-0.050,-0.019,0.019,1.086,0.047,0.269,-73.273,-2.896,-24.706
1747665017.72,-0.034,-0.005,-0.000,1.042,0.100,0.326,-72.672,-2.220,-24.035
1747665017.73,0.023,0.025,0.049,0.986,0.241,0.357,-72.100,-1.445,-23.324
1747665017.74,0.054,0.074,0.107,0.946,0.268,0.368,-71.552,-0.635,-22.630
1747665017.75,0.016,0.101,0.110,0.938,0.217,0.382,-71.017,0.144,-21.955
1747665017.76,-0.042,0.080,0.061,0.964,0.152,0.378,-70.474,0.860,-21.307
1747665017.77,-0.093,0.038,-0.013,1.018,0.122,0.352,-69.904,1.487,-20.724
1747665017.78,-0.134,-0.001,-0.055,1.073,0.127,0.325,-69.302,2.026,-20.222
1747665017.79,-0.139,-0.038,-0.060,1.078,0.198,0.287,-68.680,2.507,-19.802
1747665017.80,-0.100,-0.071,-0.024,1.050,0.334,0.254,-68.065,2.974,-19.462
1747665017.81,-0.040,-0.089,0.056,1.008,0.398,0.221,-67.471,3.435,-19.195
1747665017.82,0.004,-0.078,0.071,0.972,0.366,0.228,-66.899,3.866,-18.964
1747665017.83,0.034,-0.056,0.037,0.883,0.350,0.249,-66.357,4.295,-18.718
1747665017.84,0.059,-0.031,0.058,0.810,0.340,0.268,-65.869,4.741,-18.449
1747665017.85,0.084,-0.013,0.112,0.886,0.264,0.260,-65.376,5.160,-18.181
1747665017.86,0.104,0.003,0.027,0.960,0.140,0.251,-64.836,5.483,-17.954
1747665017.87,0.091,0.018,-0.053,1.016,0.001,0.265,-64.259,5.718,-17.737
1747665017.88,0.079,0.018,-0.065,1.024,-0.148,0.238,-63.664,5.847,-17.547
1747665017.89,0.079,0.029,-0.047,1.014,-0.230,0.219,-63.072,5.878,-17.390
1747665017.90,0.087,0.045,-0.032,1.076,-0.292,0.180,-62.470,5.834,-17.272
1747665017.91,0.091,0.062,-0.038,1.109,-0.349,0.154,-61.834,5.710,-17.206
1747665017.92,0.093,0.064,0.013,1.095,-0.368,0.175,-61.200,5.559,-17.142
1747665017.93,0.089,0.041,0.065,1.080,-0.330,0.217,-60.569,5.453,-17.035
1747665017.94,0.069,0.012,0.031,1.039,-0.313,0.244,-59.954,5.399,-16.885
1747665017.95,0.037,-0.010,0.009,1.012,-0.299,0.253,-59.358,5.374,-16.712
1747665017.96,0.001,-0.037,0.008,1.005,-0.294,0.247,-58.772,5.351,-16.540
1747665017.97,-0.022,-0.063,-0.054,0.987,-0.229,0.236,-58.191,5.337,-16.379
1747665017.98,-0.056,-0.081,-0.088,0.981,-0.154,0.219,-57.622,5.350,-16.234
1747665017.99,-0.116,-0.083,-0.036,1.043,-0.038,0.188,-57.036,5.391,-16.117
1747665018.00,-0.153,-0.055,0.006,1.027,0.079,0.168,-56.434,5.472,-16.037
1747665018.01,-0.161,-0.011,0.047,1.001,0.136,0.142,-55.850,5.584,-15.978
1747665018.01,-0.146,0.026,0.052,1.006,0.156,0.175,-55.272,5.714,-15.924
1747665018.02,-0.089,0.044,0.038,1.016,0.152,0.223,-54.685,5.884,-15.822
1747665018.03,0.005,0.042,0.044,0.993,0.115,0.255,-54.099,6.067,-15.692
1747665018.05,0.120,0.034,0.060,0.977,0.013,0.315,-53.524,6.242,-15.525
1747665018.05,0.205,0.005,0.048,0.983,-0.117,0.341,-52.947,6.384,-15.310
1747665018.07,0.257,-0.014,-0.001,0.964,-0.176,0.339,-52.373,6.466,-15.096
1747665018.07,0.286,-0.013,-0.016,0.969,-0.201,0.342,-51.803,6.531,-14.881
1747665018.08,0.227,-0.011,0.045,1.000,-0.297,0.341,-51.223,6.553,-14.673
1747665018.09,0.085,-0.004,0.036,1.040,-0.370,0.313,-50.623,6.507,-14.482
1747665018.10,-0.031,0.011,-0.013,1.079,-0.346,0.257,-50.002,6.414,-14.335
1747665018.11,-0.096,0.033,-0.007,1.102,-0.257,0.208,-49.369,6.313,-14.240
1747665018.12,-0.134,0.036,0.005,1.164,-0.131,0.167,-48.716,6.243,-14.185
1747665018.13,-0.139,0.028,0.003,1.202,-0.072,0.118,-48.032,6.198,-14.174
1747665018.14,-0.141,0.025,-0.012,1.152,-0.023,0.095,-47.355,6.154,-14.192
1747665018.15,-0.119,0.015,-0.008,1.039,0.084,0.096,-46.726,6.156,-14.213
1747665018.16,-0.059,-0.005,0.032,0.953,0.122,0.159,-46.156,6.228,-14.199
1747665018.17,0.008,-0.023,0.061,0.942,0.132,0.251,-45.609,6.361,-14.113
1747665018.18,0.039,-0.029,0.068,1.017,0.116,0.273,-45.037,6.521,-13.990
1747665018.19,0.016,-0.001,0.034,1.060,0.047,0.244,-44.429,6.648,-13.878
1747665018.20,-0.045,0.029,-0.041,1.077,-0.000,0.178,-43.809,6.709,-13.808
1747665018.21,-0.089,0.050,-0.041,1.100,-0.029,0.101,-43.183,6.706,-13.799
1747665018.22,-0.097,0.048,-0.019,1.114,-0.014,0.027,-42.550,6.658,-13.849
1747665018.23,-0.077,0.052,-0.004,1.111,0.028,-0.022,-41.919,6.595,-13.948
1747665018.24,-0.048,0.068,0.059,1.140,0.033,-0.032,-41.283,6.536,-14.068
1747665018.25,-0.025,0.068,0.083,1.166,-0.016,0.046,-40.628,6.477,-14.169
1747665018.26,0.018,0.051,0.082,1.138,0.004,0.062,-39.970,6.439,-14.223
1747665018.27,0.087,0.038,0.070,1.105,0.024,0.100,-39.329,6.426,-14.258
1747665018.28,0.140,0.017,0.030,1.064,-0.042,0.141,-38.706,6.423,-14.259
1747665018.29,0.130,-0.013,-0.004,1.065,-0.102,0.176,-38.093,6.395,-14.230
1747665018.30,0.082,-0.020,-0.015,1.085,-0.072,0.187,-37.472,6.372,-14.186
1747665018.31,0.035,-0.012,0.002,1.094,-0.037,0.197,-36.840,6.369,-14.135
1747665018.32,-0.017,-0.022,-0.007,1.092,0.031,0.187,-36.207,6.398,-14.086
1747665018.33,-0.071,-0.008,0.024,1.088,0.082,0.161,-35.578,6.450,-14.049
1747665018.34,-0.104,0.018,0.052,1.102,0.114,0.119,-34.949,6.516,-14.038
1747665018.35,-0.077,0.048,0.078,1.126,0.060,0.086,-34.311,6.556,-14.058
1747665018.36,-0.009,0.073,0.064,1.146,0.017,0.075,-33.661,6.561,-14.094
1747665018.37,0.070,0.092,0.047,1.139,-0.065,0.106,-33.006,6.529,-14.121
1747665018.38,0.129,0.099,0.034,1.113,-0.116,0.143,-32.358,6.475,-14.125
1747665018.39,0.143,0.086,0.027,1.076,-0.163,0.186,-31.728,6.410,-14.097
1747665018.40,0.079,0.043,0.030,1.068,-0.196,0.196,-31.108,6.333,-14.047
1747665018.41,-0.023,0.026,0.015,1.089,-0.205,0.197,-30.484,6.242,-13.996
1747665018.42,-0.105,-0.024,0.001,1.095,-0.097,0.201,-29.851,6.179,-13.941
1747665018.43,-0.106,-0.040,0.015,1.095,0.019,0.145,-29.218,6.182,-13.903
1747665018.44,-0.085,-0.001,0.003,1.102,0.017,0.075,-28.588,6.190,-13.910
1747665018.45,-0.063,0.040,0.012,1.138,-0.042,0.045,-27.949,6.165,-13.953
1747665018.46,-0.006,0.066,0.052,1.198,-0.045,0.064,-27.283,6.117,-13.998
1747665018.47,0.066,0.081,0.073,1.219,-0.039,0.078,-26.590,6.077,-14.035
1747665018.48,0.092,0.083,0.067,1.222,-0.015,0.093,-25.893,6.048,-14.063
1747665018.49,0.055,0.055,0.029,1.197,0.001,0.112,-25.197,6.039,-14.078
1747665018.50,-0.028,-0.033,-0.008,1.117,0.027,0.119,-24.535,6.042,-14.082
1747665018.51,-0.105,-0.065,-0.037,1.101,0.100,0.139,-23.896,6.089,-14.079
1747665018.52,-0.092,-0.141,-0.027,1.112,0.173,0.137,-23.259,6.173,-14.063
1747665018.53,-0.031,-0.111,-0.001,1.152,0.178,0.081,-22.611,6.274,-14.070
1747665018.54,0.002,-0.028,0.021,1.221,0.079,0.044,-21.934,6.330,-14.116
1747665018.55,0.037,0.031,0.041,1.251,-0.048,0.045,-21.230,6.318,-14.174
1747665018.56,0.086,0.056,0.058,1.289,-0.148,0.065,-20.508,6.241,-14.225
1747665018.57,0.126,0.052,0.055,1.336,-0.184,0.088,-19.757,6.131,-14.265
1747665018.58,0.150,0.041,0.092,1.330,-0.117,0.117,-18.989,6.029,-14.289
1747665018.59,0.152,0.006,0.092,1.310,-0.006,0.118,-18.231,5.994,-14.308
1747665018.60,0.115,-0.027,0.028,1.330,0.080,0.216,-17.471,6.024,-14.293
1747665018.61,0.026,-0.101,-0.037,1.302,0.121,0.310,-16.707,6.101,-14.219
1747665018.62,-0.060,-0.125,-0.065,1.281,0.235,0.336,-15.953,6.233,-14.107
1747665018.63,-0.042,-0.086,-0.028,1.287,0.325,0.278,-15.207,6.423,-14.007
1747665018.64,0.015,-0.009,-0.015,1.303,0.297,0.227,-14.458,6.623,-13.947
1747665018.65,0.063,0.063,0.036,1.359,0.148,0.216,-13.689,6.760,-13.910
1747665018.66,0.070,0.121,0.080,1.378,0.033,0.234,-12.896,6.819,-13.875
1747665018.67,0.076,0.102,0.084,1.388,-0.045,0.259,-12.095,6.829,-13.828
1747665018.68,0.065,0.071,0.056,1.395,-0.122,0.279,-11.285,6.789,-13.769
1747665018.69,0.041,0.040,-0.010,1.367,-0.136,0.243,-10.480,6.723,-13.712
1747665018.70,0.008,-0.028,-0.072,1.338,0.075,0.159,-9.707,6.690,-13.681
1747665018.71,-0.024,-0.111,-0.100,1.305,0.143,0.197,-8.949,6.740,-13.672
1747665018.72,-0.040,-0.126,-0.063,1.360,0.298,0.275,-8.180,6.874,-13.627
1747665018.73,-0.041,-0.091,-0.038,1.439,0.343,0.280,-7.364,7.070,-13.564
1747665018.74,-0.035,0.023,-0.041,1.422,0.311,0.274,-6.531,7.266,-13.510
1747665018.75,-0.022,0.160,0.008,1.384,0.234,0.319,-5.716,7.430,-13.444
1747665018.76,-0.008,0.224,0.069,1.370,0.172,0.356,-4.912,7.555,-13.353
1747665018.77,0.010,0.230,0.060,1.440,0.080,0.375,-4.092,7.633,-13.253
1747665018.78,0.010,0.233,0.008,1.462,0.022,0.300,-3.238,7.668,-13.168
1747665018.79,-0.023,0.184,-0.030,1.386,0.014,0.205,-2.415,7.671,-13.135
1747665018.80,-0.045,-0.006,-0.064,1.451,0.022,0.134,-1.599,7.683,-13.149
1747665018.81,-0.081,-0.149,-0.106,1.380,0.184,0.098,-0.785,7.736,-13.191
1747665018.82,-0.106,-0.291,-0.058,1.262,0.322,0.046,-0.032,7.880,-13.253
1747665018.83,-0.120,-0.271,-0.056,1.320,0.613,-0.027,0.688,8.117,-13.344
1747665018.84,-0.140,-0.176,-0.079,1.229,0.438,0.004,1.425,8.409,-13.468
1747665018.85,-0.127,-0.033,0.008,1.169,0.409,0.093,2.098,8.653,-13.537
1747665018.86,-0.104,0.115,0.054,1.192,0.355,0.118,2.777,8.875,-13.580
1747665018.87,-0.098,0.223,-0.001,1.159,0.306,0.114,3.449,9.064,-13.618
1747665018.88,-0.068,0.236,0.005,1.155,0.244,0.068,4.108,9.228,-13.671
1747665018.89,-0.018,0.161,-0.069,1.151,0.099,0.014,4.763,9.335,-13.754
1747665018.90,0.032,0.048,-0.134,1.115,-0.026,-0.018,5.400,9.361,-13.862
1747665018.91,0.103,-0.074,-0.167,1.078,-0.106,-0.012,6.016,9.335,-13.973
1747665018.92,0.130,-0.142,-0.136,1.046,-0.142,-0.013,6.613,9.272,-14.078
1747665018.93,0.080,-0.100,-0.085,1.018,-0.075,-0.006,7.194,9.220,-14.179
1747665018.94,0.037,-0.012,-0.027,1.010,-0.012,0.031,7.764,9.209,-14.265
1747665018.95,0.004,0.080,0.034,1.006,0.032,0.075,8.339,9.223,-14.329
1747665018.96,-0.025,0.123,0.051,0.989,0.083,0.098,8.908,9.263,-14.372
1747665018.97,-0.018,0.110,0.037,1.018,0.088,0.132,9.483,9.319,-14.400
1747665018.98,0.017,0.105,-0.002,1.041,0.051,0.125,10.077,9.362,-14.422
1747665018.99,0.032,0.091,-0.011,1.017,0.015,0.064,10.665,9.390,-14.465
1747665019.00,0.058,0.049,-0.035,1.055,0.124,-0.045,11.243,9.417,-14.549
1747665019.01,0.070,-0.010,-0.099,0.959,-0.163,0.003,11.808,9.390,-14.666
1747665019.02,0.067,-0.058,-0.118,0.976,-0.115,0.035,12.356,9.324,-14.743
1747665019.03,0.048,-0.075,-0.106,0.927,-0.043,0.022,12.895,9.296,-14.816
1747665019.04,-0.017,-0.061,-0.072,0.898,0.051,0.027,13.411,9.313,-14.890
1747665019.05,-0.036,-0.035,-0.017,0.876,0.101,0.023,13.913,9.375,-14.958
1747665019.06,-0.028,0.010,0.008,0.865,0.142,0.023,14.406,9.462,-15.028
1747665019.07,-0.025,0.043,0.016,0.869,0.169,0.028,14.895,9.570,-15.100
1747665019.08,-0.018,0.061,-0.009,0.904,0.157,0.059,15.395,9.685,-15.162
1747665019.09,-0.014,0.100,-0.031,0.943,0.097,0.138,15.970,9.821,-15.192
1747665019.10,0.011,0.063,-0.088,0.858,0.109,0.045,16.463,9.894,-15.226
1747665019.11,0.017,0.101,0.008,0.853,0.040,0.037,16.959,9.957,-15.293
1747665019.12,0.075,-0.004,-0.159,0.769,-0.073,0.041,17.413,9.964,-15.354
1747665019.13,0.099,-0.018,-0.119,0.701,-0.096,0.032,17.834,9.927,-15.409
1747665019.14,0.101,-0.173,-0.087,0.664,-0.078,0.027,18.218,9.892,-15.461
1747665019.15,0.041,-0.110,-0.050,0.663,-0.043,0.042,18.594,9.875,-15.509
1747665019.16,-0.016,0.039,-0.067,0.680,-0.005,0.060,18.976,9.873,-15.548
1747665019.17,-0.053,0.076,-0.072,0.692,0.050,0.072,19.370,9.896,-15.580
1747665019.18,-0.083,0.059,-0.068,0.670,0.138,0.051,19.761,9.958,-15.615
1747665019.19,-0.091,0.033,-0.038,0.628,0.183,0.021,20.130,10.069,-15.663
1747665019.20,-0.076,-0.040,-0.007,0.560,0.170,0.038,20.466,10.187,-15.708
1747665019.21,-0.015,-0.089,-0.009,0.500,0.102,0.031,20.769,10.282,-15.745
1747665019.22,0.063,-0.078,-0.057,0.454,-0.028,0.031,21.039,10.315,-15.778
1747665019.23,0.104,-0.045,-0.125,0.406,-0.125,0.043,21.285,10.278,-15.803
1747665019.24,0.095,-0.028,-0.171,0.389,-0.147,0.058,21.512,10.202,-15.817
1747665019.25,0.031,-0.035,-0.140,0.332,-0.068,0.049,21.723,10.138,-15.823
1747665019.26,-0.041,-0.032,-0.074,0.281,0.044,0.047,21.899,10.136,-15.827
1747665019.27,-0.078,-0.067,-0.036,0.247,0.065,0.053,22.054,10.166,-15.824
1747665019.28,-0.097,-0.094,-0.004,0.181,0.078,0.027,22.178,10.208,-15.822
1747665019.29,-0.041,-0.087,-0.006,0.132,0.001,-0.007,22.267,10.237,-15.835
1747665019.30,0.032,-0.103,-0.059,0.079,-0.054,-0.013,22.326,10.227,-15.852
1747665019.31,0.076,-0.125,-0.087,0.017,-0.063,-0.013,22.351,10.198,-15.866
1747665019.32,0.080,-0.115,-0.116,-0.044,-0.053,0.007,22.343,10.165,-15.868
1747665019.33,0.057,-0.081,-0.107,-0.086,-0.042,0.031,22.308,10.131,-15.850
1747665019.34,0.042,-0.059,-0.069,-0.139,-0.041,0.024,22.247,10.096,-15.820
1747665019.35,0.025,-0.046,-0.027,-0.160,-0.035,0.018,22.163,10.062,-15.790
1747665019.36,-0.003,-0.016,0.003,-0.171,-0.025,0.033,22.073,10.033,-15.757
1747665019.37,-0.021,0.027,0.005,-0.157,-0.051,0.042,21.985,9.995,-15.715
1747665019.38,-0.017,0.038,-0.035,-0.162,-0.028,0.030,21.901,9.955,-15.675
1747665019.39,-0.012,0.034,-0.058,-0.156,-0.009,0.007,21.815,9.937,-15.649
1747665019.40,-0.009,0.018,-0.062,-0.182,0.005,0.004,21.723,9.931,-15.631
1747665019.41,-0.017,-0.003,-0.038,-0.180,-0.000,0.018,21.624,9.924,-15.605
1747665019.42,-0.015,0.013,-0.031,-0.187,0.042,0.032,21.523,9.923,-15.570
1747665019.43,0.002,0.042,-0.030,-0.202,0.055,0.021,21.420,9.939,-15.534
1747665019.44,-0.008,0.065,-0.038,-0.223,0.065,0.008,21.301,9.962,-15.503
1747665019.45,-0.031,0.051,-0.047,-0.189,0.091,0.029,21.186,9.994,-15.471
1747665019.46,-0.035,0.040,-0.040,-0.198,0.142,0.021,21.080,10.045,-15.433
1747665019.47,-0.043,0.060,-0.008,-0.213,0.199,-0.019,20.962,10.132,-15.411
1747665019.48,-0.060,0.009,-0.010,-0.236,0.243,-0.019,20.834,10.251,-15.400
1747665019.49,-0.080,-0.067,-0.033,-0.299,0.291,0.007,20.681,10.393,-15.374
1747665019.50,-0.041,-0.089,-0.042,-0.363,0.320,0.024,20.498,10.549,-15.326
1747665019.51,0.030,-0.087,-0.080,-0.448,0.293,0.034,20.270,10.705,-15.263
1747665019.52,0.088,-0.082,-0.099,-0.562,0.197,0.029,19.988,10.816,-15.187
1747665019.53,0.084,-0.079,-0.151,-0.666,0.190,0.050,19.644,10.890,-15.094
1747665019.54,0.048,-0.128,-0.149,-0.708,0.271,0.116,19.268,10.977,-14.967
1747665019.55,0.020,-0.169,-0.135,-0.839,0.312,0.138,18.851,11.092,-14.800
1747665019.56,0.020,-0.158,-0.143,-0.945,0.303,0.128,18.363,11.210,-14.617
1747665019.57,0.028,-0.165,-0.141,-1.012,0.225,0.157,17.832,11.304,-14.419
1747665019.58,0.047,-0.178,-0.098,-1.124,0.116,0.135,17.252,11.336,-14.206
1747665019.59,0.053,-0.167,-0.094,-1.197,0.011,0.063,16.610,11.316,-14.012
1747665019.60,0.066,-0.147,-0.102,-1.234,-0.082,0.037,15.935,11.246,-13.841
1747665019.61,0.058,-0.142,-0.108,-1.281,-0.123,0.012,15.232,11.144,-13.682
1747665019.62,0.031,-0.125,-0.167,-1.307,-0.163,-0.004,14.507,11.022,-13.534
1747665019.63,-0.032,-0.070,-0.201,-1.334,-0.109,-0.018,13.764,10.906,-13.392
1747665019.64,-0.090,-0.013,-0.175,-1.352,-0.008,-0.074,13.007,10.844,-13.269
1747665019.65,-0.170,0.023,-0.135,-1.399,0.099,-0.130,12.226,10.850,-13.177
1747665019.66,-0.232,0.029,-0.080,-1.454,0.194,-0.154,11.410,10.919,-13.103
1747665019.67,-0.207,-0.003,-0.040,-1.493,0.241,-0.159,10.568,11.032,-13.029
1747665019.68,-0.105,-0.031,-0.057,-1.540,0.154,-0.173,9.700,11.135,-12.953
1747665019.69,0.041,-0.011,-0.116,-1.545,-0.011,-0.210,8.813,11.166,-12.888
1747665019.70,0.135,0.022,-0.153,-1.530,-0.161,-0.222,7.927,11.108,-12.839
1747665019.71,0.145,0.038,-0.144,-1.527,-0.213,-0.229,7.047,10.991,-12.799
1747665019.72,0.098,0.038,-0.105,-1.551,-0.177,-0.227,6.160,10.874,-12.760
1747665019.73,0.010,0.032,-0.066,-1.589,-0.082,-0.226,5.254,10.793,-12.718
1747665019.74,-0.073,0.023,-0.010,-1.614,0.067,-0.225,4.331,10.786,-12.674
1747665019.75,-0.090,0.008,0.022,-1.641,0.186,-0.245,3.392,10.857,-12.631
1747665019.76,-0.048,-0.006,0.025,-1.636,0.205,-0.277,2.444,10.971,-12.598
1747665019.77,0.011,-0.020,-0.008,-1.676,0.141,-0.302,1.486,11.073,-12.582
1747665019.78,0.059,-0.027,-0.033,-1.698,0.036,-0.283,0.506,11.123,-12.561
1747665019.79,0.077,-0.047,-0.043,-1.713,-0.019,-0.239,-0.478,11.124,-12.519
1747665019.80,0.071,-0.072,-0.030,-1.744,-0.004,-0.229,-1.472,11.120,-12.459
1747665019.81,0.063,-0.090,-0.022,-1.784,-0.059,-0.256,-2.488,11.107,-12.400
1747665019.82,0.026,-0.102,-0.045,-1.773,-0.094,-0.286,-3.518,11.061,-12.368
1747665019.83,0.006,-0.105,-0.031,-1.710,-0.017,-0.304,-4.526,11.030,-12.343
1747665019.84,0.012,-0.089,0.019,-1.707,0.017,-0.341,-5.516,11.035,-12.356
1747665019.85,-0.026,-0.062,0.051,-1.712,-0.028,-0.391,-6.515,11.030,-12.374
1747665019.86,-0.096,-0.040,0.038,-1.701,-0.034,-0.441,-7.518,11.006,-12.486
1747665019.87,-0.141,-0.030,0.020,-1.695,0.019,-0.474,-8.520,10.991,-12.559
1747665019.88,-0.127,-0.035,-0.021,-1.713,0.057,-0.486,-9.526,11.000,-12.720
1747665019.89,-0.094,-0.052,-0.033,-1.718,0.098,-0.487,-10.543,11.030,-12.808
1747665019.90,-0.045,-0.064,0.021,-1.706,0.133,-0.479,-11.554,11.078,-12.980
1747665019.91,0.016,-0.069,0.064,-1.737,0.120,-0.470,-12.570,11.137,-13.059
1747665019.92,0.060,-0.066,0.063,-1.750,0.029,-0.446,-13.598,11.166,-13.213
1747665019.93,0.078,-0.063,0.015,-1.747,-0.045,-0.408,-14.627,11.147,-13.260
1747665019.94,0.094,-0.059,0.002,-1.688,-0.065,-0.365,-15.634,11.108,-13.382
1747665019.95,0.097,-0.058,0.010,-1.668,-0.073,-0.422,-16.613,11.060,-13.418
1747665019.96,0.067,-0.049,0.037,-1.715,-0.084,-0.467,-17.610,10.993,-13.527
1747665019.97,0.042,-0.060,0.072,-1.727,-0.061,-0.475,-18.628,10.926,-13.610
1747665019.98,0.040,-0.087,0.059,-1.759,-0.026,-0.444,-19.653,10.875,-13.686
1747665019.99,0.063,-0.100,0.049,-1.848,0.001,-0.375,-20.708,10.854,-13.725
1747665020.00,0.121,-0.094,0.049,-1.890,0.014,-0.277,-21.794,10.867,-13.705
1747665020.01,0.167,-0.070,0.055,-1.870,-0.015,-0.172,-22.876,10.899,-13.622
1747665020.02,0.164,-0.026,0.069,-1.836,-0.035,-0.104,-23.928,10.940,-13.483
1747665020.03,0.116,0.030,0.083,-1.835,-0.129,-0.123,-24.969,10.959,-13.334
1747665020.04,0.039,0.083,0.079,-1.825,-0.252,-0.171,-26.011,10.904,-13.206
1747665020.05,-0.019,0.100,0.047,-1.837,-0.317,-0.205,-27.057,10.782,-13.105
1747665020.06,-0.003,0.081,0.022,-1.838,-0.290,-0.206,-28.113,10.652,-13.015
1747665020.07,0.063,0.029,-0.028,-1.765,-0.294,-0.215,-29.147,10.526,-12.934
1747665020.08,0.092,-0.034,-0.064,-1.696,-0.320,-0.222,-30.140,10.381,-12.869
1747665020.09,0.079,-0.090,-0.046,-1.695,-0.348,-0.231,-31.113,10.218,-12.816
1747665020.10,0.054,-0.136,0.013,-1.729,-0.381,-0.228,-32.099,10.035,-12.768
1747665020.11,0.004,-0.162,0.077,-1.736,-0.353,-0.213,-33.097,9.853,-12.713
1747665020.12,-0.036,-0.166,0.110,-1.735,-0.295,-0.180,-34.091,9.706,-12.643
1747665020.13,-0.048,-0.144,0.082,-1.798,-0.259,-0.163,-35.099,9.598,-12.556
1747665020.14,-0.038,-0.107,0.015,-1.931,-0.229,-0.166,-36.164,9.520,-12.452
1747665020.15,-0.018,-0.066,0.022,-2.018,-0.213,-0.186,-37.296,9.459,-12.343
1747665020.16,-0.007,-0.040,0.043,-2.027,-0.189,-0.204,-38.457,9.407,-12.242
1747665020.17,0.010,-0.030,-0.001,-1.950,-0.208,-0.207,-39.598,9.352,-12.154
1747665020.18,0.042,-0.032,-0.063,-1.859,-0.250,-0.193,-40.690,9.273,-12.071
1747665020.19,0.063,-0.041,-0.087,-1.765,-0.217,-0.165,-41.728,9.194,-11.983
1747665020.20,0.077,-0.050,-0.047,-1.672,-0.132,-0.164,-42.711,9.154,-11.897
1747665020.21,0.073,-0.052,-0.004,-1.627,-0.103,-0.175,-43.656,9.140,-11.823
1747665020.22,0.029,-0.045,0.026,-1.601,-0.102,-0.191,-44.582,9.124,-11.762
1747665020.23,-0.027,-0.031,0.040,-1.591,-0.112,-0.214,-45.498,9.092,-11.721
1747665020.24,-0.075,-0.013,0.043,-1.585,-0.129,-0.211,-46.414,9.046,-11.689
1747665020.25,-0.097,0.006,0.025,-1.562,-0.132,-0.184,-47.319,9.004,-11.646
1747665020.26,-0.071,0.022,-0.028,-1.558,-0.136,-0.165,-48.213,8.973,-11.583
1747665020.27,-0.012,0.028,-0.068,-1.580,-0.100,-0.158,-49.113,8.958,-11.508
1747665020.28,0.055,0.021,-0.052,-1.563,-0.109,-0.186,-50.017,8.953,-11.441
1747665020.29,0.088,0.011,-0.034,-1.515,-0.149,-0.234,-50.904,8.900,-11.413
1747665020.30,0.082,0.006,-0.032,-1.484,-0.155,-0.280,-51.771,8.793,-11.436
1747665020.31,0.059,0.002,0.007,-1.471,-0.150,-0.301,-52.630,8.659,-11.497
1747665020.32,0.023,-0.006,0.012,-1.490,-0.144,-0.299,-53.491,8.514,-11.572
1747665020.33,-0.013,-0.019,-0.014,-1.533,-0.111,-0.291,-54.371,8.385,-11.639
1747665020.34,-0.033,-0.032,-0.004,-1.547,-0.069,-0.289,-55.267,8.281,-11.702
1747665020.35,-0.041,-0.040,0.020,-1.546,-0.053,-0.306,-56.166,8.185,-11.778
1747665020.36,-0.042,-0.049,0.055,-1.534,-0.062,-0.327,-57.063,8.069,-11.879
1747665020.37,-0.031,-0.052,0.063,-1.507,-0.083,-0.335,-57.949,7.926,-12.001
1747665020.38,-0.006,-0.043,0.051,-1.490,-0.120,-0.331,-58.822,7.752,-12.138
1747665020.39,0.026,-0.023,0.037,-1.471,-0.158,-0.325,-59.685,7.550,-12.281
1747665020.40,0.042,0.007,0.014,-1.437,-0.205,-0.329,-60.532,7.314,-12.436
1747665020.41,0.041,0.040,-0.017,-1.402,-0.273,-0.349,-61.361,7.012,-12.624
1747665020.42,0.031,0.057,-0.027,-1.402,-0.293,-0.363,-62.178,6.650,-12.848
1747665020.43,0.020,0.051,-0.013,-1.433,-0.303,-0.390,-63.005,6.245,-13.113
1747665020.44,0.000,0.027,0.012,-1.459,-0.288,-0.436,-63.853,5.779,-13.444
1747665020.45,-0.029,0.001,0.007,-1.440,-0.229,-0.472,-64.702,5.259,-13.857
1747665020.46,-0.041,-0.024,-0.003,-1.428,-0.184,-0.468,-65.542,4.713,-14.330
1747665020.47,-0.034,-0.057,0.004,-1.405,-0.152,-0.420,-66.369,4.189,-14.800
1747665020.48,-0.022,-0.080,0.030,-1.351,-0.125,-0.354,-67.171,3.725,-15.218
1747665020.49,-0.008,-0.087,0.009,-1.292,-0.095,-0.327,-67.935,3.309,-15.599
1747665020.50,-0.014,-0.076,-0.036,-1.256,-0.025,-0.349,-68.671,2.890,-16.011
1747665020.51,-0.029,-0.059,-0.044,-1.258,0.078,-0.375,-69.397,2.454,-16.493
1747665020.52,-0.046,-0.053,-0.012,-1.250,0.176,-0.413,-70.122,1.994,-17.062
1747665020.53,-0.077,-0.052,0.005,-1.233,0.236,-0.420,-70.839,1.501,-17.710
1747665020.54,-0.099,-0.054,0.008,-1.173,0.284,-0.408,-71.533,0.998,-18.399
1747665020.55,-0.101,-0.031,-0.014,-1.108,0.318,-0.394,-72.185,0.500,-19.105
1747665020.56,-0.079,-0.025,-0.040,-1.088,0.349,-0.393,-72.813,-0.009,-19.839
1747665020.57,-0.028,-0.027,-0.023,-1.057,0.333,-0.406,-73.424,-0.570,-20.633
1747665020.58,0.026,-0.026,-0.020,-1.013,0.262,-0.408,-74.012,-1.228,-21.496
1747665020.59,0.060,-0.013,-0.006,-0.964,0.200,-0.391,-74.568,-1.968,-22.400
1747665020.60,0.071,-0.017,0.008,-0.976,0.202,-0.362,-75.111,-2.734,-23.311
1747665020.61,0.069,-0.025,0.033,-0.987,0.203,-0.318,-75.662,-3.474,-24.198
1747665020.62,0.059,-0.026,0.041,-0.933,0.155,-0.293,-76.199,-4.202,-25.056
1747665020.63,0.021,-0.010,-0.027,-0.887,0.076,-0.304,-76.702,-5.013,-25.956
1747665020.64,-0.035,0.008,-0.092,-0.885,0.091,-0.319,-77.188,-5.948,-26.961
1747665020.65,-0.060,0.011,-0.054,-0.858,0.192,-0.320,-77.664,-6.929,-28.049
1747665020.66,-0.048,0.012,0.001,-0.799,0.284,-0.328,-78.108,-7.926,-29.209
1747665020.67,-0.036,0.023,0.015,-0.845,0.299,-0.351,-78.539,-9.019,-30.498
1747665020.68,-0.029,0.020,0.048,-0.921,0.263,-0.359,-79.004,-10.302,-31.970
1747665020.69,-0.017,-0.007,0.089,-0.904,0.206,-0.323,-79.482,-11.710,-33.541
1747665020.70,-0.010,-0.003,0.068,-0.831,0.083,-0.271,-79.930,-13.126,-35.067
1747665020.71,-0.024,0.001,0.001,-0.782,0.016,-0.241,-80.341,-14.545,-36.530
1747665020.72,-0.027,-0.011,-0.026,-0.796,0.072,-0.233,-80.736,-16.007,-38.034
1747665020.73,-0.012,-0.023,0.023,-0.874,0.221,-0.260,-81.155,-17.644,-39.773
1747665020.74,-0.003,-0.024,0.095,-0.778,0.507,-0.279,-81.559,-19.409,-41.767
1747665020.75,-0.001,-0.014,0.107,-0.764,0.537,-0.274,-81.906,-21.139,-43.834
1747665020.76,0.017,-0.018,0.098,-0.908,0.280,-0.239,-82.297,-23.198,-46.152
1747665020.77,-0.003,-0.002,0.035,-0.850,-0.006,-0.208,-82.707,-25.586,-48.640
1747665020.78,-0.051,0.049,-0.044,-0.762,-0.198,-0.194,-83.064,-28.127,-51.132
1747665020.79,-0.071,0.045,-0.042,-0.696,-0.161,-0.196,-83.373,-30.774,-53.688
1747665020.80,-0.069,0.026,0.027,-0.629,-0.003,-0.229,-83.629,-33.475,-56.359
1747665020.81,-0.072,0.019,0.074,-0.601,0.060,-0.290,-83.830,-36.380,-59.302
1747665020.82,-0.077,0.007,0.048,-0.612,0.022,-0.332,-83.992,-39.660,-62.628
1747665020.83,-0.083,-0.018,-0.024,-0.637,-0.037,-0.328,-84.133,-43.308,-66.290
1747665020.84,-0.096,-0.047,-0.057,-0.615,-0.003,-0.286,-84.262,-47.063,-70.048
1747665020.85,-0.108,-0.056,-0.061,-0.534,0.111,-0.261,-84.361,-50.536,-73.568
1747665020.86,-0.113,-0.063,-0.071,-0.504,0.210,-0.195,-84.438,-53.631,-76.772
1747665020.87,-0.097,-0.031,-0.090,-0.548,0.333,-0.136,-84.531,-56.561,-79.869
1747665020.88,-0.051,-0.013,-0.075,-0.613,0.460,-0.109,-84.647,-59.692,-83.245
1747665020.89,0.009,-0.016,-0.015,-0.615,0.490,-0.102,-84.764,-63.090,-86.934
1747665020.90,0.053,-0.011,0.027,-0.520,0.369,-0.096,-84.851,-66.345,-90.455
1747665020.91,0.081,-0.000,0.013,-0.423,0.142,-0.080,-84.906,-69.176,-93.444
1747665020.92,0.097,0.013,-0.046,-0.347,-0.023,-0.081,-84.937,-71.642,-95.949
1747665020.93,0.101,0.022,-0.057,-0.277,-0.099,-0.110,-84.938,-73.782,-98.061
1747665020.94,0.087,0.025,-0.024,-0.190,-0.103,-0.140,-84.905,-75.510,-99.736
1747665020.95,0.056,0.019,0.004,-0.100,-0.106,-0.154,-84.842,-76.694,-100.866
1747665020.96,0.020,-0.009,0.011,-0.044,-0.171,-0.155,-84.764,-77.417,-101.515
1747665020.97,0.004,-0.029,-0.031,-0.027,-0.248,-0.141,-84.685,-77.918,-101.898
1747665020.98,0.011,-0.026,-0.081,-0.086,-0.283,-0.117,-84.619,-78.535,-102.362
1747665020.99,0.016,-0.005,-0.067,-0.163,-0.200,-0.086,-84.576,-79.555,-103.245
1747665021.00,0.017,0.010,-0.020,-0.181,-0.081,-0.067,-84.550,-80.751,-104.366
1747665021.01,0.005,0.009,-0.015,-0.151,-0.020,-0.055,-84.531,-81.837,-105.431
1747665021.02,-0.018,-0.000,-0.012,-0.090,-0.052,-0.042,-84.512,-82.607,-106.188
1747665021.03,-0.032,-0.004,-0.025,-0.040,-0.143,-0.031,-84.496,-83.074,-106.601
1747665021.04,-0.042,-0.002,-0.038,-0.025,-0.187,-0.036,-84.479,-83.370,-106.802
1747665021.05,-0.054,0.012,-0.030,-0.029,-0.144,-0.042,-84.459,-83.659,-106.992
1747665021.06,-0.044,0.013,-0.000,-0.030,-0.047,-0.038,-84.438,-83.912,-107.192
1747665021.07,-0.022,-0.002,0.020,-0.031,0.008,-0.025,-84.423,-84.059,-107.331
1747665021.07,-0.000,-0.020,-0.000,-0.046,0.038,-0.000,-84.420,-84.261,-107.546
1747665021.09,0.007,-0.030,-0.041,-0.071,0.073,0.020,-84.430,-84.533,-107.851
1747665021.10,0.006,-0.039,-0.008,-0.058,0.120,0.030,-84.444,-84.840,-108.216
1747665021.11,0.008,-0.033,0.055,0.021,0.164,0.029,-84.456,-84.816,-108.275
1747665021.12,0.009,-0.008,0.068,0.073,0.168,0.016,-84.461,-84.372,-107.926
1747665021.12,0.004,0.031,0.065,0.066,0.102,0.017,-84.459,-83.823,-107.456
1747665021.13,0.013,0.063,0.058,0.049,-0.000,0.020,-84.461,-83.467,-107.128
1747665021.14,0.015,0.074,0.002,0.038,-0.104,0.023,-84.468,-83.254,-106.883
1747665021.15,-0.001,0.048,-0.054,-0.028,-0.142,0.023,-84.480,-83.264,-106.819
1747665021.16,-0.010,-0.002,-0.036,-0.077,-0.119,0.023,-84.496,-83.607,-107.087
1747665021.17,-0.006,-0.052,0.035,-0.044,-0.122,0.032,-84.516,-84.049,-107.464
1747665021.19,-0.011,-0.082,0.043,0.052,-0.137,0.037,-84.537,-84.152,-107.492
1747665021.19,-0.036,-0.083,0.006,0.139,-0.112,0.039,-84.554,-83.697,-106.960
1747665021.20,-0.069,-0.062,-0.011,0.209,-0.033,0.018,-84.560,-82.730,-105.946
1747665021.21,-0.099,-0.017,-0.030,0.217,0.019,-0.014,-84.546,-81.483,-104.691
1747665021.22,-0.119,0.031,-0.058,0.187,0.022,-0.052,-84.511,-80.301,-103.517
1747665021.23,-0.126,0.064,-0.074,0.139,0.028,-0.060,-84.460,-79.366,-102.590
1747665021.24,-0.096,0.069,-0.063,0.096,0.084,-0.026,-84.422,-78.698,-101.951
1747665021.25,-0.031,0.047,-0.016,0.068,0.129,0.025,-84.412,-78.204,-101.517
1747665021.26,0.036,0.014,0.040,0.061,0.157,0.090,-84.435,-77.733,-101.125
1747665021.27,0.078,-0.014,0.070,0.060,0.184,0.145,-84.492,-77.147,-100.632
1747665021.28,0.088,-0.031,0.077,0.068,0.186,0.155,-84.565,-76.458,-100.048
1747665021.29,0.069,-0.034,0.079,0.071,0.165,0.135,-84.632,-75.729,-99.417
1747665021.30,0.040,-0.034,0.064,0.072,0.133,0.098,-84.681,-75.026,-98.797
1747665021.31,0.017,-0.027,0.043,0.080,0.113,0.060,-84.708,-74.361,-98.199
1747665021.32,0.006,-0.010,0.020,0.098,0.083,0.034,-84.715,-73.684,-97.577
1747665021.33,0.010,0.008,0.006,0.103,0.009,0.029,-84.714,-73.001,-96.918
1747665021.34,0.025,0.022,-0.008,0.102,-0.060,0.040,-84.717,-72.368,-96.267
1747665021.35,0.047,0.031,-0.018,0.106,-0.096,0.052,-84.727,-71.738,-95.589
1747665021.36,0.061,0.031,-0.025,0.125,-0.172,0.060,-84.741,-71.054,-94.826
1747665021.37,0.054,0.020,-0.023,0.169,-0.250,0.050,-84.746,-70.232,-93.879
1747665021.38,0.025,-0.000,-0.036,0.215,-0.277,0.039,-84.734,-69.192,-92.681
1747665021.39,-0.013,-0.017,-0.023,0.236,-0.251,0.038,-84.710,-67.995,-91.326
1747665021.40,-0.053,-0.025,-0.000,0.251,-0.215,0.041,-84.678,-66.684,-89.875
1747665021.41,-0.092,-0.024,-0.011,0.273,-0.182,0.053,-84.642,-65.233,-88.306
1747665021.42,-0.103,-0.018,-0.031,0.312,-0.166,0.071,-84.604,-63.574,-86.540
1747665021.43,-0.088,-0.007,-0.044,0.345,-0.141,0.091,-84.560,-61.647,-84.515
1747665021.44,-0.056,0.015,-0.044,0.321,-0.070,0.110,-84.521,-59.653,-82.450
1747665021.45,-0.016,0.027,-0.004,0.311,-0.031,0.120,-84.487,-57.707,-80.469
1747665021.46,0.007,0.022,0.029,0.331,-0.038,0.118,-84.443,-55.735,-78.470
1747665021.47,0.008,0.006,0.012,0.357,-0.048,0.113,-84.384,-53.730,-76.431
1747665021.48,0.007,-0.014,0.004,0.406,-0.058,0.123,-84.306,-51.613,-74.274
1747665021.49,0.006,-0.027,0.010,0.480,-0.069,0.141,-84.202,-49.227,-71.839
1747665021.50,-0.000,-0.026,-0.005,0.535,-0.057,0.162,-84.070,-46.593,-69.154
1747665021.51,-0.002,-0.014,0.002,0.567,-0.056,0.194,-83.920,-43.823,-66.339
1747665021.52,0.003,-0.007,0.019,0.614,-0.119,0.218,-83.751,-40.956,-63.407
1747665021.53,-0.008,-0.005,-0.003,0.664,-0.235,0.220,-83.549,-38.085,-60.417
1747665021.54,-0.036,-0.002,-0.055,0.648,-0.271,0.208,-83.320,-35.423,-57.587
1747665021.55,-0.040,-0.001,-0.060,0.613,-0.161,0.179,-83.086,-33.087,-55.107
1747665021.56,-0.027,-0.002,-0.027,0.604,-0.046,0.157,-82.843,-30.998,-52.945
1747665021.57,-0.019,-0.008,0.016,0.643,-0.027,0.150,-82.579,-29.047,-50.960
1747665021.58,-0.018,-0.015,0.048,0.736,-0.064,0.164,-82.273,-27.094,-48.964
1747665021.59,-0.032,-0.013,0.025,0.780,-0.082,0.211,-81.928,-25.071,-46.878
1747665021.60,-0.032,-0.004,0.028,0.766,-0.110,0.267,-81.579,-23.015,-44.748
1747665021.61,-0.028,0.010,0.045,0.757,-0.210,0.268,-81.236,-21.081,-42.700
1747665021.62,-0.055,0.030,0.010,0.804,-0.258,0.212,-80.866,-19.412,-40.873
1747665021.63,-0.071,0.039,-0.020,0.812,-0.200,0.140,-80.458,-18.064,-39.370
1747665021.64,-0.046,0.023,0.034,0.754,-0.042,0.087,-80.052,-16.997,-38.217
1747665021.65,-0.005,0.004,0.107,0.751,0.089,0.073,-79.654,-16.067,-37.288
1747665021.66,0.001,-0.002,0.081,0.793,0.084,0.095,-79.243,-15.134,-36.397
1747665021.67,-0.047,-0.003,0.038,0.819,-0.065,0.153,-78.813,-14.171,-35.425
1747665021.68,-0.092,-0.018,0.000,0.832,-0.199,0.225,-78.381,-13.175,-34.329
1747665021.69,-0.094,-0.032,-0.020,0.892,-0.187,0.253,-77.933,-12.129,-33.141
1747665021.70,-0.074,-0.027,-0.040,0.938,-0.025,0.217,-77.447,-11.095,-32.017
1747665021.71,-0.031,-0.016,-0.018,0.957,0.137,0.151,-76.935,-10.164,-31.098
1747665021.72,0.025,-0.005,-0.003,0.952,0.212,0.102,-76.407,-9.375,-30.393
1747665021.73,0.030,0.009,-0.005,0.865,0.210,0.113,-75.903,-8.685,-29.807
1747665021.74,0.006,0.004,0.055,0.780,0.199,0.160,-75.451,-8.000,-29.221
1747665021.75,-0.011,-0.011,0.105,0.754,0.213,0.223,-75.034,-7.254,-28.569
1747665021.76,-0.021,-0.023,0.089,0.755,0.281,0.287,-74.624,-6.391,-27.820
1747665021.77,-0.027,-0.030,0.087,0.775,0.314,0.327,-74.209,-5.429,-27.000
1747665021.78,-0.044,-0.032,0.050,0.821,0.262,0.352,-73.772,-4.450,-26.155
1747665021.79,-0.068,-0.035,-0.022,0.850,0.123,0.367,-73.309,-3.530,-25.314
1747665021.80,-0.063,-0.036,-0.073,0.865,0.011,0.342,-72.833,-2.739,-24.521
1747665021.81,-0.035,-0.018,-0.096,0.944,0.051,0.249,-72.327,-2.112,-23.880
1747665021.82,0.001,0.012,-0.055,1.027,0.109,0.155,-71.765,-1.656,-23.450
1747665021.83,0.022,0.027,-0.008,1.010,0.177,0.139,-71.183,-1.291,-23.148
1747665021.84,0.026,0.013,0.055,0.933,0.275,0.192,-70.629,-0.858,-22.829
1747665021.85,0.005,-0.009,0.101,0.844,0.253,0.253,-70.122,-0.329,-22.433
1747665021.86,-0.056,-0.016,0.043,0.761,0.172,0.315,-69.665,0.234,-21.959
1747665021.87,-0.100,-0.026,-0.018,0.700,0.223,0.366,-69.247,0.851,-21.415
1747665021.88,-0.069,-0.039,0.010,0.724,0.389,0.372,-68.842,1.558,-20.846
1747665021.89,0.013,-0.045,0.047,0.863,0.396,0.316,-68.384,2.262,-20.342
1747665021.90,0.088,-0.043,-0.034,1.014,0.189,0.236,-67.840,2.767,-19.980
1747665021.91,0.122,-0.032,-0.160,1.079,0.009,0.185,-67.234,3.038,-19.744
1747665021.92,0.148,-0.021,-0.147,1.078,0.033,0.098,-66.613,3.150,-19.627
1747665021.93,0.164,-0.000,0.005,1.030,0.115,0.084,-66.010,3.230,-19.588
1747665021.94,0.131,0.008,0.150,0.984,0.137,0.133,-65.431,3.362,-19.521
1747665021.95,0.059,0.010,0.112,0.868,0.236,0.202,-64.896,3.607,-19.368
1747665021.96,-0.024,0.009,0.071,0.787,0.184,0.277,-64.419,3.960,-19.120
1747665021.97,-0.091,-0.002,0.054,0.815,0.043,0.351,-63.952,4.326,-18.782
1747665021.98,-0.094,-0.013,-0.036,0.895,0.055,0.391,-63.451,4.704,-18.387
1747665021.99,-0.003,-0.019,-0.049,1.050,0.038,0.366,-62.882,5.072,-18.010
1747665022.00,0.085,-0.020,-0.081,1.209,-0.093,0.244,-62.220,5.285,-17.755
1747665022.01,0.104,-0.003,-0.161,1.242,-0.257,0.087,-61.510,5.239,-17.692
1747665022.02,0.067,0.016,-0.127,1.181,-0.273,-0.055,-60.818,4.979,-17.805
1747665022.03,0.005,0.025,0.035,1.091,-0.051,-0.109,-60.175,4.695,-18.019
1747665022.04,-0.054,0.021,0.168,0.957,0.142,-0.059,-59.594,4.556,-18.215
1747665022.05,-0.125,0.004,0.136,0.761,0.246,0.060,-59.105,4.602,-18.294
1747665022.06,-0.158,-0.013,0.067,0.678,0.248,0.215,-58.696,4.820,-18.207
1747665022.07,-0.115,-0.034,0.043,0.762,0.193,0.345,-58.275,5.151,-17.967
1747665022.08,-0.035,-0.038,-0.015,0.852,0.132,0.406,-57.795,5.521,-17.641
1747665022.09,0.045,-0.027,-0.025,0.963,0.009,0.351,-57.259,5.829,-17.327
1747665022.10,0.080,-0.004,-0.066,1.107,-0.179,0.236,-56.653,5.945,-17.132
1747665022.11,0.061,0.029,-0.122,1.185,-0.331,0.114,-55.990,5.844,-17.073
1747665022.12,0.001,0.061,-0.102,1.199,-0.321,-0.040,-55.309,5.581,-17.155
1747665022.13,-0.083,0.094,-0.039,1.121,-0.115,-0.174,-54.651,5.271,-17.374
1747665022.14,-0.141,0.103,0.082,0.985,0.104,-0.207,-54.062,5.040,-17.659
1747665022.15,-0.144,0.069,0.148,0.881,0.191,-0.129,-53.540,4.929,-17.908
1747665022.16,-0.095,0.020,0.126,0.812,0.210,0.012,-53.063,4.944,-18.036
1747665022.17,0.014,-0.027,0.068,0.809,0.127,0.223,-52.597,5.082,-17.988
1747665022.18,0.134,-0.076,0.009,0.824,0.001,0.304,-52.121,5.263,-17.808
1747665022.19,0.203,-0.089,0.011,0.912,-0.099,0.344,-51.613,5.410,-17.582
1747665022.20,0.204,-0.091,0.033,1.013,-0.180,0.337,-51.047,5.509,-17.353
1747665022.21,0.148,-0.045,0.014,1.104,-0.289,0.251,-50.429,5.511,-17.177
1747665022.22,0.043,0.044,-0.016,1.159,-0.326,0.135,-49.773,5.389,-17.102
1747665022.23,-0.036,0.129,0.006,1.117,-0.223,0.049,-49.119,5.214,-17.118
1747665022.24,-0.063,0.184,0.082,1.006,-0.127,0.039,-48.513,5.082,-17.169
1747665022.25,-0.087,0.193,0.154,0.930,-0.115,0.118,-47.960,5.005,-17.180
1747665022.26,-0.069,0.149,0.097,0.859,-0.063,0.239,-47.440,5.013,-17.092
1747665022.27,0.021,0.080,0.016,0.808,-0.040,0.324,-46.954,5.118,-16.916
1747665022.28,0.094,0.004,0.021,0.845,-0.105,0.378,-46.469,5.245,-16.687
1747665022.29,0.078,-0.090,-0.001,0.915,-0.177,0.395,-45.947,5.348,-16.432
1747665022.30,0.033,-0.123,-0.006,0.961,-0.221,0.349,-45.393,5.402,-16.197
1747665022.31,-0.032,-0.080,-0.014,0.999,-0.214,0.231,-44.820,5.390,-16.035
1747665022.32,-0.089,0.004,0.013,1.040,-0.116,0.113,-44.231,5.334,-15.976
1747665022.33,-0.113,0.081,0.065,1.052,0.004,0.053,-43.630,5.294,-15.991
1747665022.34,-0.100,0.127,0.098,1.014,0.037,0.062,-43.037,5.284,-16.025
1747665022.35,-0.063,0.141,0.082,0.969,0.049,0.148,-42.469,5.313,-16.018
1747665022.36,0.019,0.118,0.050,0.933,0.060,0.271,-41.917,5.409,-15.926
1747665022.37,0.103,0.060,0.034,0.911,0.014,0.376,-41.376,5.552,-15.745
1747665022.38,0.114,-0.013,0.020,0.960,-0.058,0.420,-40.823,5.692,-15.511
1747665022.39,0.088,-0.069,-0.011,0.976,-0.136,0.406,-40.246,5.792,-15.273
1747665022.40,0.051,-0.068,-0.021,0.976,-0.153,0.336,-39.672,5.838,-15.069
1747665022.41,-0.002,-0.029,0.004,1.012,-0.091,0.241,-39.091,5.855,-14.932
1747665022.42,-0.040,0.022,0.022,1.042,-0.024,0.168,-38.494,5.868,-14.862
1747665022.43,-0.060,0.055,0.056,1.075,0.026,0.151,-37.885,5.887,-14.829
1747665022.44,-0.052,0.056,0.078,1.089,0.095,0.193,-37.260,5.948,-14.787
1747665022.45,-0.021,0.038,0.083,1.073,0.121,0.241,-36.631,6.054,-14.714
1747665022.46,-0.001,0.016,0.025,1.072,0.110,0.268,-36.009,6.179,-14.616
1747665022.47,0.017,-0.003,0.007,1.074,0.076,0.289,-35.380,6.297,-14.504
1747665022.48,0.045,-0.012,-0.011,1.046,0.068,0.279,-34.761,6.406,-14.388
1747665022.49,0.072,0.001,-0.014,1.059,0.027,0.256,-34.149,6.491,-14.286
1747665022.50,0.072,0.018,-0.022,1.069,0.011,0.246,-33.527,6.549,-14.197
1747665022.51,0.046,0.021,-0.005,1.071,0.030,0.232,-32.905,6.604,-14.118
1747665022.52,-0.007,0.023,0.024,1.093,0.044,0.220,-32.275,6.661,-14.052
1747665022.53,-0.075,0.020,0.032,1.102,0.080,0.210,-31.640,6.726,-13.994
1747665022.54,-0.120,0.024,0.049,1.122,0.108,0.198,-30.996,6.806,-13.947
1747665022.55,-0.116,0.030,0.040,1.127,0.165,0.158,-30.346,6.897,-13.918
1747665022.56,-0.091,0.059,0.028,1.124,0.111,0.094,-29.698,6.978,-13.926
1747665022.57,-0.096,0.088,0.008,1.108,0.042,0.051,-29.063,6.999,-13.968
1747665022.58,-0.097,0.096,-0.015,1.103,0.005,0.036,-28.435,6.982,-14.028
1747665022.59,-0.077,0.053,0.000,1.121,-0.009,0.030,-27.803,6.950,-14.095
1747665022.60,-0.048,0.041,0.020,1.139,-0.005,0.038,-27.159,6.914,-14.162
1747665022.61,-0.000,0.034,0.027,1.162,0.040,0.069,-26.501,6.897,-14.218
1747665022.62,0.072,0.011,0.032,1.156,0.129,0.062,-25.839,6.926,-14.262
1747665022.63,0.124,0.014,0.048,1.191,0.167,0.003,-25.173,6.984,-14.332
1747665022.64,0.114,0.051,0.036,1.207,0.115,0.016,-24.491,7.028,-14.423
1747665022.65,0.077,0.050,0.018,1.178,0.028,0.113,-23.811,7.047,-14.477
1747665022.66,0.049,0.028,0.015,1.156,-0.017,0.197,-23.140,7.050,-14.469
1747665022.67,0.037,0.033,0.029,1.165,-0.030,0.249,-22.467,7.055,-14.421
1747665022.68,0.020,0.030,0.048,1.233,-0.021,0.305,-21.769,7.068,-14.342
1747665022.69,0.011,0.044,0.047,1.291,0.024,0.331,-21.029,7.106,-14.242
1747665022.70,-0.009,0.055,0.037,1.276,0.102,0.319,-20.275,7.174,-14.141
1747665022.71,-0.046,0.070,0.031,1.269,0.201,0.262,-19.532,7.290,-14.063
1747665022.72,-0.076,0.046,0.009,1.242,0.233,0.225,-18.803,7.432,-14.014
1747665022.73,-0.067,-0.022,-0.024,1.239,0.214,0.184,-18.090,7.569,-13.988
1747665022.74,-0.038,-0.023,-0.050,1.248,0.138,0.157,-17.372,7.669,-13.988
1747665022.75,-0.021,-0.090,-0.048,1.248,0.059,0.165,-16.655,7.725,-13.993
1747665022.76,0.012,-0.086,-0.017,1.263,-0.004,0.161,-15.931,7.740,-13.997
1747665022.77,0.024,-0.033,0.015,1.260,-0.020,0.171,-15.207,7.725,-14.000
1747665022.78,0.013,0.028,0.078,1.311,0.000,0.177,-14.468,7.722,-13.999
1747665022.79,0.000,0.058,0.092,1.404,0.006,0.210,-13.686,7.724,-13.995
1747665022.80,-0.007,0.044,0.061,1.491,0.064,0.240,-12.847,7.746,-13.978
1747665022.81,-0.020,0.031,0.026,1.504,0.190,0.200,-11.977,7.818,-13.969
1747665022.82,-0.032,-0.049,-0.041,1.506,0.385,0.173,-11.116,7.980,-13.982
1747665022.83,-0.010,-0.116,-0.065,1.592,0.501,0.190,-10.228,8.233,-14.004
1747665022.84,0.020,-0.110,-0.072,1.576,0.475,0.211,-9.309,8.508,-14.024
1747665022.85,0.071,-0.153,-0.019,1.476,0.443,0.247,-8.428,8.773,-14.028
1747665022.86,0.117,-0.061,0.062,1.417,0.300,0.317,-7.590,8.993,-13.997
1747665022.87,0.102,0.057,0.074,1.409,0.135,0.370,-6.762,9.124,-13.927
1747665022.88,0.056,0.187,0.072,1.407,0.012,0.372,-5.934,9.174,-13.844
1747665022.89,-0.012,0.233,0.039,1.446,-0.067,0.348,-5.099,9.163,-13.770
1747665022.90,-0.084,0.185,0.020,1.479,-0.032,0.295,-4.243,9.135,-13.721
1747665022.91,-0.112,0.109,0.033,1.497,0.047,0.181,-3.382,9.143,-13.720
1747665022.92,-0.104,0.009,0.028,1.480,0.185,0.132,-2.532,9.200,-13.771
1747665022.93,-0.072,-0.204,-0.011,1.552,0.366,0.112,-1.665,9.357,-13.841
1747665022.94,-0.051,-0.254,-0.035,1.451,0.444,0.074,-0.805,9.584,-13.930
1747665022.95,-0.013,-0.227,-0.013,1.312,0.307,0.120,-0.024,9.795,-14.010
1747665022.96,0.088,-0.124,-0.008,1.339,0.177,0.192,0.735,9.932,-14.051
1747665022.97,0.103,0.090,-0.010,1.329,0.118,0.223,1.507,10.014,-14.064
1747665022.98,0.049,0.281,0.020,1.388,0.083,0.214,2.288,10.072,-14.077
1747665022.99,-0.071,0.340,-0.035,1.415,0.124,0.231,3.103,10.125,-14.092
1747665023.00,-0.201,0.245,-0.060,1.392,0.294,0.218,3.912,10.244,-14.106
1747665023.01,-0.204,0.081,-0.039,1.368,0.336,0.194,4.711,10.433,-14.133
1747665023.02,-0.093,-0.061,-0.069,1.311,0.280,0.169,5.479,10.616,-14.168
1747665023.03,0.069,-0.156,-0.055,1.248,0.151,0.133,6.211,10.747,-14.220
1747665023.04,0.210,-0.263,-0.058,1.198,-0.036,0.099,6.910,10.785,-14.287
1747665023.05,0.218,-0.149,-0.060,1.134,-0.123,0.067,7.570,10.746,-14.366
1747665023.06,0.144,-0.048,-0.045,1.186,-0.132,0.106,8.226,10.681,-14.443
1747665023.07,0.059,0.041,-0.011,1.188,-0.091,0.175,8.913,10.623,-14.489
1747665023.08,-0.011,0.131,0.060,1.167,-0.031,0.195,9.589,10.592,-14.508
1747665023.09,-0.046,0.148,0.036,1.196,0.053,0.217,10.275,10.597,-14.516
1747665023.10,-0.072,0.098,-0.049,1.188,0.162,0.226,10.970,10.657,-14.518
1747665023.11,-0.082,0.027,-0.082,1.148,0.283,0.238,11.649,10.786,-14.512
1747665023.12,-0.043,-0.063,-0.098,1.140,0.309,0.197,12.313,10.950,-14.511
1747665023.13,-0.009,-0.111,-0.105,1.082,0.186,0.185,12.965,11.102,-14.527
1747665023.14,0.044,-0.122,-0.092,1.037,0.070,0.140,13.571,11.180,-14.552
1747665023.15,0.059,-0.054,-0.082,1.008,-0.017,0.109,14.159,11.204,-14.598
1747665023.16,0.051,0.004,-0.063,0.986,-0.095,0.106,14.729,11.184,-14.651
1747665023.17,0.022,0.033,-0.042,0.947,-0.112,0.119,15.284,11.133,-14.695
1747665023.18,-0.014,0.088,-0.057,0.906,-0.063,0.109,15.816,11.092,-14.734
1747665023.19,-0.042,0.111,-0.075,0.866,-0.003,0.099,16.322,11.083,-14.774
1747665023.20,-0.053,0.075,-0.090,0.849,0.094,0.094,16.814,11.121,-14.816
1747665023.21,-0.044,0.035,-0.082,0.838,0.136,0.096,17.295,11.205,-14.859
1747665023.22,-0.025,-0.007,-0.067,0.851,0.145,0.124,17.783,11.291,-14.890
1747665023.23,0.008,-0.059,-0.065,0.731,0.148,0.105,18.240,11.390,-14.916
1747665023.24,0.104,-0.245,-0.030,0.685,0.007,0.082,18.645,11.444,-14.945
1747665023.25,0.135,-0.149,-0.097,0.677,-0.075,0.046,19.034,11.435,-14.987
1747665023.26,0.104,-0.043,-0.078,0.637,-0.062,0.013,19.407,11.413,-15.049
1747665023.27,0.022,-0.030,-0.025,0.597,-0.029,0.016,19.752,11.410,-15.116
1747665023.28,-0.032,-0.002,-0.045,0.571,-0.037,0.049,20.082,11.411,-15.168
1747665023.29,-0.021,0.083,-0.080,0.576,-0.027,0.062,20.410,11.403,-15.202
1747665023.30,-0.004,0.107,-0.087,0.594,0.042,0.050,20.744,11.418,-15.239
1747665023.31,-0.001,0.072,-0.099,0.565,0.102,0.028,21.076,11.476,-15.286
1747665023.32,-0.006,0.039,-0.109,0.486,0.169,0.020,21.372,11.576,-15.338
1747665023.33,-0.001,-0.039,-0.075,0.473,0.066,0.037,21.642,11.660,-15.380
1747665023.34,-0.026,-0.093,-0.028,0.444,0.007,0.013,21.904,11.696,-15.419
1747665023.35,0.022,-0.069,-0.029,0.403,-0.135,-0.041,22.139,11.683,-15.482
1747665023.36,0.100,-0.057,-0.079,0.365,-0.224,-0.044,22.348,11.606,-15.555
1747665023.37,0.095,-0.028,-0.074,0.357,-0.232,-0.061,22.543,11.502,-15.630
1747665023.38,0.016,0.057,-0.081,0.312,-0.167,-0.074,22.724,11.418,-15.714
1747665023.39,-0.076,0.059,-0.097,0.264,-0.080,-0.056,22.877,11.378,-15.789
1747665023.40,-0.088,0.013,-0.093,0.227,-0.039,-0.033,23.010,11.366,-15.845
1747665023.41,-0.064,0.007,-0.110,0.217,0.002,-0.034,23.129,11.374,-15.892
1747665023.42,-0.033,0.019,-0.106,0.162,0.054,-0.028,23.234,11.408,-15.935
1747665023.43,0.006,0.006,-0.098,0.138,0.035,-0.011,23.313,11.447,-15.966
1747665023.44,0.021,-0.027,-0.097,0.113,-0.001,-0.004,23.386,11.463,-15.984
1747665023.45,0.034,-0.057,-0.042,0.044,-0.027,-0.062,23.424,11.467,-16.013
1747665023.46,0.081,-0.103,0.007,0.025,-0.130,-0.059,23.436,11.442,-16.058
1747665023.47,0.099,-0.109,0.007,-0.020,-0.203,-0.035,23.432,11.354,-16.085
1747665023.48,0.083,-0.029,-0.022,-0.034,-0.196,-0.025,23.412,11.245,-16.100
1747665023.49,0.061,0.032,-0.063,-0.039,-0.143,0.007,23.391,11.147,-16.101
1747665023.50,0.032,0.057,-0.077,-0.055,-0.076,0.025,23.366,11.079,-16.086
1747665023.51,0.003,0.061,-0.086,-0.090,-0.045,0.051,23.328,11.032,-16.054
1747665023.52,-0.011,0.013,-0.078,-0.123,-0.003,0.055,23.273,10.998,-16.008
1747665023.53,-0.021,-0.053,-0.032,-0.099,0.090,0.062,23.217,11.005,-15.961
1747665023.54,-0.037,-0.048,0.032,-0.124,0.074,0.058,23.169,11.040,-15.911
1747665023.55,-0.032,0.006,0.027,-0.187,0.043,0.027,23.089,11.061,-15.869
1747665023.56,0.016,-0.027,-0.048,-0.172,-0.000,0.029,22.991,11.061,-15.835
1747665023.57,0.037,-0.062,-0.086,-0.231,0.027,0.034,22.883,11.052,-15.790
1747665023.58,0.003,-0.021,-0.060,-0.254,0.092,0.017,22.742,11.072,-15.748
1747665023.59,-0.016,-0.022,-0.080,-0.307,0.109,0.038,22.589,11.109,-15.699
1747665023.60,-0.034,-0.046,-0.070,-0.403,0.166,0.031,22.390,11.163,-15.633
1747665023.61,-0.026,-0.079,-0.071,-0.436,0.200,0.041,22.160,11.239,-15.562
1747665023.62,-0.023,-0.103,-0.065,-0.477,0.211,0.088,21.919,11.320,-15.468
1747665023.63,-0.015,-0.102,-0.048,-0.578,0.194,0.094,21.638,11.392,-15.347
1747665023.64,0.033,-0.110,-0.092,-0.689,0.106,0.077,21.292,11.432,-15.219
1747665023.65,0.078,-0.133,-0.108,-0.760,0.052,0.073,20.895,11.429,-15.086
1747665023.66,0.093,-0.150,-0.076,-0.847,0.013,0.067,20.454,11.398,-14.948
1747665023.67,0.083,-0.155,-0.096,-0.924,-0.027,0.065,19.964,11.343,-14.802
1747665023.68,0.034,-0.156,-0.105,-0.974,-0.015,0.073,19.442,11.275,-14.648
1747665023.69,-0.024,-0.151,-0.064,-1.099,0.066,0.058,18.871,11.237,-14.488
1747665023.70,-0.034,-0.138,-0.069,-1.188,0.072,0.060,18.233,11.228,-14.319
1747665023.71,0.016,-0.136,-0.148,-1.246,0.021,0.111,17.561,11.196,-14.128
1747665023.72,0.060,-0.095,-0.157,-1.319,-0.048,0.130,16.858,11.125,-13.906
1747665023.73,0.073,-0.018,-0.174,-1.382,-0.072,0.103,16.110,11.023,-13.683
1747665023.74,0.041,0.029,-0.198,-1.385,-0.092,0.100,15.346,10.917,-13.469
1747665023.75,-0.031,0.017,-0.145,-1.409,-0.016,0.092,14.574,10.829,-13.255
1747665023.76,-0.091,-0.019,-0.101,-1.458,0.041,0.054,13.778,10.790,-13.055
1747665023.77,-0.102,-0.052,-0.078,-1.472,0.072,0.019,12.959,10.781,-12.873
1747665023.78,-0.062,-0.063,-0.072,-1.488,0.056,-0.030,12.127,10.785,-12.713
1747665023.79,-0.001,-0.040,-0.088,-1.460,0.030,-0.069,11.293,10.785,-12.582
1747665023.80,0.015,0.008,-0.086,-1.475,-0.071,-0.080,10.464,10.751,-12.466
1747665023.81,-0.012,0.046,-0.094,-1.519,-0.117,-0.103,9.613,10.677,-12.357
1747665023.82,-0.030,0.051,-0.103,-1.553,-0.102,-0.107,8.739,10.595,-12.255
1747665023.83,-0.018,0.032,-0.077,-1.555,-0.084,-0.078,7.857,10.528,-12.143
1747665023.84,-0.005,0.016,-0.074,-1.558,-0.074,-0.077,6.975,10.467,-12.022
1747665023.85,-0.020,0.020,-0.069,-1.568,-0.056,-0.097,6.090,10.416,-11.908
1747665023.86,-0.037,0.023,-0.046,-1.587,-0.001,-0.111,5.193,10.388,-11.804
1747665023.87,-0.042,0.015,-0.022,-1.607,0.051,-0.120,4.283,10.396,-11.703
1747665023.88,-0.039,0.002,-0.010,-1.604,0.066,-0.147,3.368,10.424,-11.610
1747665023.89,-0.043,-0.001,-0.021,-1.605,0.076,-0.195,2.449,10.462,-11.541
1747665023.90,-0.043,0.004,-0.016,-1.601,0.091,-0.219,1.528,10.505,-11.493
1747665023.91,-0.046,-0.002,-0.014,-1.604,0.173,-0.233,0.603,10.580,-11.453
1747665023.92,-0.047,-0.004,-0.014,-1.603,0.200,-0.246,-0.323,10.689,-11.417
1747665023.93,-0.058,-0.005,-0.049,-1.595,0.217,-0.290,-1.247,10.809,-11.396
1747665023.94,-0.100,-0.006,-0.042,-1.595,0.255,-0.353,-2.177,10.943,-11.404
1747665023.95,-0.139,-0.012,-0.013,-1.590,0.282,-0.434,-3.111,11.095,-11.450
1747665023.96,-0.161,-0.028,-0.046,-1.638,0.262,-0.485,-4.066,11.248,-11.530
1747665023.97,-0.147,-0.046,-0.050,-1.652,0.231,-0.503,-5.045,11.378,-11.596
1747665023.98,-0.096,-0.064,-0.031,-1.655,0.221,-0.497,-6.029,11.499,-11.689
1747665023.99,-0.026,-0.075,-0.030,-1.638,0.176,-0.507,-7.007,11.602,-11.776
1747665024.00,0.002,-0.078,-0.059,-1.638,0.138,-0.554,-7.985,11.677,-11.910
1747665024.01,-0.014,-0.076,-0.028,-1.633,0.151,-0.616,-8.966,11.737,-12.049
1747665024.02,-0.056,-0.087,-0.000,-1.633,0.203,-0.674,-9.954,11.808,-12.264
1747665024.03,-0.101,-0.103,0.009,-1.667,0.232,-0.709,-10.954,11.899,-12.462
1747665024.04,-0.116,-0.120,0.007,-1.751,0.209,-0.686,-11.993,11.988,-12.708
1747665024.05,-0.071,-0.141,0.012,-1.805,0.178,-0.609,-13.066,12.063,-12.863
1747665024.06,0.034,-0.157,0.015,-1.833,0.166,-0.511,-14.149,12.139,-13.021
1747665024.07,0.153,-0.147,0.059,-1.834,0.137,-0.430,-15.229,12.217,-13.063
1747665024.08,0.221,-0.114,0.108,-1.810,0.094,-0.410,-16.297,12.280,-13.101
1747665024.09,0.211,-0.069,0.110,-1.766,0.042,-0.433,-17.346,12.314,-13.119
1747665024.10,0.160,-0.027,0.083,-1.745,-0.009,-0.445,-18.378,12.312,-13.154
1747665024.11,0.109,-0.006,0.026,-1.750,-0.065,-0.433,-19.405,12.282,-13.189
1747665024.12,0.068,-0.014,-0.027,-1.769,-0.114,-0.398,-20.438,12.221,-13.211
1747665024.13,0.055,-0.044,-0.049,-1.780,-0.120,-0.351,-21.473,12.155,-13.206
1747665024.14,0.057,-0.082,0.014,-1.798,-0.076,-0.315,-22.512,12.108,-13.174
1747665024.15,0.046,-0.117,0.085,-1.785,-0.003,-0.305,-23.552,12.107,-13.127
1747665024.15,0.034,-0.140,0.109,-1.742,0.003,-0.308,-24.572,12.126,-13.083
1747665024.16,0.023,-0.151,0.065,-1.734,0.029,-0.320,-25.579,12.147,-13.046
1747665024.18,0.027,-0.148,0.027,-1.719,0.109,-0.351,-26.582,12.198,-13.024
1747665024.18,0.046,-0.128,-0.008,-1.772,0.067,-0.366,-27.596,12.257,-13.013
1747665024.20,0.026,-0.105,-0.022,-1.845,-0.049,-0.368,-28.652,12.271,-12.996
1747665024.20,-0.006,-0.079,0.020,-1.849,-0.155,-0.352,-29.728,12.222,-12.970
1747665024.21,-0.009,-0.045,0.051,-1.818,-0.182,-0.316,-30.794,12.144,-12.930
1747665024.22,0.025,-0.004,0.047,-1.755,-0.216,-0.275,-31.827,12.062,-12.873
1747665024.23,0.090,0.042,0.002,-1.705,-0.265,-0.267,-32.823,11.957,-12.807
1747665024.24,0.155,0.074,-0.056,-1.716,-0.273,-0.307,-33.811,11.831,-12.756
1747665024.25,0.200,0.071,-0.076,-1.724,-0.329,-0.343,-34.813,11.674,-12.735
1747665024.26,0.192,0.016,-0.064,-1.689,-0.430,-0.337,-35.807,11.459,-12.731
1747665024.27,0.112,-0.074,-0.025,-1.666,-0.439,-0.311,-36.781,11.209,-12.724
1747665024.28,0.025,-0.146,0.057,-1.679,-0.363,-0.289,-37.750,10.992,-12.703
1747665024.29,-0.041,-0.187,0.097,-1.728,-0.290,-0.277,-38.735,10.824,-12.672
1747665024.30,-0.094,-0.200,0.073,-1.777,-0.189,-0.274,-39.747,10.713,-12.629
1747665024.31,-0.113,-0.184,0.044,-1.833,-0.105,-0.289,-40.789,10.661,-12.584
1747665024.32,-0.119,-0.139,0.024,-1.907,-0.093,-0.318,-41.871,10.628,-12.549
1747665024.33,-0.113,-0.083,0.021,-2.001,-0.139,-0.332,-43.000,10.585,-12.519
1747665024.34,-0.079,-0.027,0.035,-2.069,-0.207,-0.334,-44.181,10.510,-12.483
1747665024.35,-0.024,0.025,0.020,-2.029,-0.226,-0.331,-45.370,10.412,-12.445
1747665024.36,0.044,0.063,-0.030,-1.892,-0.202,-0.328,-46.507,10.306,-12.422
1747665024.37,0.100,0.086,-0.056,-1.735,-0.191,-0.327,-47.558,10.194,-12.422
1747665024.38,0.123,0.095,-0.050,-1.654,-0.223,-0.324,-48.540,10.062,-12.441
1747665024.39,0.113,0.092,-0.030,-1.636,-0.235,-0.325,-49.495,9.908,-12.471
1747665024.40,0.075,0.074,0.015,-1.633,-0.240,-0.326,-50.447,9.743,-12.509
1747665024.41,0.019,0.047,0.068,-1.628,-0.197,-0.304,-51.396,9.589,-12.543
1747665024.42,-0.023,0.016,0.062,-1.618,-0.137,-0.271,-52.337,9.486,-12.555
1747665024.43,-0.037,-0.011,0.012,-1.618,-0.131,-0.239,-53.271,9.422,-12.542
1747665024.44,-0.037,-0.031,-0.004,-1.644,-0.139,-0.211,-54.211,9.377,-12.499
1747665024.45,-0.027,-0.042,-0.001,-1.661,-0.147,-0.222,-55.163,9.344,-12.440
1747665024.46,-0.010,-0.043,0.003,-1.632,-0.179,-0.274,-56.115,9.272,-12.415
1747665024.47,0.011,-0.039,-0.009,-1.596,-0.217,-0.345,-57.053,9.118,-12.463
1747665024.48,0.027,-0.031,-0.034,-1.597,-0.228,-0.416,-57.987,8.873,-12.601
1747665024.49,0.044,-0.028,-0.032,-1.620,-0.242,-0.459,-58.933,8.563,-12.808
1747665024.50,0.053,-0.026,-0.019,-1.640,-0.319,-0.478,-59.894,8.184,-13.064
1747665024.51,0.051,-0.026,0.006,-1.631,-0.378,-0.460,-60.857,7.742,-13.342
1747665024.52,0.055,-0.019,0.039,-1.598,-0.346,-0.435,-61.804,7.289,-13.620
1747665024.53,0.064,-0.008,0.041,-1.564,-0.305,-0.416,-62.730,6.859,-13.899
1747665024.54,0.065,-0.001,0.067,-1.567,-0.349,-0.389,-63.644,6.426,-14.177
1747665024.55,0.048,0.007,0.076,-1.574,-0.366,-0.353,-64.560,5.987,-14.435
1747665024.56,0.023,0.014,0.076,-1.572,-0.336,-0.337,-65.475,5.564,-14.680
1747665024.57,-0.002,0.028,0.063,-1.536,-0.316,-0.354,-66.378,5.125,-14.958
1747665024.58,-0.025,0.028,0.028,-1.489,-0.311,-0.393,-67.256,4.624,-15.310
1747665024.59,-0.046,0.014,0.002,-1.449,-0.297,-0.432,-68.112,4.030,-15.762
1747665024.60,-0.058,-0.004,0.003,-1.369,-0.240,-0.466,-68.933,3.358,-16.319
1747665024.61,-0.061,-0.016,-0.014,-1.302,-0.198,-0.488,-69.708,2.619,-16.978
1747665024.62,-0.065,-0.032,-0.018,-1.300,-0.175,-0.511,-70.459,1.803,-17.731
1747665024.63,-0.067,-0.052,0.011,-1.326,-0.156,-0.540,-71.215,0.894,-18.592
1747665024.64,-0.062,-0.052,0.011,-1.370,-0.105,-0.545,-71.986,-0.101,-19.559
1747665024.65,-0.054,-0.051,-0.008,-1.395,0.027,-0.526,-72.774,-1.114,-20.597
1747665024.66,-0.046,-0.052,0.024,-1.371,0.156,-0.486,-73.557,-2.087,-21.671
1747665024.67,-0.040,-0.041,0.056,-1.307,0.161,-0.432,-74.310,-3.018,-22.738
1747665024.68,-0.055,-0.033,0.038,-1.258,0.115,-0.387,-75.025,-3.950,-23.786
1747665024.69,-0.063,-0.041,0.029,-1.262,0.158,-0.351,-75.726,-4.895,-24.838
1747665024.70,-0.030,-0.051,0.041,-1.252,0.298,-0.323,-76.424,-5.809,-25.913
1747665024.71,0.011,-0.043,0.016,-1.211,0.374,-0.313,-77.105,-6.705,-27.036
1747665024.72,0.018,-0.023,-0.020,-1.169,0.326,-0.299,-77.757,-7.661,-28.224
1747665024.73,0.012,-0.003,-0.022,-1.121,0.224,-0.285,-78.382,-8.727,-29.473
1747665024.74,0.016,0.008,-0.030,-1.036,0.172,-0.302,-78.962,-9.937,-30.818
1747665024.75,0.030,0.033,-0.040,-1.016,0.203,-0.336,-79.501,-11.341,-32.354
1747665024.76,0.046,0.011,0.034,-1.020,0.230,-0.352,-80.029,-12.965,-34.133
1747665024.77,0.062,-0.020,0.114,-1.024,0.176,-0.348,-80.548,-14.802,-36.120
1747665024.78,0.049,-0.063,0.125,-1.033,0.032,-0.334,-81.061,-16.890,-38.296
1747665024.79,0.003,-0.082,0.112,-1.054,-0.155,-0.337,-81.566,-19.322,-40.719
1747665024.80,-0.053,-0.068,0.062,-1.128,-0.302,-0.355,-82.079,-22.282,-43.575
1747665024.81,-0.077,-0.066,0.037,-1.153,-0.336,-0.386,-82.591,-25.890,-47.025
1747665024.82,-0.056,-0.072,0.037,-1.073,-0.220,-0.419,-83.047,-30.035,-51.040
1747665024.83,-0.021,-0.074,0.059,-1.016,-0.120,-0.430,-83.419,-34.537,-55.479
1747665024.84,0.004,-0.070,0.066,-1.026,-0.135,-0.402,-83.742,-39.420,-60.322
1747665024.85,0.008,-0.048,0.042,-0.949,-0.156,-0.377,-84.017,-44.593,-65.440
1747665024.86,-0.024,-0.013,-0.033,-0.836,-0.132,-0.387,-84.203,-49.720,-70.507
1747665024.87,-0.070,0.028,-0.081,-0.812,-0.021,-0.403,-84.313,-54.826,-75.595
1747665024.88,-0.091,0.043,-0.029,-0.751,0.093,-0.425,-84.357,-59.917,-80.734
1747665024.89,-0.107,0.057,-0.030,-0.618,0.120,-0.452,-84.316,-64.498,-85.403
1747665024.90,-0.135,0.076,-0.104,-0.579,0.083,-0.446,-84.214,-68.545,-89.528
1747665024.91,-0.153,0.097,-0.136,-0.594,0.196,-0.390,-84.099,-72.348,-93.424
1747665024.92,-0.126,0.109,-0.131,-0.579,0.441,-0.323,-83.995,-75.794,-97.069
1747665024.93,-0.080,0.052,-0.098,-0.595,0.608,-0.256,-83.906,-78.896,-100.497
1747665024.94,-0.043,0.004,-0.037,-0.607,0.584,-0.189,-83.839,-81.916,-103.880
1747665024.95,-0.035,-0.022,-0.029,-0.544,0.430,-0.128,-83.788,-84.736,-107.012
1747665024.96,-0.035,-0.042,-0.081,-0.487,0.290,-0.081,-83.750,-87.242,-109.735
1747665024.97,-0.008,-0.048,-0.100,-0.464,0.314,-0.057,-83.719,-89.545,-112.221
1747665024.98,0.031,-0.034,-0.032,-0.426,0.364,-0.036,-83.690,-91.663,-114.548
1747665024.99,0.062,-0.023,0.014,-0.355,0.352,-0.025,-83.664,-93.468,-116.574
1747665025.00,0.076,-0.008,-0.002,-0.269,0.274,-0.050,-83.630,-94.883,-118.178
1747665025.01,0.069,0.011,-0.041,-0.189,0.194,-0.099,-83.575,-95.865,-119.299
1747665025.02,0.057,0.031,-0.067,-0.169,0.168,-0.130,-83.497,-96.580,-120.120
1747665025.03,0.054,0.047,-0.052,-0.160,0.234,-0.144,-83.408,-97.199,-120.856
1747665025.04,0.027,0.058,-0.037,-0.158,0.311,-0.145,-83.314,-97.713,-121.534
1747665025.05,-0.030,0.051,-0.027,-0.190,0.276,-0.144,-83.218,-98.264,-122.262
1747665025.06,-0.089,-0.013,-0.012,-0.235,0.155,-0.111,-83.127,-99.044,-123.174
1747665025.07,-0.124,-0.100,-0.002,-0.222,0.012,-0.066,-83.055,-100.025,-124.209
1747665025.08,-0.127,-0.096,-0.010,-0.123,-0.087,-0.030,-83.010,-100.814,-124.980
1747665025.09,-0.096,-0.044,-0.016,-0.015,-0.109,0.002,-82.995,-101.163,-125.274
1747665025.10,-0.035,-0.010,-0.004,0.072,-0.132,0.033,-83.008,-101.109,-125.150
1747665025.11,0.014,0.025,0.006,0.137,-0.173,0.054,-83.045,-100.759,-124.711
1747665025.12,0.037,0.018,0.006,0.144,-0.210,0.032,-83.085,-100.224,-124.061
1747665025.13,0.032,-0.076,-0.017,0.079,-0.205,0.006,-83.107,-99.829,-123.542
1747665025.14,0.028,-0.041,-0.018,0.017,-0.203,-0.021,-83.107,-99.729,-123.324
1747665025.15,0.008,-0.003,-0.010,-0.011,-0.239,-0.045,-83.088,-99.830,-123.301
1747665025.16,-0.007,0.017,-0.016,0.003,-0.283,-0.053,-83.052,-99.951,-123.272
1747665025.17,-0.005,0.033,-0.035,0.028,-0.254,-0.053,-83.018,-99.989,-123.153
1747665025.18,0.004,0.036,-0.034,0.067,-0.138,-0.030,-82.996,-99.847,-122.895
1747665025.19,0.015,0.016,0.001,0.063,-0.010,-0.019,-82.991,-99.553,-122.556
1747665025.20,0.016,-0.002,0.042,0.002,0.150,-0.012,-82.988,-99.358,-122.399
1747665025.21,0.008,-0.014,0.073,-0.032,0.300,0.013,-82.989,-99.299,-122.472
1747665025.22,-0.009,-0.011,0.070,-0.057,0.349,0.065,-83.008,-99.335,-122.700
1747665025.23,-0.028,0.003,0.032,-0.049,0.304,0.109,-83.055,-99.473,-123.030
1747665025.24,-0.056,0.042,-0.025,0.014,0.223,0.125,-83.120,-99.478,-123.186
1747665025.25,-0.083,0.025,-0.061,0.048,0.169,0.113,-83.192,-99.257,-123.074
1747665025.26,-0.084,0.004,-0.037,0.065,0.139,0.079,-83.253,-98.936,-122.839
1747665025.27,-0.069,-0.008,-0.022,0.092,0.093,0.041,-83.295,-98.541,-122.509
1747665025.28,-0.041,-0.022,-0.033,0.105,0.033,0.014,-83.320,-98.096,-122.096
1747665025.29,-0.006,-0.032,-0.043,0.111,-0.014,-0.001,-83.330,-97.677,-121.677
1747665025.30,0.032,-0.022,-0.051,0.181,-0.029,-0.007,-83.334,-97.083,-121.066
1747665025.31,0.056,0.015,-0.083,0.242,-0.046,0.004,-83.343,-96.073,-120.028
1747665025.32,0.059,0.053,-0.089,0.187,-0.067,0.023,-83.359,-95.018,-118.931
1747665025.33,0.049,0.064,-0.041,0.098,-0.033,0.047,-83.379,-94.340,-118.219
1747665025.34,0.034,0.036,0.024,0.065,-0.005,0.062,-83.406,-93.957,-117.825
1747665025.35,0.027,-0.009,0.063,0.088,-0.000,0.071,-83.442,-93.601,-117.465
1747665025.36,0.013,-0.046,0.054,0.136,0.032,0.075,-83.484,-93.041,-116.910
1747665025.37,-0.004,-0.058,0.038,0.164,0.091,0.068,-83.529,-92.222,-116.121
1747665025.38,-0.016,-0.038,0.038,0.161,0.162,0.059,-83.571,-91.310,-115.277
1747665025.39,-0.026,-0.001,0.042,0.180,0.186,0.038,-83.604,-90.294,-114.358
1747665025.40,-0.044,0.029,0.023,0.177,0.113,0.031,-83.628,-89.212,-113.360
1747665025.41,-0.065,0.038,-0.003,0.137,0.020,0.035,-83.650,-88.331,-112.508
1747665025.42,-0.072,0.024,-0.008,0.098,0.043,0.049,-83.674,-87.745,-111.932
1747665025.43,-0.051,0.002,0.006,0.100,0.108,0.065,-83.707,-87.275,-111.502
1747665025.44,-0.019,-0.019,0.020,0.125,0.131,0.077,-83.746,-86.671,-110.966
1747665025.45,-0.009,-0.032,0.019,0.137,0.120,0.071,-83.782,-85.944,-110.307
1747665025.46,-0.008,-0.033,0.027,0.159,0.083,0.064,-83.811,-85.144,-109.562
1747665025.47,-0.011,-0.023,0.024,0.169,0.012,0.067,-83.836,-84.301,-108.740
1747665025.48,-0.022,-0.007,0.011,0.179,-0.048,0.073,-83.857,-83.423,-107.845
1747665025.49,-0.035,0.008,0.014,0.193,-0.066,0.081,-83.871,-82.471,-106.853
1747665025.50,-0.025,0.017,0.023,0.226,-0.078,0.084,-83.880,-81.387,-105.722
1747665025.51,-0.009,0.026,0.018,0.259,-0.101,0.082,-83.890,-80.148,-104.425
1747665025.52,-0.004,0.028,0.006,0.271,-0.133,0.086,-83.904,-78.827,-103.027
1747665025.53,-0.004,0.016,0.015,0.269,-0.109,0.084,-83.916,-77.511,-101.631
1747665025.54,-0.002,0.004,0.042,0.259,-0.083,0.079,-83.924,-76.249,-100.305
1747665025.55,-0.003,-0.002,0.061,0.240,-0.077,0.097,-83.933,-75.018,-99.019
1747665025.56,-0.001,-0.010,0.056,0.221,-0.075,0.108,-83.948,-73.832,-97.782
1747665025.57,-0.006,-0.022,0.046,0.239,-0.115,0.115,-83.957,-72.705,-96.595
1747665025.58,-0.010,-0.028,0.025,0.278,-0.204,0.115,-83.967,-71.494,-95.283
1747665025.59,-0.008,-0.023,-0.006,0.345,-0.269,0.119,-83.972,-70.015,-93.657
1747665025.60,-0.006,-0.015,-0.035,0.449,-0.255,0.118,-83.955,-68.002,-91.478
1747665025.61,-0.003,-0.008,-0.045,0.502,-0.212,0.118,-83.908,-65.512,-88.841
1747665025.62,0.002,0.000,-0.030,0.517,-0.191,0.122,-83.842,-62.903,-86.101
1747665025.63,0.004,0.011,-0.037,0.510,-0.153,0.165,-83.773,-60.268,-83.349
1747665025.64,0.004,0.011,-0.033,0.504,-0.125,0.236,-83.723,-57.557,-80.543
1747665025.65,0.005,-0.012,-0.019,0.550,-0.163,0.297,-83.684,-54.616,-77.505
1747665025.66,-0.006,-0.038,-0.035,0.645,-0.285,0.314,-83.618,-51.337,-74.080
1747665025.67,-0.018,-0.037,-0.080,0.694,-0.387,0.295,-83.502,-47.932,-70.456
1747665025.68,-0.021,-0.022,-0.096,0.681,-0.353,0.255,-83.344,-44.732,-67.016
1747665025.69,-0.005,-0.008,-0.062,0.673,-0.232,0.199,-83.154,-41.868,-63.963
1747665025.70,0.015,0.001,-0.041,0.739,-0.110,0.149,-82.913,-39.213,-61.189
1747665025.71,0.025,0.002,-0.043,0.800,-0.041,0.126,-82.613,-36.643,-58.559
1747665025.72,0.024,-0.002,-0.020,0.834,-0.022,0.149,-82.276,-34.155,-56.032
1747665025.73,0.015,-0.006,0.019,0.867,-0.033,0.198,-81.922,-31.675,-53.512
1747665025.74,0.000,-0.005,0.014,0.825,-0.038,0.253,-81.569,-29.227,-51.017
1747665025.75,-0.025,-0.001,0.021,0.779,-0.044,0.277,-81.239,-26.938,-48.679
1747665025.76,-0.057,0.010,0.051,0.802,-0.083,0.262,-80.901,-24.838,-46.517
1747665025.77,-0.102,0.022,0.019,0.817,-0.073,0.238,-80.534,-22.941,-44.547
1747665025.78,-0.133,0.012,0.002,0.821,0.053,0.226,-80.153,-21.200,-42.772
1747665025.79,-0.116,-0.017,0.054,0.922,0.189,0.207,-79.732,-19.504,-41.122
1747665025.80,-0.080,-0.031,0.043,0.985,0.195,0.191,-79.247,-17.868,-39.573
1747665025.81,-0.053,-0.029,-0.003,0.963,0.167,0.203,-78.748,-16.375,-38.156
1747665025.82,-0.016,-0.035,0.020,0.961,0.174,0.228,-78.251,-14.969,-36.818
1747665025.83,0.019,-0.033,0.011,0.884,0.244,0.253,-77.772,-13.616,-35.554
1747665025.84,0.009,-0.016,0.054,0.828,0.327,0.294,-77.333,-12.272,-34.346
1747665025.85,-0.021,-0.002,0.117,0.827,0.298,0.342,-76.907,-10.889,-33.119
1747665025.86,-0.076,0.001,0.070,0.841,0.120,0.356,-76.474,-9.575,-31.892
1747665025.87,-0.124,-0.005,-0.017,0.844,0.049,0.320,-76.030,-8.441,-30.766
1747665025.88,-0.103,-0.007,-0.057,0.897,0.203,0.245,-75.562,-7.467,-29.831
1747665025.89,-0.005,-0.003,-0.021,0.971,0.336,0.169,-75.047,-6.616,-29.116
1747665025.90,0.094,0.010,0.030,1.074,0.253,0.154,-74.477,-5.879,-28.536
1747665025.91,0.132,0.021,0.030,1.119,0.039,0.201,-73.858,-5.231,-27.946
1747665025.92,0.119,0.023,0.028,1.029,-0.048,0.261,-73.255,-4.616,-27.297
1747665025.93,0.100,0.010,0.095,0.953,-0.013,0.326,-72.704,-3.955,-26.585
1747665025.94,0.068,-0.007,0.084,0.905,0.079,0.383,-72.188,-3.191,-25.805
1747665025.95,-0.005,-0.020,0.056,0.892,0.093,0.423,-71.689,-2.354,-24.979
1747665025.96,-0.098,-0.038,0.045,0.945,0.079,0.444,-71.174,-1.514,-24.145
1747665025.97,-0.149,-0.050,0.014,0.999,0.131,0.448,-70.624,-0.687,-23.331
1747665025.98,-0.128,-0.042,-0.002,1.072,0.193,0.407,-70.036,0.103,-22.592
1747665025.99,-0.059,-0.016,-0.015,1.204,0.191,0.327,-69.386,0.769,-21.999
1747665026.00,0.001,0.019,-0.055,1.230,0.203,0.248,-68.681,1.273,-21.579
1747665026.01,0.029,0.046,-0.007,1.113,0.228,0.199,-68.007,1.672,-21.281
1747665026.02,0.020,0.046,0.125,1.016,0.213,0.184,-67.396,2.013,-21.049
1747665026.03,-0.035,0.041,0.120,0.928,0.200,0.222,-66.838,2.348,-20.813
1747665026.04,-0.088,0.032,0.056,0.898,0.227,0.265,-66.314,2.739,-20.520
1747665026.05,-0.116,0.016,0.055,0.927,0.257,0.262,-65.786,3.164,-20.208
1747665026.06,-0.126,0.004,0.070,0.997,0.196,0.252,-65.230,3.548,-19.931
1747665026.07,-0.089,0.003,0.028,1.082,0.102,0.228,-64.630,3.839,-19.703
1747665026.08,-0.015,0.015,-0.046,1.170,0.078,0.169,-63.979,4.038,-19.537
1747665026.09,0.058,0.036,-0.069,1.224,0.035,0.062,-63.290,4.106,-19.500
1747665026.10,0.091,0.068,-0.028,1.237,-0.063,0.001,-62.588,4.030,-19.577
1747665026.11,0.066,0.068,0.031,1.265,-0.082,-0.002,-61.874,3.886,-19.689
1747665026.12,0.020,0.061,0.079,1.128,0.032,0.036,-61.186,3.799,-19.768
1747665026.13,-0.025,0.044,0.179,0.962,0.157,0.124,-60.592,3.861,-19.759
1747665026.14,-0.030,-0.004,0.180,0.867,0.248,0.249,-60.062,4.101,-19.618
1747665026.15,-0.006,-0.046,0.038,0.800,0.280,0.351,-59.577,4.489,-19.348
1747665026.16,0.031,-0.058,0.037,0.836,0.160,0.420,-59.096,4.931,-18.984
1747665026.17,0.055,-0.061,-0.005,0.924,0.007,0.413,-58.575,5.297,-18.613
1747665026.18,0.078,-0.027,-0.067,1.034,-0.132,0.346,-57.998,5.534,-18.289
1747665026.19,0.080,0.018,-0.088,1.152,-0.257,0.188,-57.363,5.569,-18.117
1747665026.20,0.033,0.088,-0.091,1.258,-0.355,0.061,-56.669,5.396,-18.111
1747665026.21,-0.047,0.126,-0.039,1.280,-0.373,-0.025,-55.943,5.098,-18.216
1747665026.22,-0.105,0.139,0.037,1.180,-0.211,-0.061,-55.240,4.796,-18.370
1747665026.23,-0.105,0.109,0.116,0.986,0.065,-0.034,-54.624,4.640,-18.509
1747665026.24,-0.068,0.041,0.191,0.851,0.222,0.086,-54.105,4.688,-18.560
1747665026.25,0.004,-0.059,0.134,0.807,0.194,0.248,-53.627,4.889,-18.464
1747665026.26,0.104,-0.134,0.017,0.854,0.150,0.372,-53.141,5.171,-18.235
1747665026.27,0.203,-0.156,0.000,0.909,0.075,0.430,-52.617,5.480,-17.931
1747665026.28,0.248,-0.142,-0.025,0.964,-0.035,0.422,-52.062,5.739,-17.617
1747665026.29,0.224,-0.088,-0.052,1.063,-0.196,0.384,-51.464,5.892,-17.339
1747665026.30,0.124,-0.010,-0.049,1.157,-0.371,0.323,-50.811,5.900,-17.122
1747665026.31,-0.016,0.067,-0.050,1.189,-0.418,0.230,-50.127,5.774,-16.983
1747665026.32,-0.123,0.124,-0.018,1.177,-0.261,0.138,-49.444,5.620,-16.926
1747665026.33,-0.167,0.145,0.065,1.131,-0.056,0.064,-48.780,5.521,-16.939
1747665026.34,-0.177,0.113,0.097,1.047,0.102,0.046,-48.159,5.503,-16.984
1747665026.35,-0.146,0.025,0.094,0.972,0.118,0.089,-47.582,5.550,-17.015
1747665026.36,-0.076,-0.067,-0.011,0.880,0.019,0.206,-47.048,5.625,-16.965
1747665026.37,0.025,-0.143,-0.087,0.852,-0.007,0.259,-46.546,5.717,-16.840
1747665026.38,0.134,-0.167,-0.094,0.937,-0.050,0.301,-46.024,5.821,-16.681
1747665026.39,0.180,-0.158,-0.072,1.038,-0.181,0.293,-45.444,5.871,-16.520
1747665026.40,0.135,-0.094,-0.056,1.119,-0.217,0.235,-44.815,5.840,-16.394
1747665026.41,0.046,-0.011,0.013,1.195,-0.169,0.165,-44.145,5.773,-16.332
1747665026.42,-0.047,0.059,0.072,1.232,-0.064,0.122,-43.445,5.714,-16.316
1747665026.43,-0.115,0.101,0.113,1.152,0.078,0.087,-42.757,5.710,-16.329
1747665026.44,-0.131,0.120,0.111,1.017,0.168,0.108,-42.136,5.773,-16.342
1747665026.45,-0.092,0.101,0.040,0.938,0.218,0.182,-41.576,5.909,-16.309
1747665026.46,-0.014,0.070,0.013,0.915,0.154,0.312,-41.036,6.091,-16.197
1747665026.47,0.047,0.040,0.007,0.952,0.110,0.392,-40.487,6.292,-16.004
1747665026.48,0.078,0.031,-0.007,1.030,0.039,0.362,-39.901,6.465,-15.803
1747665026.49,0.044,0.050,-0.019,1.089,-0.048,0.275,-39.278,6.555,-15.657
1747665026.50,-0.049,0.087,-0.023,1.134,-0.107,0.187,-38.632,6.556,-15.583
1747665026.51,-0.128,0.104,-0.001,1.201,-0.078,0.116,-37.960,6.506,-15.572
1747665026.52,-0.155,0.101,0.073,1.238,0.054,0.082,-37.259,6.477,-15.602
1747665026.53,-0.106,0.093,0.147,1.191,0.205,0.063,-36.561,6.528,-15.651
1747665026.54,-0.016,0.089,0.130,1.079,0.217,0.094,-35.911,6.628,-15.692
1747665026.55,0.074,0.071,0.034,1.031,0.145,0.137,-35.310,6.738,-15.697
1747665026.56,0.124,0.031,-0.004,1.106,-0.004,0.235,-34.692,6.801,-15.659
1747665026.57,0.151,-0.082,-0.054,1.147,-0.110,0.327,-34.032,6.824,-15.555
1747665026.58,0.156,-0.143,-0.061,1.154,-0.172,0.337,-33.356,6.818,-15.419
1747665026.59,0.108,-0.111,-0.050,1.148,-0.195,0.275,-32.683,6.774,-15.303
1747665026.60,0.012,-0.059,-0.009,1.180,-0.131,0.204,-32.009,6.713,-15.237
1747665026.61,-0.060,-0.016,0.072,1.217,0.009,0.187,-31.313,6.694,-15.203
1747665026.62,-0.070,0.003,0.101,1.151,0.109,0.194,-30.627,6.748,-15.170
1747665026.63,-0.041,0.010,0.056,1.074,0.072,0.235,-29.982,6.832,-15.119
1747665026.64,-0.009,-0.003,0.006,1.053,0.058,0.310,-29.364,6.910,-15.023
1747665026.65,0.022,-0.023,0.002,1.040,0.110,0.325,-28.747,7.019,-14.897
1747665026.66,0.041,-0.030,-0.004,1.026,0.174,0.281,-28.140,7.150,-14.781
1747665026.67,0.017,-0.043,-0.043,1.015,0.081,0.269,-27.547,7.261,-14.690
1747665026.68,-0.006,-0.034,-0.008,1.083,0.083,0.296,-26.932,7.349,-14.596
1747665026.69,0.007,-0.006,0.027,1.131,0.098,0.277,-26.283,7.444,-14.503
1747665026.70,0.017,0.029,0.032,1.199,0.029,0.250,-25.604,7.513,-14.434
1747665026.71,-0.000,0.064,0.031,1.273,-0.018,0.240,-24.885,7.535,-14.383
1747665026.72,0.013,0.084,0.069,1.310,-0.005,0.219,-24.134,7.544,-14.346
1747665026.73,0.046,0.100,0.071,1.250,-0.023,0.163,-23.395,7.543,-14.331
1747665026.74,0.035,0.099,0.011,1.153,-0.045,0.131,-22.703,7.517,-14.344
1747665026.75,-0.019,-0.023,-0.039,1.076,-0.038,0.204,-22.062,7.497,-14.334
1747665026.76,-0.033,-0.103,-0.025,1.055,0.009,0.314,-21.445,7.515,-14.259
1747665026.77,-0.003,-0.109,-0.006,1.079,0.093,0.347,-20.817,7.587,-14.140
1747665026.78,0.038,-0.098,0.047,1.120,0.125,0.274,-20.171,7.687,-14.039
1747665026.79,0.037,0.031,0.049,1.151,0.023,0.211,-19.507,7.764,-13.993
1747665026.80,0.035,0.093,0.006,1.238,-0.171,0.254,-18.815,7.735,-13.952
1747665026.81,0.072,0.112,-0.022,1.334,-0.272,0.299,-18.066,7.622,-13.889
1747665026.82,0.095,0.106,0.067,1.415,-0.238,0.293,-17.263,7.495,-13.819
1747665026.83,0.070,0.080,0.110,1.419,-0.200,0.243,-16.437,7.386,-13.770
1747665026.84,0.007,0.029,0.031,1.339,-0.161,0.254,-15.635,7.290,-13.734
1747665026.85,-0.072,-0.038,-0.006,1.295,-0.042,0.313,-14.869,7.252,-13.666
1747665026.86,-0.124,-0.110,-0.029,1.204,0.076,0.347,-14.137,7.289,-13.564
1747665026.87,-0.132,-0.193,-0.043,1.163,0.185,0.326,-13.447,7.389,-13.455
1747665026.88,-0.073,-0.116,-0.028,1.240,0.234,0.274,-12.746,7.531,-13.370
1747665026.89,0.030,-0.069,0.007,1.321,0.190,0.211,-12.002,7.663,-13.329
1747665026.90,0.088,-0.039,-0.012,1.333,0.123,0.152,-11.230,7.766,-13.337
1747665026.91,0.057,-0.034,-0.042,1.285,0.099,0.188,-10.477,7.829,-13.342
1747665026.92,0.017,-0.002,-0.025,1.272,0.022,0.227,-9.739,7.869,-13.323
1747665026.93,-0.032,0.040,0.022,1.284,0.031,0.261,-8.998,7.884,-13.283
1747665026.94,-0.045,0.061,0.091,1.318,0.097,0.248,-8.242,7.926,-13.239
1747665026.95,-0.013,0.131,0.055,1.339,0.071,0.211,-7.473,7.986,-13.216
1747665026.96,-0.000,0.143,-0.010,1.333,0.017,0.197,-6.700,8.004,-13.206
1747665026.97,0.015,0.133,-0.052,1.351,-0.126,0.170,-5.918,7.970,-13.216
1747665026.98,-0.002,-0.016,-0.087,1.311,0.007,0.158,-5.154,7.930,-13.223
1747665026.99,-0.034,-0.165,-0.020,1.372,0.245,0.096,-4.387,7.996,-13.257
1747665027.00,-0.118,-0.190,-0.040,1.454,0.548,0.057,-3.584,8.217,-13.330
1747665027.01,-0.133,-0.201,-0.078,1.495,0.712,0.062,-2.740,8.578,-13.419
1747665027.02,-0.083,-0.133,-0.102,1.325,0.754,0.098,-1.935,8.997,-13.500
1747665027.03,0.007,-0.031,-0.063,1.240,0.600,0.189,-1.202,9.388,-13.537
1747665027.04,0.073,0.103,-0.017,1.193,0.448,0.265,-0.496,9.685,-13.522
1747665027.05,0.066,0.275,0.059,1.190,0.324,0.268,0.198,9.906,-13.485
1747665027.06,0.026,0.363,0.076,1.281,0.210,0.204,0.915,10.055,-13.471
1747665027.07,-0.030,0.299,-0.009,1.342,0.153,0.109,1.668,10.161,-13.515
1747665027.08,-0.026,0.198,-0.082,1.264,0.011,0.095,2.417,10.203,-13.596
1747665027.09,0.058,-0.147,-0.109,1.191,0.014,0.095,3.110,10.212,-13.665
1747665027.10,0.105,-0.224,-0.077,1.180,0.097,0.064,3.789,10.245,-13.741
1747665027.11,0.044,-0.105,-0.056,1.121,0.298,0.054,4.436,10.352,-13.824
1747665027.12,-0.007,-0.008,-0.026,1.146,0.314,0.146,5.082,10.522,-13.897
1747665027.13,-0.040,0.066,-0.056,1.077,0.276,0.205,5.738,10.697,-13.914
1747665027.14,-0.067,0.128,0.029,1.141,0.344,0.235,6.374,10.879,-13.906
1747665027.15,-0.061,0.224,0.061,1.148,0.265,0.240,7.049,11.053,-13.898
1747665027.16,-0.043,0.243,0.002,1.119,0.163,0.192,7.706,11.174,-13.899
1747665027.17,-0.023,0.164,-0.027,1.116,0.083,0.103,8.350,11.251,-13.942
1747665027.18,-0.015,0.033,-0.107,1.085,0.013,0.023,8.972,11.291,-14.030
1747665027.19,-0.004,-0.073,-0.154,1.067,-0.007,-0.027,9.576,11.312,-14.155
1747665027.20,0.013,-0.141,-0.169,1.018,-0.055,-0.062,10.154,11.319,-14.299
1747665027.21,0.005,-0.157,-0.130,1.005,-0.055,-0.083,10.713,11.314,-14.456
1747665027.22,-0.010,-0.137,-0.070,0.939,-0.018,-0.104,11.248,11.324,-14.620
1747665027.23,-0.021,-0.106,-0.004,0.903,0.017,-0.098,11.752,11.358,-14.785
1747665027.24,-0.012,-0.058,-0.004,0.905,0.056,-0.046,12.248,11.409,-14.929
1747665027.25,-0.002,0.029,-0.002,1.096,0.273,-0.047,12.788,11.500,-15.055
1747665027.25,-0.003,0.104,-0.078,0.801,-0.002,-0.016,13.294,11.553,-15.178
1747665027.27,0.017,0.220,0.042,0.922,0.039,-0.031,13.781,11.591,-15.296
1747665027.28,0.021,0.180,-0.084,0.886,0.049,-0.006,14.281,11.644,-15.413
1747665027.28,0.023,0.079,-0.052,0.916,0.034,0.011,14.788,11.697,-15.519
1747665027.30,0.070,0.051,-0.078,0.864,-0.077,0.016,15.287,11.710,-15.618
1747665027.30,0.140,-0.002,-0.108,0.812,-0.177,0.006,15.758,11.663,-15.711
1747665027.32,0.171,-0.056,-0.121,0.730,-0.251,-0.015,16.190,11.564,-15.806
1747665027.32,0.145,-0.068,-0.122,0.650,-0.210,-0.026,16.573,11.453,-15.901
1747665027.33,0.052,-0.090,-0.079,0.619,-0.066,-0.006,16.924,11.397,-15.986
1747665027.34,-0.048,-0.080,-0.036,0.679,0.041,0.037,17.289,11.412,-16.054
1747665027.35,-0.105,-0.017,-0.005,0.653,0.173,0.049,17.671,11.488,-16.106
1747665027.36,-0.079,0.033,0.052,0.634,0.135,0.044,18.034,11.598,-16.155
1747665027.37,0.012,0.016,0.026,0.636,0.044,0.053,18.396,11.662,-16.205
1747665027.38,0.094,-0.011,-0.025,0.606,-0.077,0.050,18.749,11.669,-16.249
1747665027.39,0.125,-0.004,-0.047,0.563,-0.180,0.021,19.081,11.611,-16.298
1747665027.40,0.101,0.012,-0.102,0.554,-0.216,-0.002,19.393,11.517,-16.363
1747665027.41,0.027,0.017,-0.124,0.527,-0.175,0.007,19.697,11.424,-16.428
1747665027.42,-0.051,0.022,-0.114,0.498,-0.067,0.031,19.984,11.362,-16.481
1747665027.43,-0.082,0.006,-0.112,0.469,0.024,0.028,20.257,11.366,-16.518
1747665027.44,-0.108,0.036,-0.036,0.459,0.084,0.022,20.520,11.415,-16.560
1747665027.45,-0.113,0.009,-0.012,0.438,0.071,0.009,20.772,11.476,-16.604
1747665027.46,-0.074,-0.056,0.005,0.411,-0.009,-0.016,21.009,11.515,-16.658
1747665027.47,0.009,-0.031,-0.052,0.403,-0.122,-0.048,21.233,11.499,-16.726
1747665027.48,0.058,-0.029,-0.094,0.358,-0.145,-0.071,21.440,11.451,-16.811
1747665027.49,0.042,-0.034,-0.088,0.317,-0.115,-0.066,21.621,11.407,-16.892
1747665027.50,0.012,-0.009,-0.085,0.270,-0.090,-0.036,21.780,11.371,-16.958
1747665027.51,-0.004,-0.021,-0.060,0.239,-0.036,-0.009,21.918,11.350,-17.002
1747665027.52,0.011,-0.034,-0.049,0.233,-0.032,-0.001,22.051,11.344,-17.034
1747665027.53,0.013,-0.022,-0.062,0.204,-0.017,-0.002,22.173,11.340,-17.060
1747665027.54,0.003,-0.030,-0.038,0.159,-0.017,0.006,22.275,11.340,-17.082
1747665027.55,0.019,-0.038,-0.028,0.132,-0.049,0.015,22.358,11.325,-17.092
1747665027.56,0.036,-0.015,-0.019,0.103,-0.062,-0.007,22.424,11.299,-17.104
1747665027.57,0.031,-0.004,-0.022,0.096,-0.065,-0.008,22.479,11.269,-17.121
1747665027.58,0.014,-0.011,-0.039,0.063,-0.080,0.002,22.524,11.232,-17.133
1747665027.59,0.006,-0.028,-0.054,0.027,-0.065,0.005,22.549,11.190,-17.136
1747665027.60,0.004,-0.034,-0.057,-0.001,-0.049,0.000,22.556,11.159,-17.136
1747665027.61,0.004,-0.031,-0.043,0.002,-0.032,-0.009,22.553,11.137,-17.137
1747665027.62,-0.016,-0.011,-0.037,0.019,-0.039,-0.006,22.561,11.120,-17.143
1747665027.63,-0.035,0.029,-0.034,0.021,-0.064,-0.014,22.571,11.094,-17.151
1747665027.64,-0.042,0.033,-0.027,0.021,-0.055,-0.048,22.580,11.068,-17.173
1747665027.65,-0.052,0.008,-0.020,0.010,-0.029,-0.068,22.581,11.062,-17.211
1747665027.66,-0.068,-0.002,0.003,0.015,-0.028,-0.073,22.579,11.064,-17.255
1747665027.67,-0.066,0.012,-0.023,0.033,-0.018,-0.084,22.584,11.068,-17.305
1747665027.68,-0.050,0.029,-0.036,0.067,-0.003,-0.094,22.604,11.086,-17.366
1747665027.69,-0.034,0.045,-0.041,0.064,-0.034,-0.083,22.634,11.100,-17.427
1747665027.70,-0.027,0.056,-0.054,0.050,-0.026,-0.078,22.657,11.100,-17.481
1747665027.71,-0.010,0.032,-0.059,0.060,-0.010,-0.073,22.672,11.102,-17.530
1747665027.72,-0.010,0.013,-0.034,0.067,0.003,-0.085,22.695,11.112,-17.581
1747665027.73,-0.039,0.035,0.000,0.044,0.031,-0.118,22.711,11.137,-17.646
1747665027.74,-0.036,0.005,0.024,0.059,0.077,-0.101,22.728,11.173,-17.713
1747665027.75,-0.013,-0.027,0.021,0.029,0.197,-0.088,22.740,11.252,-17.765
1747665027.76,0.007,-0.018,0.020,-0.028,0.261,-0.064,22.719,11.383,-17.806
1747665027.77,0.028,-0.048,-0.034,-0.037,0.297,0.015,22.681,11.533,-17.811
1747665027.78,0.073,-0.084,-0.060,-0.130,0.319,0.065,22.634,11.688,-17.773
1747665027.79,0.119,-0.077,-0.074,-0.214,0.302,0.095,22.541,11.837,-17.700
1747665027.80,0.139,-0.103,-0.081,-0.299,0.300,0.129,22.411,11.970,-17.600
1747665027.81,0.125,-0.109,-0.041,-0.405,0.243,0.115,22.230,12.082,-17.479
1747665027.82,0.086,-0.120,-0.033,-0.488,0.196,0.086,21.988,12.157,-17.360
1747665027.83,0.051,-0.140,-0.053,-0.486,0.203,0.090,21.730,12.227,-17.246
1747665027.84,0.019,-0.130,-0.029,-0.584,0.176,0.095,21.445,12.288,-17.119
1747665027.85,-0.041,-0.122,-0.063,-0.677,0.169,0.084,21.103,12.340,-16.983
1747665027.86,-0.023,-0.149,-0.152,-0.782,0.150,0.071,20.704,12.379,-16.842
1747665027.87,0.025,-0.160,-0.163,-0.864,0.116,0.064,20.253,12.402,-16.693
1747665027.88,0.029,-0.135,-0.152,-0.942,0.142,0.042,19.753,12.422,-16.543
1747665027.89,-0.009,-0.103,-0.140,-1.009,0.130,0.035,19.220,12.451,-16.394
1747665027.90,-0.035,-0.087,-0.106,-1.136,0.108,-0.003,18.620,12.471,-16.242
1747665027.91,-0.016,-0.095,-0.120,-1.147,0.064,-0.025,17.982,12.477,-16.103
1747665027.92,0.016,-0.094,-0.122,-1.220,0.042,-0.039,17.318,12.467,-15.968
1747665027.93,0.023,-0.075,-0.079,-1.256,0.027,-0.063,16.619,12.445,-15.839
1747665027.94,0.008,-0.045,-0.130,-1.260,0.087,-0.052,15.908,12.441,-15.713
1747665027.95,0.001,-0.006,-0.113,-1.275,0.123,-0.009,15.202,12.462,-15.569
1747665027.96,-0.011,-0.005,-0.090,-1.358,0.163,0.001,14.466,12.500,-15.400
1747665027.97,0.019,-0.038,-0.090,-1.422,0.104,-0.016,13.691,12.541,-15.228
1747665027.98,0.084,-0.075,-0.110,-1.471,0.019,-0.025,12.880,12.534,-15.055
1747665027.99,0.136,-0.092,-0.091,-1.524,-0.011,-0.033,12.042,12.498,-14.882
1747665028.00,0.143,-0.078,-0.061,-1.568,-0.033,-0.029,11.174,12.449,-14.707
1747665028.01,0.091,-0.054,-0.074,-1.606,-0.023,-0.005,10.288,12.396,-14.518
1747665028.02,0.029,-0.026,-0.073,-1.616,0.000,0.017,9.389,12.351,-14.314
1747665028.03,-0.008,-0.000,-0.046,-1.652,0.088,0.025,8.481,12.342,-14.099
1747665028.04,-0.010,0.016,-0.041,-1.684,0.095,0.032,7.552,12.368,-13.877
1747665028.05,0.000,0.015,-0.062,-1.691,0.026,0.029,6.614,12.374,-13.651
1747665028.06,-0.019,0.014,-0.095,-1.719,-0.028,-0.019,5.665,12.348,-13.436
1747665028.07,-0.062,-0.003,-0.087,-1.732,-0.025,-0.112,4.693,12.315,-13.261
1747665028.08,-0.094,-0.041,-0.074,-1.698,0.002,-0.203,3.717,12.300,-13.140
1747665028.09,-0.117,-0.068,-0.061,-1.707,0.019,-0.265,2.739,12.304,-13.064
1747665028.10,-0.143,-0.067,-0.038,-1.706,0.012,-0.331,1.749,12.310,-13.022
1747665028.11,-0.164,-0.055,-0.021,-1.679,-0.007,-0.379,0.762,12.311,-13.016
1747665028.12,-0.159,-0.035,0.010,-1.684,0.008,-0.417,-0.224,12.309,-13.022
1747665028.13,-0.105,-0.023,0.013,-1.691,0.012,-0.445,-1.220,12.317,-13.058
1747665028.14,-0.034,-0.019,-0.020,-1.685,0.010,-0.443,-2.216,12.319,-13.067
1747665028.15,-0.017,-0.011,-0.047,-1.678,0.002,-0.454,-3.210,12.322,-13.113
1747665028.16,-0.031,0.004,-0.087,-1.695,-0.043,-0.479,-4.208,12.305,-13.158
1747665028.17,-0.067,0.014,-0.084,-1.678,-0.024,-0.510,-5.210,12.276,-13.229
1747665028.18,-0.093,0.011,-0.012,-1.697,0.043,-0.538,-6.213,12.272,-13.316
1747665028.19,-0.078,-0.011,0.032,-1.753,0.075,-0.527,-7.243,12.298,-13.405
1747665028.20,-0.024,-0.051,0.041,-1.720,0.117,-0.480,-8.276,12.342,-13.477
1747665028.21,0.046,-0.084,0.034,-1.669,0.179,-0.485,-9.277,12.420,-13.539
1747665028.22,0.118,-0.081,0.037,-1.707,0.123,-0.503,-10.277,12.499,-13.630
1747665028.23,0.143,-0.070,0.027,-1.721,0.043,-0.518,-11.297,12.532,-13.704
1747665028.24,0.126,-0.065,0.007,-1.702,-0.015,-0.509,-12.313,12.524,-13.822
1747665028.25,0.099,-0.061,-0.005,-1.753,-0.082,-0.523,-13.337,12.480,-13.901
1747665028.26,0.077,-0.046,0.002,-1.819,-0.111,-0.493,-14.397,12.406,-14.039
1747665028.27,0.062,-0.046,0.017,-1.871,-0.129,-0.461,-15.484,12.327,-14.080
1747665028.28,0.050,-0.042,0.022,-1.934,-0.173,-0.441,-16.602,12.238,-14.101
1747665028.29,0.026,-0.036,0.052,-1.943,-0.174,-0.420,-17.738,12.133,-14.110
1747665028.30,0.007,-0.040,0.049,-1.938,-0.125,-0.423,-18.872,12.047,-14.109
1747665028.31,-0.001,-0.049,0.033,-1.871,-0.085,-0.439,-19.990,11.983,-14.125
1747665028.32,-0.010,-0.049,0.044,-1.817,-0.077,-0.433,-21.068,11.929,-14.154
1747665028.33,-0.019,-0.062,-0.001,-1.851,-0.103,-0.412,-22.141,11.869,-14.176
1747665028.34,-0.024,-0.071,-0.001,-1.883,-0.107,-0.395,-23.232,11.807,-14.183
1747665028.35,-0.035,-0.081,0.016,-1.909,-0.120,-0.384,-24.338,11.744,-14.180
1747665028.36,-0.065,-0.097,0.023,-1.924,-0.110,-0.366,-25.453,11.683,-14.167
1747665028.37,-0.083,-0.115,0.053,-1.950,-0.052,-0.334,-26.577,11.648,-14.136
1747665028.38,-0.046,-0.127,0.066,-1.944,0.041,-0.292,-27.704,11.672,-14.080
1747665028.39,0.022,-0.125,0.073,-1.900,0.109,-0.263,-28.812,11.755,-14.000
1747665028.40,0.074,-0.103,0.088,-1.871,0.060,-0.305,-29.898,11.844,-13.928
1747665028.41,0.084,-0.060,0.059,-1.862,-0.139,-0.376,-30.980,11.843,-13.896
1747665028.42,0.071,-0.028,-0.015,-1.915,-0.357,-0.418,-32.080,11.695,-13.901
1747665028.43,0.079,-0.022,-0.050,-1.991,-0.437,-0.408,-33.221,11.456,-13.912
1747665028.44,0.130,-0.038,0.016,-2.049,-0.449,-0.359,-34.396,11.210,-13.899
1747665028.45,0.181,-0.066,0.088,-2.050,-0.394,-0.299,-35.583,10.994,-13.848
1747665028.46,0.195,-0.094,0.110,-1.917,-0.284,-0.256,-36.731,10.845,-13.774
1747665028.47,0.176,-0.104,0.070,-1.661,-0.297,-0.229,-37.764,10.728,-13.703
1747665028.48,0.120,-0.108,-0.051,-1.488,-0.409,-0.202,-38.663,10.560,-13.649
1747665028.49,0.048,-0.098,-0.121,-1.545,-0.421,-0.191,-39.530,10.355,-13.590
1747665028.50,-0.014,-0.087,-0.037,-1.657,-0.326,-0.190,-40.451,10.188,-13.515
1747665028.51,-0.059,-0.084,0.010,-1.707,-0.229,-0.206,-41.419,10.080,-13.439
1747665028.52,-0.100,-0.082,0.002,-1.729,-0.136,-0.235,-42.407,10.019,-13.375
1747665028.53,-0.130,-0.078,0.014,-1.767,-0.089,-0.256,-43.414,9.990,-13.327
1747665028.54,-0.139,-0.068,0.006,-1.812,-0.095,-0.270,-44.448,9.965,-13.289
1747665028.55,-0.119,-0.055,-0.005,-1.797,-0.069,-0.251,-45.491,9.946,-13.246
1747665028.56,-0.062,-0.042,0.004,-1.707,0.011,-0.200,-46.502,9.976,-13.178
1747665028.57,0.009,-0.026,-0.000,-1.576,0.058,-0.170,-47.443,10.062,-13.091
1747665028.58,0.057,-0.006,-0.030,-1.516,0.055,-0.175,-48.325,10.159,-13.004
1747665028.59,0.071,0.009,-0.054,-1.514,0.032,-0.218,-49.196,10.235,-12.937
1747665028.60,0.060,0.021,-0.055,-1.502,-0.058,-0.287,-50.070,10.245,-12.920
1747665028.61,0.033,0.028,-0.058,-1.490,-0.155,-0.323,-50.941,10.156,-12.953
1747665028.62,0.020,0.022,-0.037,-1.476,-0.189,-0.330,-51.809,10.011,-13.012
1747665028.63,0.022,0.015,-0.006,-1.455,-0.215,-0.325,-52.665,9.845,-13.078
1747665028.64,0.033,0.008,-0.015,-1.448,-0.279,-0.305,-53.513,9.654,-13.141
1747665028.65,0.051,-0.002,-0.009,-1.435,-0.310,-0.276,-54.353,9.446,-13.186
1747665028.66,0.076,-0.017,0.009,-1.433,-0.281,-0.267,-55.186,9.249,-13.218
1747665028.67,0.086,-0.027,0.020,-1.432,-0.271,-0.286,-56.021,9.057,-13.262
1747665028.68,0.066,-0.027,0.020,-1.411,-0.278,-0.318,-56.850,8.834,-13.342
1747665028.69,0.036,-0.035,0.023,-1.383,-0.277,-0.334,-57.667,8.575,-13.460
1747665028.70,0.007,-0.045,0.029,-1.359,-0.256,-0.344,-58.469,8.300,-13.603
1747665028.71,-0.011,-0.038,-0.003,-1.365,-0.239,-0.349,-59.265,8.018,-13.767
1747665028.72,-0.012,-0.035,-0.025,-1.391,-0.208,-0.345,-60.074,7.738,-13.943
1747665028.73,0.005,-0.032,0.003,-1.355,-0.189,-0.347,-60.879,7.466,-14.128
1747665028.74,0.016,-0.018,0.010,-1.319,-0.224,-0.370,-61.659,7.157,-14.348
