Time,AccX,AccY,AccZ,GyroX,GyroY,GyroZ,Pitch,Roll,Yaw
1747666121.37,0.021,0.006,-0.012,-0.012,0.144,0.012,-85.069,39.166,40.442
1747666121.38,0.059,0.016,-0.021,0.003,0.128,0.019,-85.065,39.328,40.527
1747666121.39,0.087,0.012,-0.032,0.001,0.101,0.037,-85.053,39.514,40.648
1747666121.40,0.095,-0.004,-0.027,-0.018,0.063,0.038,-85.043,39.784,40.872
1747666121.40,0.087,-0.025,-0.021,-0.010,0.033,0.017,-85.040,40.009,41.070
1747666121.41,0.057,-0.036,-0.030,0.009,0.009,-0.010,-85.040,40.026,41.075
1747666121.42,0.029,-0.037,-0.038,0.035,-0.007,-0.023,-85.038,39.833,40.882
1747666121.43,0.029,-0.029,-0.040,0.061,-0.022,-0.014,-85.024,39.512,40.567
1747666121.45,0.048,-0.007,-0.035,0.096,-0.033,0.011,-84.991,39.169,40.239
1747666121.45,0.075,0.019,-0.041,0.121,-0.036,0.024,-84.934,38.795,39.884
1747666121.46,0.097,0.042,-0.046,0.100,-0.022,0.026,-84.872,38.471,39.576
1747666121.47,0.098,0.037,-0.023,0.080,-0.035,0.033,-84.821,38.258,39.377
1747666121.48,0.060,0.007,-0.012,0.068,-0.054,0.037,-84.773,38.136,39.280
1747666121.50,0.004,-0.033,-0.007,0.052,-0.045,0.020,-84.734,38.027,39.200
1747666121.50,-0.032,-0.053,0.004,0.041,0.002,-0.006,-84.709,37.877,39.064
1747666121.51,-0.023,-0.042,0.011,0.030,0.057,-0.009,-84.694,37.712,38.879
1747666121.52,0.006,-0.010,0.009,0.020,0.075,-0.006,-84.685,37.623,38.750
1747666121.53,0.022,0.026,0.009,0.022,0.061,-0.009,-84.677,37.553,38.641
1747666121.54,0.029,0.034,0.009,0.005,0.072,-0.003,-84.670,37.519,38.571
1747666121.55,0.042,0.019,0.029,-0.017,0.090,-0.010,-84.673,37.604,38.608
1747666121.56,0.046,0.003,0.034,-0.018,0.085,-0.024,-84.685,37.658,38.611
1747666121.57,0.040,-0.013,0.026,-0.010,0.069,-0.018,-84.698,37.654,38.562
1747666121.58,0.049,-0.027,0.038,-0.004,0.054,0.005,-84.704,37.674,38.547
1747666121.60,0.073,-0.034,0.040,0.000,0.017,0.016,-84.701,37.770,38.623
1747666121.60,0.086,-0.030,0.030,0.037,-0.045,-0.006,-84.692,37.742,38.601
1747666121.61,0.090,-0.011,0.005,0.082,-0.148,-0.019,-84.669,37.398,38.310
1747666121.62,0.096,0.012,-0.019,0.093,-0.261,-0.001,-84.633,36.903,37.930
1747666121.63,0.110,0.032,-0.018,0.076,-0.346,0.037,-84.588,36.509,37.710
1747666121.64,0.136,0.062,-0.009,0.023,-0.418,0.093,-84.543,36.438,37.858
1747666121.65,0.142,0.081,-0.011,-0.008,-0.513,0.118,-84.505,36.693,38.380
1747666121.66,0.081,0.050,-0.014,-0.023,-0.677,0.113,-84.473,36.978,39.005
1747666121.67,-0.017,-0.019,0.012,-0.065,-0.861,0.104,-84.455,37.226,39.697
1747666121.68,-0.087,-0.084,0.053,-0.105,-0.971,0.091,-84.459,37.482,40.483
1747666121.70,-0.088,-0.109,0.069,-0.155,-0.966,0.088,-84.487,37.805,41.366
1747666121.70,-0.039,-0.082,0.061,-0.190,-0.938,0.097,-84.534,38.320,42.428
1747666121.71,-0.010,-0.032,0.026,-0.212,-0.987,0.096,-84.590,38.987,43.646
1747666121.72,-0.030,0.030,-0.027,-0.204,-1.041,0.076,-84.651,39.614,44.860
1747666121.73,-0.088,0.072,-0.067,-0.161,-0.971,0.031,-84.712,40.016,45.845
1747666121.75,-0.159,0.055,-0.065,-0.114,-0.829,-0.017,-84.770,40.084,46.430
1747666121.75,-0.222,0.012,-0.057,-0.075,-0.676,-0.062,-84.825,39.841,46.617
1747666121.76,-0.268,-0.009,-0.077,-0.039,-0.528,-0.089,-84.878,39.350,46.471
1747666121.77,-0.288,-0.004,-0.088,-0.004,-0.348,-0.102,-84.922,38.713,46.084
1747666121.78,-0.296,0.019,-0.075,0.030,-0.143,-0.107,-84.953,37.984,45.492
1747666121.80,-0.299,0.039,-0.055,0.039,0.048,-0.095,-84.973,37.295,44.828
1747666121.80,-0.287,0.035,-0.035,0.039,0.217,-0.064,-84.981,36.803,44.257
1747666121.81,-0.242,0.005,-0.028,0.019,0.361,-0.016,-84.982,36.632,43.919
1747666121.82,-0.164,-0.029,-0.022,0.018,0.460,0.046,-84.969,36.883,43.934
1747666121.83,-0.065,-0.046,-0.023,0.035,0.517,0.115,-84.929,37.483,44.253
1747666121.84,0.029,-0.039,-0.022,0.046,0.527,0.164,-84.861,38.328,44.801
1747666121.85,0.097,-0.019,-0.021,0.045,0.535,0.188,-84.778,39.324,45.498
1747666121.87,0.147,-0.003,-0.007,0.052,0.521,0.192,-84.686,40.345,46.218
1747666121.87,0.177,0.012,0.015,0.067,0.444,0.162,-84.594,41.217,46.814
1747666121.88,0.182,0.024,0.023,0.076,0.295,0.123,-84.509,41.786,47.171
1747666121.89,0.183,0.026,0.023,0.090,0.125,0.094,-84.433,42.055,47.321
1747666121.90,0.188,0.016,0.035,0.115,-0.060,0.071,-84.357,42.031,47.278
1747666121.91,0.183,-0.002,0.039,0.141,-0.234,0.041,-84.280,41.693,47.022
1747666121.92,0.166,-0.016,0.011,0.132,-0.349,0.009,-84.211,41.096,46.591
1747666121.93,0.148,-0.023,-0.004,0.079,-0.415,-0.011,-84.167,40.479,46.191
1747666121.94,0.116,-0.023,0.019,0.038,-0.478,-0.011,-84.146,39.968,45.931
1747666121.95,0.050,-0.012,0.035,0.003,-0.546,-0.010,-84.141,39.558,45.817
1747666121.96,-0.025,0.001,0.039,-0.010,-0.487,-0.014,-84.147,39.238,45.796
1747666121.97,-0.068,0.011,0.056,0.004,-0.371,-0.011,-84.154,38.956,45.759
1747666121.98,-0.098,0.020,0.048,0.033,-0.245,-0.007,-84.148,38.680,45.658
1747666121.99,-0.133,0.045,0.022,0.052,-0.123,-0.017,-84.133,38.374,45.456
1747666122.00,-0.178,0.072,0.005,0.047,0.013,-0.046,-84.121,38.039,45.150
1747666122.01,-0.212,0.073,0.013,0.038,0.158,-0.061,-84.122,37.692,44.753
1747666122.02,-0.210,0.047,0.034,0.021,0.305,-0.050,-84.129,37.474,44.401
1747666122.03,-0.172,0.011,0.058,0.004,0.439,-0.018,-84.135,37.490,44.202
1747666122.04,-0.109,-0.015,0.070,-0.028,0.510,0.013,-84.141,37.794,44.232
1747666122.05,-0.038,-0.024,0.070,-0.049,0.488,0.025,-84.152,38.308,44.460
1747666122.06,0.027,-0.028,0.067,-0.025,0.428,0.031,-84.159,38.821,44.712
1747666122.07,0.091,-0.034,0.059,0.017,0.364,0.042,-84.148,39.220,44.885
1747666122.08,0.142,-0.035,0.049,0.048,0.250,0.045,-84.117,39.460,44.949
1747666122.09,0.154,-0.030,0.029,0.072,0.107,0.041,-84.075,39.542,44.928
1747666122.10,0.140,-0.014,0.004,0.109,-0.039,0.024,-84.023,39.389,44.756
1747666122.11,0.112,0.012,-0.029,0.147,-0.149,-0.002,-83.963,38.944,44.366
1747666122.12,0.071,0.032,-0.041,0.188,-0.176,-0.029,-83.894,38.223,43.737
1747666122.13,0.023,0.034,-0.027,0.229,-0.174,-0.054,-83.814,37.266,42.876
1747666122.14,-0.033,0.017,-0.022,0.268,-0.178,-0.064,-83.721,36.139,41.842
1747666122.15,-0.073,-0.010,-0.029,0.309,-0.182,-0.044,-83.605,34.940,40.740
1747666122.16,-0.080,-0.034,-0.043,0.327,-0.138,-0.011,-83.463,33.813,39.699
1747666122.17,-0.062,-0.041,-0.036,0.322,-0.036,0.027,-83.305,32.918,38.849
1747666122.18,-0.037,-0.032,-0.022,0.326,0.038,0.063,-83.136,32.273,38.198
1747666122.19,-0.030,-0.019,-0.032,0.375,0.098,0.083,-82.945,31.747,37.627
1747666122.20,-0.031,-0.003,-0.041,0.427,0.154,0.100,-82.722,31.216,37.020
1747666122.21,-0.019,0.011,-0.026,0.464,0.227,0.128,-82.469,30.739,36.429
1747666122.22,-0.005,0.017,0.006,0.495,0.257,0.155,-82.192,30.366,35.912
1747666122.23,-0.003,0.016,0.011,0.527,0.235,0.159,-81.893,30.024,35.423
1747666122.24,-0.018,0.011,0.014,0.542,0.192,0.147,-81.584,29.622,34.895
1747666122.25,-0.037,0.014,0.022,0.544,0.165,0.129,-81.274,29.165,34.330
1747666122.26,-0.045,0.016,0.017,0.549,0.170,0.115,-80.968,28.679,33.744
1747666122.27,-0.024,0.004,0.019,0.568,0.225,0.111,-80.657,28.206,33.150
1747666122.28,0.020,-0.010,0.045,0.588,0.219,0.098,-80.337,27.725,32.528
1747666122.29,0.053,-0.019,0.046,0.611,0.092,0.098,-80.008,27.192,31.893
1747666122.30,0.071,-0.027,0.027,0.628,-0.040,0.109,-79.666,26.605,31.283
1747666122.31,0.096,-0.026,0.033,0.648,-0.134,0.110,-79.313,25.993,30.711
1747666122.32,0.108,-0.021,0.055,0.709,-0.220,0.117,-78.937,25.324,30.133
1747666122.33,0.100,-0.014,0.042,0.735,-0.309,0.142,-78.531,24.625,29.573
1747666122.34,0.090,-0.012,0.032,0.772,-0.410,0.186,-78.102,23.975,29.120
1747666122.35,0.078,-0.004,0.000,0.819,-0.438,0.214,-77.639,23.372,28.755
1747666122.36,0.068,0.007,-0.008,0.844,-0.402,0.228,-77.153,22.823,28.438
1747666122.37,0.049,0.007,0.008,0.864,-0.373,0.216,-76.652,22.302,28.129
1747666122.38,0.003,0.004,0.001,0.848,-0.329,0.188,-76.155,21.783,27.801
1747666122.39,-0.036,-0.003,0.006,0.830,-0.318,0.166,-75.674,21.269,27.461
1747666122.40,-0.056,-0.021,0.025,0.819,-0.274,0.182,-75.199,20.798,27.149
1747666122.41,-0.043,-0.036,0.045,0.809,-0.194,0.215,-74.724,20.453,26.933
1747666122.42,-0.034,-0.020,0.014,0.828,-0.094,0.209,-74.244,20.198,26.753
1747666122.43,-0.063,0.009,0.018,0.865,-0.053,0.198,-73.749,19.958,26.542
1747666122.44,-0.104,0.026,0.037,0.871,-0.103,0.208,-73.243,19.712,26.330
1747666122.45,-0.139,0.035,0.017,0.925,-0.153,0.225,-72.720,19.456,26.220
1747666122.46,-0.143,0.032,-0.026,0.969,-0.068,0.255,-72.163,19.232,26.056
1747666122.47,-0.092,0.011,-0.019,0.975,0.089,0.242,-71.591,19.094,26.000
1747666122.48,-0.042,-0.004,0.003,0.949,0.236,0.214,-71.028,19.018,25.824
1747666122.49,-0.031,-0.021,0.049,0.908,0.367,0.192,-70.489,19.013,25.730
1747666122.50,-0.049,-0.027,0.080,0.898,0.346,0.191,-69.967,19.039,25.535
1747666122.51,-0.094,-0.011,0.021,0.871,0.221,0.232,-69.449,19.057,25.467
1747666122.52,-0.099,-0.002,-0.057,0.829,0.184,0.290,-68.941,19.123,25.421
1747666122.53,-0.052,-0.012,-0.047,0.839,0.259,0.306,-68.438,19.263,25.515
1747666122.54,0.018,-0.023,0.019,0.888,0.325,0.266,-67.916,19.413,25.496
1747666122.55,0.068,-0.000,0.023,0.923,0.305,0.203,-67.385,19.487,25.467
1747666122.56,0.057,0.038,0.011,0.935,0.208,0.159,-66.849,19.440,25.256
1747666122.57,0.029,0.065,0.020,0.902,0.103,0.125,-66.326,19.306,25.088
1747666122.58,0.015,0.078,0.043,0.837,0.059,0.092,-65.835,19.109,24.825
1747666122.59,-0.007,0.054,0.058,0.747,0.058,0.099,-65.390,18.932,24.683
1747666122.60,-0.045,0.007,0.064,0.713,0.074,0.103,-64.979,18.798,24.492
1747666122.61,-0.050,-0.031,0.032,0.712,0.061,0.132,-64.572,18.694,24.436
1747666122.62,-0.036,-0.049,-0.009,0.737,0.055,0.202,-64.152,18.637,24.337
1747666122.63,-0.006,-0.045,-0.003,0.823,0.088,0.225,-63.691,18.630,24.390
1747666122.64,0.014,-0.003,-0.003,0.842,0.123,0.217,-63.196,18.625,24.316
1747666122.65,0.012,0.041,0.018,0.825,0.105,0.195,-62.708,18.614,24.316
1747666122.66,-0.003,0.059,0.004,0.806,0.104,0.159,-62.232,18.567,24.200
1747666122.67,-0.004,0.051,0.006,0.752,0.169,0.142,-61.784,18.531,24.173
1747666122.68,0.007,0.014,0.057,0.782,0.178,0.155,-61.346,18.523,24.050
1747666122.69,0.004,-0.021,0.027,0.783,0.177,0.188,-60.886,18.531,24.057
1747666122.70,-0.015,-0.043,0.002,0.745,0.166,0.196,-60.440,18.569,23.987
1747666122.71,-0.035,-0.048,-0.014,0.752,0.131,0.188,-60.000,18.600,24.039
1747666122.72,-0.019,-0.038,-0.034,0.796,0.093,0.187,-59.550,18.596,23.961
1747666122.73,0.022,-0.029,-0.037,0.876,0.061,0.184,-59.063,18.553,23.981
1747666122.74,0.061,-0.015,-0.045,0.926,-0.036,0.187,-58.541,18.458,23.860
1747666122.75,0.083,-0.005,-0.054,0.949,-0.074,0.166,-57.999,18.304,23.833
1747666122.76,0.094,-0.002,-0.009,0.922,-0.008,0.133,-57.463,18.140,23.824
1747666122.77,0.078,-0.003,0.071,0.860,0.047,0.104,-56.957,18.008,23.650
1747666122.78,0.034,-0.020,0.049,0.780,0.007,0.113,-56.493,17.890,23.627
1747666122.79,0.003,-0.046,-0.023,0.726,-0.020,0.189,-56.059,17.808,23.535
1747666122.80,0.019,-0.066,-0.020,0.768,-0.005,0.261,-55.617,17.791,23.654
1747666122.81,0.061,-0.058,0.012,0.827,-0.003,0.301,-55.132,17.809,23.678
1747666122.82,0.073,-0.029,0.015,0.840,-0.071,0.296,-54.627,17.817,23.873
1747666122.83,0.039,0.012,-0.021,0.852,-0.159,0.248,-54.119,17.753,23.875
1747666122.84,-0.007,0.049,-0.052,0.829,-0.184,0.193,-53.621,17.615,23.993
1747666122.85,-0.024,0.061,-0.033,0.812,-0.135,0.146,-53.147,17.457,23.910
1747666122.86,-0.028,0.042,-0.009,0.816,-0.126,0.134,-52.680,17.300,23.955
1747666122.87,-0.050,0.007,-0.006,0.783,-0.137,0.165,-52.218,17.151,23.863
1747666122.88,-0.058,-0.029,0.018,0.739,-0.100,0.212,-51.771,17.049,23.970
1747666122.89,-0.021,-0.060,0.020,0.698,-0.071,0.241,-51.341,17.007,23.977
1747666122.90,0.027,-0.072,-0.012,0.663,-0.079,0.259,-50.928,16.993,24.178
1747666122.91,0.055,-0.063,-0.025,0.660,-0.105,0.277,-50.524,16.986,24.235
1747666122.92,0.064,-0.039,-0.011,0.668,-0.183,0.295,-50.113,16.961,24.472
1747666122.93,0.052,0.001,-0.015,0.683,-0.217,0.298,-49.696,16.904,24.550
1747666122.94,0.032,0.038,0.005,0.731,-0.183,0.271,-49.263,16.834,24.771
1747666122.95,-0.000,0.062,0.033,0.752,-0.163,0.223,-48.815,16.751,24.790
1747666122.96,-0.039,0.071,0.013,0.717,-0.151,0.166,-48.381,16.645,24.920
1747666122.97,-0.053,0.052,-0.026,0.679,-0.151,0.140,-47.974,16.525,24.874
1747666122.98,-0.030,0.010,-0.035,0.669,-0.158,0.151,-47.582,16.404,24.996
1747666122.99,0.000,-0.027,-0.018,0.668,-0.115,0.164,-47.191,16.300,24.965
1747666123.00,0.034,-0.037,0.015,0.652,-0.106,0.168,-46.801,16.222,25.135
1747666123.01,0.050,-0.018,0.026,0.617,-0.146,0.214,-46.423,16.156,25.141
1747666123.02,0.045,0.017,0.026,0.605,-0.186,0.201,-46.055,16.079,25.345
1747666123.03,0.056,0.058,0.037,0.581,-0.185,0.228,-45.698,15.995,25.380
1747666123.04,0.064,0.066,0.050,0.583,-0.252,0.236,-45.342,15.908,25.623
1747666123.05,0.059,0.062,0.008,0.585,-0.298,0.234,-44.983,15.790,25.678
1747666123.06,0.054,0.045,-0.024,0.602,-0.318,0.224,-44.623,15.646,25.931
1747666123.07,0.050,0.027,-0.026,0.628,-0.319,0.185,-44.251,15.484,25.959
1747666123.08,0.025,-0.006,-0.046,0.641,-0.266,0.145,-43.877,15.310,26.157
1747666123.09,-0.011,-0.021,-0.029,0.632,-0.218,0.110,-43.505,15.150,26.120
1747666123.10,-0.060,-0.024,-0.009,0.614,-0.201,0.102,-43.147,14.995,26.265
1747666123.11,-0.090,-0.035,0.009,0.585,-0.190,0.116,-42.799,14.858,26.227
1747666123.12,-0.086,-0.044,0.030,0.563,-0.118,0.136,-42.463,14.754,26.415
1747666123.13,-0.056,-0.034,0.014,0.513,-0.086,0.160,-42.144,14.702,26.418
1747666123.14,-0.014,-0.013,-0.022,0.467,-0.104,0.211,-41.847,14.681,26.670
1747666123.15,0.010,0.020,-0.044,0.458,-0.143,0.153,-41.566,14.641,26.716
1747666123.16,0.052,0.066,-0.029,0.455,-0.192,0.150,-41.292,14.558,26.944
1747666123.17,0.075,0.074,-0.025,0.461,-0.255,0.168,-41.017,14.451,26.974
1747666123.18,0.072,0.072,-0.020,0.446,-0.326,0.176,-40.742,14.312,27.233
1747666123.19,0.055,0.063,-0.002,0.440,-0.353,0.172,-40.474,14.145,27.278
1747666123.20,0.039,0.045,0.041,0.450,-0.316,0.164,-40.203,13.981,27.526
1747666123.21,0.022,0.029,0.029,0.424,-0.258,0.158,-39.936,13.839,27.564
1747666123.22,0.001,0.016,-0.038,0.365,-0.226,0.152,-39.697,13.735,27.811
1747666123.23,-0.043,0.005,-0.066,0.347,-0.224,0.144,-39.480,13.630,27.853
1747666123.24,-0.071,-0.025,-0.058,0.343,-0.157,0.165,-39.269,13.553,28.111
1747666123.25,-0.056,-0.026,-0.040,0.356,-0.114,0.154,-39.054,13.514,28.166
1747666123.26,-0.053,-0.012,-0.035,0.385,-0.103,0.118,-38.831,13.474,28.421
1747666123.27,-0.041,0.009,-0.004,0.417,-0.084,0.082,-38.595,13.423,28.424
1747666123.28,-0.013,0.022,0.011,0.438,-0.104,0.045,-38.348,13.352,28.616
1747666123.29,-0.000,0.023,-0.016,0.427,-0.108,0.023,-38.102,13.263,28.567
1747666123.30,-0.012,0.011,-0.037,0.416,-0.144,0.008,-37.867,13.149,28.736
1747666123.31,-0.028,-0.008,-0.055,0.418,-0.087,-0.000,-37.634,13.048,28.672
1747666123.32,-0.027,-0.004,-0.052,0.409,-0.067,-0.014,-37.403,12.959,28.795
1747666123.33,-0.021,0.021,-0.041,0.381,-0.014,-0.012,-37.187,12.890,28.722
1747666123.34,-0.002,0.043,-0.000,0.363,0.047,-0.001,-36.980,12.866,28.882
1747666123.35,0.003,0.048,0.041,0.335,0.045,0.009,-36.785,12.861,28.828
1747666123.36,-0.010,0.031,0.043,0.327,0.029,0.030,-36.600,12.858,29.014
1747666123.37,0.012,-0.002,0.020,0.335,0.024,0.059,-36.411,12.861,28.994
1747666123.38,0.051,-0.016,-0.005,0.360,0.009,0.057,-36.210,12.866,29.181
1747666123.39,0.069,0.003,-0.012,0.414,-0.030,0.019,-35.990,12.838,29.146
1747666123.40,0.065,0.020,-0.006,0.434,-0.067,0.002,-35.751,12.775,29.292
1747666123.41,0.061,0.017,-0.011,0.419,-0.083,0.001,-35.511,12.694,29.225
1747666123.42,0.048,0.011,0.010,0.413,-0.060,-0.010,-35.279,12.619,29.384
1747666123.43,0.047,-0.021,0.024,0.383,-0.045,-0.024,-35.059,12.546,29.309
1747666123.44,0.064,-0.052,0.020,0.327,-0.051,0.012,-34.861,12.492,29.467
1747666123.45,0.065,-0.053,-0.022,0.291,-0.126,0.062,-34.685,12.424,29.446
1747666123.46,0.062,-0.043,-0.048,0.255,-0.134,0.110,-34.522,12.360,29.688
1747666123.47,0.049,-0.015,-0.021,0.255,-0.136,0.149,-34.366,12.310,29.738
1747666123.48,0.041,0.020,-0.006,0.278,-0.114,0.166,-34.199,12.276,30.029
1747666123.49,0.051,0.048,-0.003,0.313,-0.080,0.150,-34.013,12.255,30.094
1747666123.50,0.050,0.056,0.005,0.321,-0.073,0.129,-33.817,12.238,30.353
1747666123.51,0.051,0.038,-0.007,0.307,-0.116,0.115,-33.627,12.205,30.390
1747666123.52,0.039,0.005,-0.043,0.302,-0.138,0.111,-33.444,12.155,30.648
1747666123.53,0.008,-0.022,-0.025,0.320,-0.152,0.094,-33.258,12.082,30.670
1747666123.54,-0.031,-0.038,0.006,0.305,-0.142,0.080,-33.072,12.006,30.907
1747666123.55,-0.054,-0.039,-0.011,0.298,-0.114,0.058,-32.896,11.935,30.911
1747666123.56,-0.066,-0.024,-0.016,0.288,-0.032,0.047,-32.725,11.888,31.140
1747666123.57,-0.048,0.003,0.004,0.277,-0.069,0.025,-32.563,11.849,31.125
1747666123.58,-0.013,0.029,-0.006,0.252,-0.061,0.016,-32.412,11.798,31.335
1747666123.59,0.010,0.053,-0.006,0.239,-0.089,0.025,-32.274,11.753,31.315
1747666123.60,0.002,0.060,-0.018,0.239,-0.109,0.016,-32.137,11.684,31.518
1747666123.61,0.005,0.065,-0.017,0.247,-0.105,0.012,-31.999,11.610,31.495
1747666123.62,0.016,0.059,-0.004,0.266,-0.089,0.004,-31.854,11.541,31.679
1747666123.63,0.019,0.042,0.002,0.265,-0.095,-0.004,-31.703,11.470,31.644
1747666123.64,0.026,0.029,-0.013,0.231,-0.103,-0.016,-31.565,11.397,31.826
1747666123.65,0.029,0.021,-0.009,0.225,-0.134,-0.010,-31.440,11.305,31.786
1747666123.66,0.026,0.015,0.002,0.219,-0.131,0.016,-31.316,11.214,31.960
1747666123.67,0.014,0.009,-0.029,0.215,-0.122,0.034,-31.192,11.135,31.949
1747666123.68,-0.005,0.010,-0.051,0.214,-0.095,0.031,-31.067,11.069,32.161
1747666123.69,-0.025,0.019,-0.029,0.225,-0.030,0.006,-30.941,11.023,32.146
1747666123.70,-0.051,0.022,0.019,0.238,0.017,-0.023,-30.813,11.003,32.326
1747666123.71,-0.063,-0.003,0.031,0.246,0.045,-0.030,-30.680,10.995,32.277
1747666123.72,-0.046,-0.047,0.012,0.248,0.042,-0.032,-30.544,10.995,32.455
1747666123.73,-0.016,-0.067,-0.010,0.230,0.027,-0.046,-30.413,10.988,32.400
1747666123.74,0.008,-0.048,-0.036,0.198,0.058,-0.045,-30.300,10.979,32.572
1747666123.75,0.021,-0.006,-0.031,0.186,-0.007,-0.047,-30.199,10.967,32.739
1747666123.76,0.019,0.038,-0.031,0.162,0.005,-0.031,-30.105,10.941,32.691
1747666123.77,0.006,0.068,-0.012,0.130,0.035,-0.005,-30.026,10.936,32.894
1747666123.78,0.007,0.062,-0.014,0.101,0.042,0.000,-29.964,10.949,32.878
1747666123.79,0.027,0.032,-0.048,0.095,0.056,0.000,-29.912,10.969,33.071
1747666123.80,0.045,0.016,-0.047,0.092,0.034,-0.013,-29.859,10.986,33.054
1747666123.81,0.048,0.020,-0.050,0.068,-0.008,-0.028,-29.814,10.981,33.226
1747666123.82,0.050,0.026,-0.050,0.035,-0.060,-0.044,-29.786,10.947,33.196
1747666123.83,0.046,0.025,-0.044,-0.015,-0.084,-0.046,-29.785,10.888,33.373
1747666123.84,0.055,0.013,-0.025,-0.081,-0.068,-0.036,-29.816,10.836,33.353
1747666123.85,0.080,0.004,-0.051,-0.150,-0.060,-0.009,-29.886,10.800,33.550
1747666123.86,0.081,0.012,-0.120,-0.214,-0.055,0.023,-29.990,10.780,33.578
1747666123.87,0.056,0.034,-0.116,-0.253,-0.012,0.055,-30.116,10.788,33.848
1747666123.88,0.049,0.059,-0.086,-0.278,0.005,0.031,-30.262,10.819,33.910
1747666123.89,0.020,0.073,-0.068,-0.272,-0.013,-0.012,-30.415,10.838,34.134
1747666123.90,-0.011,0.037,-0.044,-0.289,-0.012,-0.036,-30.574,10.841,34.153
1747666123.91,-0.008,-0.039,-0.032,-0.334,-0.001,-0.049,-30.752,10.843,34.365
1747666123.92,0.009,-0.078,-0.050,-0.410,0.051,-0.061,-30.964,10.864,34.376
1747666123.93,0.014,-0.050,-0.063,-0.499,0.077,-0.058,-31.226,10.910,34.581
1747666123.94,0.003,0.012,-0.095,-0.540,0.096,-0.051,-31.525,10.976,34.611
1747666123.95,-0.033,0.074,-0.075,-0.528,0.116,-0.057,-31.830,11.054,34.826
1747666123.96,-0.049,0.127,-0.056,-0.535,0.121,-0.076,-32.134,11.138,34.852
1747666123.97,-0.025,0.139,-0.053,-0.550,0.078,-0.111,-32.450,11.200,35.034
1747666123.98,0.004,0.103,-0.070,-0.571,0.030,-0.146,-32.778,11.223,35.021
1747666123.99,0.029,0.041,-0.080,-0.618,-0.005,-0.160,-33.128,11.216,35.148
1747666124.00,0.037,-0.026,-0.079,-0.658,-0.012,-0.162,-33.503,11.196,35.124
1747666124.01,0.022,-0.065,-0.071,-0.705,0.025,-0.169,-33.903,11.187,35.259
1747666124.02,-0.016,-0.069,-0.053,-0.752,0.060,-0.174,-34.331,11.203,35.241
1747666124.03,-0.061,-0.059,-0.058,-0.784,0.061,-0.176,-34.781,11.229,35.371
1747666124.04,-0.092,-0.052,-0.033,-0.787,0.114,-0.167,-35.240,11.270,35.359
1747666124.05,-0.076,-0.043,-0.005,-0.800,0.152,-0.151,-35.701,11.350,35.493
1747666124.06,-0.032,-0.036,-0.021,-0.815,0.103,-0.137,-36.170,11.431,35.506
1747666124.07,0.021,-0.029,-0.048,-0.825,0.088,-0.127,-36.643,11.497,35.652
1747666124.08,0.086,-0.020,-0.039,-0.843,0.113,-0.132,-37.124,11.572,35.680
1747666124.09,0.111,-0.014,-0.019,-0.867,0.092,-0.143,-37.618,11.649,35.821
1747666124.10,0.074,-0.021,-0.021,-0.879,0.060,-0.141,-38.123,11.708,35.847
1747666124.11,0.015,-0.045,-0.036,-0.902,0.046,-0.122,-38.637,11.761,35.980
1747666124.12,-0.027,-0.075,-0.061,-0.923,0.066,-0.110,-39.161,11.827,36.035
1747666124.13,-0.050,-0.100,-0.068,-0.919,0.110,-0.118,-39.690,11.913,36.166
1747666124.14,-0.059,-0.106,-0.032,-0.901,0.172,-0.148,-40.214,12.022,36.211
1747666124.15,-0.058,-0.092,-0.016,-0.895,0.208,-0.182,-40.735,12.144,36.281
1747666124.16,-0.057,-0.076,-0.021,-0.912,0.212,-0.203,-41.262,12.264,36.282
1747666124.17,-0.048,-0.061,-0.034,-0.933,0.223,-0.208,-41.802,12.387,36.332
1747666124.18,-0.024,-0.051,-0.034,-0.940,0.229,-0.188,-42.349,12.519,36.338
1747666124.19,0.001,-0.043,-0.019,-0.935,0.245,-0.152,-42.894,12.676,36.417
1747666124.20,0.018,-0.028,-0.016,-0.935,0.257,-0.132,-43.432,12.855,36.469
1747666124.21,0.027,-0.012,-0.022,-0.930,0.242,-0.128,-43.968,13.044,36.572
1747666124.22,0.018,-0.004,-0.023,-0.919,0.235,-0.137,-44.498,13.225,36.637
1747666124.23,0.009,-0.003,-0.014,-0.919,0.251,-0.152,-45.028,13.404,36.726
1747666124.24,0.007,-0.008,-0.020,-0.922,0.244,-0.172,-45.561,13.579,36.772
1747666124.25,0.002,-0.010,-0.036,-0.940,0.230,-0.193,-46.101,13.737,36.810
1747666124.26,0.002,-0.011,-0.016,-0.966,0.223,-0.200,-46.657,13.887,36.839
1747666124.27,0.012,-0.008,0.014,-0.980,0.214,-0.192,-47.224,14.041,36.863
1747666124.28,0.019,0.001,0.008,-0.972,0.181,-0.175,-47.790,14.193,36.915
1747666124.29,0.015,0.010,-0.007,-0.954,0.143,-0.174,-48.348,14.328,36.944
1747666124.30,0.004,0.011,-0.013,-0.945,0.154,-0.174,-48.899,14.456,37.002
1747666124.31,0.016,0.002,-0.009,-0.957,0.166,-0.179,-49.448,14.595,37.026
1747666124.32,0.026,-0.011,-0.014,-0.990,0.143,-0.175,-50.012,14.734,37.093
1747666124.33,0.024,-0.019,-0.012,-1.018,0.151,-0.171,-50.592,14.879,37.138
1747666124.34,0.040,-0.019,0.004,-1.013,0.162,-0.172,-51.178,15.039,37.225
1747666124.35,0.059,-0.016,0.000,-1.009,0.148,-0.162,-51.758,15.201,37.263
1747666124.36,0.078,-0.013,-0.005,-1.038,0.145,-0.141,-52.346,15.374,37.377
1747666124.37,0.109,-0.014,0.008,-1.067,0.122,-0.114,-52.945,15.570,37.459
1747666124.38,0.121,-0.013,-0.008,-1.091,0.058,-0.096,-53.553,15.769,37.642
1747666124.39,0.101,-0.009,-0.009,-1.096,0.005,-0.092,-54.168,15.949,37.771
1747666124.40,0.071,-0.003,0.013,-1.076,-0.045,-0.096,-54.779,16.103,37.975
1747666124.41,0.039,0.002,-0.006,-1.062,-0.056,-0.099,-55.380,16.240,38.094
1747666124.42,0.012,0.002,-0.020,-1.073,-0.044,-0.101,-55.980,16.382,38.301
1747666124.43,-0.012,-0.005,-0.025,-1.081,-0.003,-0.110,-56.587,16.542,38.427
1747666124.44,-0.026,-0.015,-0.063,-1.095,0.046,-0.137,-57.203,16.724,38.630
1747666124.45,-0.040,-0.028,-0.061,-1.127,0.072,-0.170,-57.835,16.914,38.733
1747666124.46,-0.047,-0.044,-0.029,-1.150,0.090,-0.191,-58.488,17.106,38.906
1747666124.46,-0.038,-0.051,-0.012,-1.131,0.106,-0.199,-59.144,17.307,38.977
1747666124.47,-0.026,-0.048,-0.026,-1.128,0.086,-0.207,-59.792,17.501,39.137
1747666124.48,-0.019,-0.043,-0.038,-1.142,0.030,-0.201,-60.446,17.682,39.211
1747666124.50,-0.009,-0.042,-0.062,-1.155,-0.033,-0.204,-61.105,17.841,39.395
1747666124.50,0.010,-0.041,-0.093,-1.165,-0.088,-0.222,-61.774,17.969,39.483
1747666124.52,0.029,-0.041,-0.076,-1.151,-0.111,-0.243,-62.445,18.058,39.649
1747666124.52,0.047,-0.043,-0.043,-1.128,-0.121,-0.267,-63.108,18.116,39.688
1747666124.53,0.048,-0.039,-0.026,-1.106,-0.093,-0.280,-63.763,18.150,39.796
1747666124.54,0.038,-0.035,-0.026,-1.100,-0.061,-0.292,-64.412,18.192,39.772
1747666124.55,0.021,-0.034,-0.031,-1.130,-0.072,-0.296,-65.068,18.235,39.861
1747666124.56,0.009,-0.030,-0.025,-1.182,-0.051,-0.282,-65.747,18.308,39.863
1747666124.57,0.016,-0.031,0.005,-1.170,-0.030,-0.265,-66.436,18.435,40.024
1747666124.59,0.017,-0.027,-0.004,-1.128,-0.093,-0.261,-67.105,18.556,40.070
1747666124.59,-0.001,-0.019,-0.030,-1.085,-0.136,-0.263,-67.752,18.631,40.224
1747666124.60,0.001,-0.020,-0.028,-1.034,-0.085,-0.268,-68.374,18.693,40.246
1747666124.61,0.025,-0.032,-0.022,-0.988,-0.047,-0.280,-68.969,18.750,40.346
1747666124.62,0.032,-0.044,-0.037,-1.010,-0.033,-0.275,-69.558,18.811,40.315
1747666124.63,0.031,-0.054,-0.010,-1.006,-0.078,-0.254,-70.155,18.904,40.444
1747666124.64,0.016,-0.048,-0.018,-0.950,-0.159,-0.248,-70.729,18.964,40.463
1747666124.65,-0.001,-0.026,-0.066,-0.934,-0.151,-0.232,-71.280,19.001,40.601
1747666124.66,0.016,-0.016,-0.040,-0.937,-0.046,-0.222,-71.827,19.102,40.653
1747666124.67,0.029,-0.017,0.022,-0.931,-0.010,-0.226,-72.373,19.262,40.833
1747666124.68,0.018,-0.025,0.007,-0.919,-0.017,-0.238,-72.915,19.415,40.882
1747666124.69,0.005,-0.032,-0.021,-0.932,0.001,-0.229,-73.457,19.574,41.053
1747666124.70,-0.005,-0.034,-0.005,-0.927,-0.007,-0.205,-74.001,19.786,41.153
1747666124.71,-0.015,-0.030,-0.018,-0.875,-0.047,-0.181,-74.523,20.028,41.418
1747666124.72,-0.021,-0.013,-0.046,-0.846,-0.046,-0.158,-75.016,20.289,41.583
1747666124.73,-0.026,0.009,-0.009,-0.828,0.015,-0.160,-75.495,20.597,41.765
1747666124.74,-0.043,0.030,0.031,-0.793,0.078,-0.194,-75.965,20.900,42.050
1747666124.75,-0.071,0.056,0.020,-0.755,0.131,-0.225,-76.420,21.150,42.091
1747666124.76,-0.094,0.080,0.017,-0.742,0.153,-0.242,-76.868,21.360,42.222
1747666124.77,-0.114,0.083,0.034,-0.693,0.159,-0.254,-77.303,21.528,42.146
1747666124.78,-0.110,0.055,0.014,-0.663,0.208,-0.241,-77.713,21.675,42.190
1747666124.79,-0.074,0.011,0.017,-0.706,0.278,-0.225,-78.123,21.913,42.131
1747666124.80,-0.032,-0.033,0.056,-0.752,0.324,-0.225,-78.558,22.271,42.318
1747666124.81,-0.006,-0.069,0.062,-0.747,0.291,-0.224,-79.005,22.677,42.382
1747666124.82,0.010,-0.097,0.034,-0.674,0.219,-0.202,-79.426,23.061,42.624
1747666124.83,0.041,-0.104,0.004,-0.618,0.165,-0.162,-79.806,23.438,42.731
1747666124.84,0.087,-0.073,0.004,-0.597,0.154,-0.123,-80.154,23.897,43.104
1747666124.85,0.109,-0.015,0.012,-0.608,0.118,-0.123,-80.495,24.440,43.414
1747666124.86,0.074,0.047,-0.005,-0.582,0.095,-0.177,-80.841,24.900,43.820
1747666124.87,0.033,0.078,-0.010,-0.576,0.141,-0.210,-81.184,25.202,43.897
1747666124.88,0.021,0.069,0.034,-0.661,0.223,-0.217,-81.554,25.581,44.176
1747666124.89,0.009,0.045,0.070,-0.743,0.231,-0.246,-81.974,26.115,44.418
1747666124.90,-0.025,0.024,0.062,-0.727,0.074,-0.260,-82.418,26.623,44.838
1747666124.91,-0.045,-0.005,-0.010,-0.681,-0.038,-0.232,-82.839,27.051,45.095
1747666124.92,-0.029,-0.042,-0.011,-0.664,-0.031,-0.192,-83.236,27.595,45.664
1747666124.93,0.007,-0.067,0.038,-0.667,-0.031,-0.159,-83.617,28.365,46.275
1747666124.94,0.023,-0.064,0.042,-0.671,-0.008,-0.170,-83.997,29.313,47.240
1747666124.95,0.002,-0.032,0.058,-0.641,-0.024,-0.203,-84.375,30.216,47.976
1747666124.96,-0.029,0.015,0.029,-0.631,-0.036,-0.233,-84.751,31.008,48.789
1747666124.97,-0.050,0.053,0.012,-0.611,-0.023,-0.249,-85.126,31.744,49.375
1747666124.98,-0.062,0.059,0.017,-0.596,0.043,-0.235,-85.492,32.553,50.183
1747666124.99,-0.050,0.034,0.033,-0.551,0.110,-0.208,-85.838,33.565,50.963
1747666125.00,-0.023,0.013,0.016,-0.478,0.095,-0.180,-86.143,34.659,52.000
1747666125.01,-0.005,0.015,-0.009,-0.471,0.097,-0.151,-86.417,35.904,53.021
1747666125.02,0.003,0.025,0.034,-0.510,0.093,-0.151,-86.693,37.613,54.679
1747666125.03,-0.019,0.029,0.046,-0.520,0.103,-0.189,-86.984,39.656,56.488
1747666125.04,-0.051,0.012,0.024,-0.487,0.142,-0.226,-87.280,41.658,58.423
1747666125.05,-0.049,-0.027,0.009,-0.477,0.217,-0.225,-87.570,43.749,60.241
1747666125.06,-0.016,-0.061,0.013,-0.446,0.321,-0.182,-87.840,46.520,62.860
1747666125.07,0.029,-0.054,0.022,-0.424,0.330,-0.134,-88.070,50.181,66.157
1747666125.08,0.041,-0.012,0.028,-0.450,0.291,-0.111,-88.277,55.313,71.114
1747666125.09,-0.000,0.021,0.056,-0.395,0.240,-0.124,-88.462,61.638,77.103
1747666125.10,-0.047,0.034,0.021,-0.308,0.170,-0.153,-88.619,67.443,82.793
1747666125.11,-0.080,0.021,-0.017,-0.301,0.156,-0.170,-88.764,73.244,88.328
1747666125.12,-0.070,-0.005,-0.008,-0.309,0.198,-0.164,-88.897,80.593,95.578
1747666125.13,-0.039,-0.019,0.011,-0.299,0.261,-0.146,-89.001,89.736,104.417
1747666125.14,-0.017,-0.010,0.018,-0.297,0.283,-0.137,-89.066,100.421,114.946
1747666125.15,0.002,0.002,0.011,-0.269,0.285,-0.139,-89.096,111.802,125.993
1747666125.16,0.015,0.011,-0.020,-0.243,0.289,-0.132,-89.099,122.446,136.472
1747666125.17,0.025,0.008,-0.029,-0.240,0.247,-0.114,-89.073,132.075,145.772
1747666125.18,0.019,-0.012,-0.019,-0.248,0.168,-0.093,-89.013,140.489,154.069
1747666125.19,0.015,-0.029,-0.017,-0.211,0.134,-0.062,-88.931,146.961,160.279
1747666125.20,0.033,-0.025,-0.031,-0.159,0.108,-0.034,-88.853,151.013,164.262
1747666125.21,0.041,-0.003,-0.035,-0.118,0.047,-0.024,-88.791,153.523,166.532
1747666125.22,0.032,0.022,-0.041,-0.111,0.002,-0.017,-88.738,155.334,168.335
1747666125.23,0.020,0.025,-0.048,-0.086,0.105,-0.033,-88.691,156.952,169.730
1747666125.24,0.016,0.010,-0.028,-0.024,0.195,-0.049,-88.670,158.536,171.225
1747666125.25,0.018,-0.009,-0.036,0.036,0.168,-0.033,-88.682,159.567,171.962
1747666125.26,0.030,-0.022,-0.064,0.093,0.071,-0.014,-88.721,159.615,171.940
1747666125.27,0.042,-0.018,-0.074,0.126,-0.050,-0.001,-88.781,158.751,170.871
1747666125.28,0.062,-0.011,-0.047,0.136,-0.180,0.021,-88.850,157.098,169.281
1747666125.29,0.071,-0.003,-0.026,0.152,-0.303,0.053,-88.915,153.874,166.007
1747666125.30,0.039,0.003,-0.017,0.193,-0.264,0.047,-88.991,149.324,161.625
1747666125.31,-0.006,0.006,0.012,0.238,-0.116,0.018,-89.087,143.895,156.118
1747666125.32,-0.039,-0.004,0.043,0.270,-0.024,0.019,-89.194,137.012,149.271
1747666125.33,-0.063,-0.015,0.039,0.291,0.017,0.050,-89.288,126.923,139.003
1747666125.34,-0.079,-0.015,0.036,0.290,0.080,0.100,-89.335,112.938,124.991
1747666125.35,-0.087,-0.000,0.061,0.252,0.163,0.128,-89.313,98.578,110.397
1747666125.36,-0.101,0.014,0.101,0.236,0.231,0.128,-89.244,87.391,99.096
1747666125.37,-0.126,0.018,0.098,0.257,0.271,0.106,-89.158,78.090,89.473
1747666125.38,-0.117,0.013,0.076,0.248,0.302,0.097,-89.062,70.259,81.477
1747666125.39,-0.071,0.005,0.068,0.244,0.314,0.091,-88.959,64.159,75.031
1747666125.40,-0.019,-0.012,0.061,0.271,0.290,0.106,-88.840,59.028,69.726
1747666125.41,0.036,-0.018,0.045,0.345,0.207,0.128,-88.688,54.082,64.469
1747666125.42,0.072,-0.007,0.014,0.424,0.083,0.146,-88.491,49.127,59.429
1747666125.43,0.079,0.005,-0.006,0.476,-0.038,0.139,-88.255,44.469,54.600
1747666125.44,0.068,0.015,0.003,0.502,-0.144,0.142,-87.995,40.419,50.602
1747666125.45,0.055,0.018,0.009,0.531,-0.209,0.158,-87.711,37.185,47.312
1747666125.46,0.034,0.013,-0.005,0.543,-0.238,0.156,-87.407,34.533,44.787
1747666125.47,0.005,0.007,0.007,0.497,-0.215,0.147,-87.113,32.482,42.727
1747666125.48,-0.004,-0.011,0.056,0.516,-0.208,0.149,-86.825,30.897,41.258
1747666125.49,-0.000,-0.025,0.024,0.565,-0.243,0.162,-86.512,29.407,39.750
1747666125.50,0.008,-0.025,0.013,0.591,-0.272,0.175,-86.176,28.092,38.579
1747666125.51,0.015,-0.009,0.033,0.622,-0.345,0.174,-85.824,26.913,37.440
1747666125.52,-0.003,0.013,0.023,0.669,-0.380,0.161,-85.451,25.677,36.413
1747666125.53,-0.022,0.024,0.031,0.672,-0.325,0.168,-85.063,24.518,35.314
1747666125.54,-0.020,0.010,0.076,0.664,-0.270,0.191,-84.674,23.662,34.624
1747666125.55,-0.027,-0.008,0.056,0.720,-0.252,0.199,-84.268,22.961,33.936
1747666125.56,-0.058,-0.015,-0.011,0.777,-0.241,0.198,-83.828,22.248,33.362
1747666125.57,-0.084,-0.007,-0.014,0.806,-0.256,0.194,-83.368,21.531,32.652
1747666125.58,-0.099,0.009,0.021,0.824,-0.254,0.190,-82.895,20.837,32.106
1747666125.59,-0.122,0.015,0.031,0.831,-0.120,0.172,-82.415,20.192,31.502
1747666125.60,-0.126,0.019,0.029,0.835,0.023,0.161,-81.935,19.636,30.968
1747666125.61,-0.120,0.015,-0.001,0.833,0.122,0.168,-81.454,19.195,30.385
1747666125.62,-0.095,0.005,0.006,0.801,0.255,0.199,-80.979,18.947,30.029
1747666125.63,-0.053,0.004,0.049,0.796,0.422,0.232,-80.509,18.953,29.745
1747666125.64,-0.021,0.005,0.079,0.785,0.433,0.260,-80.036,19.120,29.660
1747666125.65,-0.037,-0.005,0.068,0.773,0.293,0.303,-79.564,19.355,29.644
1747666125.66,-0.056,-0.015,0.019,0.785,0.234,0.356,-79.081,19.656,29.802
1747666125.67,-0.023,-0.016,0.022,0.777,0.252,0.395,-78.588,20.056,29.976
1747666125.68,0.031,-0.020,0.063,0.767,0.198,0.371,-78.097,20.455,30.249
1747666125.69,0.072,-0.020,0.028,0.736,0.126,0.300,-77.629,20.687,30.311
1747666125.70,0.104,-0.016,0.012,0.759,0.073,0.226,-77.177,20.697,30.263
1747666125.71,0.125,-0.009,0.006,0.740,-0.017,0.189,-76.733,20.529,29.993
1747666125.72,0.117,-0.004,0.006,0.750,-0.130,0.195,-76.301,20.297,29.734
1747666125.73,0.090,0.008,-0.002,0.801,-0.202,0.229,-75.841,20.043,29.572
1747666125.74,0.045,0.027,0.014,0.771,-0.220,0.252,-75.373,19.829,29.416
1747666125.75,-0.024,0.028,0.071,0.825,-0.217,0.237,-74.900,19.624,29.334
1747666125.76,-0.088,0.015,0.006,0.855,-0.154,0.214,-74.402,19.369,29.131
1747666125.77,-0.110,-0.002,-0.060,0.846,-0.025,0.214,-73.904,19.157,28.967
1747666125.78,-0.082,-0.009,-0.077,0.854,0.078,0.217,-73.404,19.032,28.775
1747666125.79,-0.057,0.002,-0.082,0.815,0.124,0.205,-72.911,18.954,28.634
1747666125.80,-0.057,0.010,-0.025,0.747,0.162,0.187,-72.455,18.910,28.462
1747666125.81,-0.046,-0.010,0.062,0.731,0.122,0.183,-72.022,18.879,28.343
1747666125.82,-0.025,-0.030,0.043,0.688,0.158,0.219,-71.601,18.878,28.235
1747666125.83,0.028,-0.046,0.040,0.681,0.282,0.299,-71.187,19.044,28.275
1747666125.84,0.098,-0.056,0.073,0.735,0.297,0.376,-70.742,19.358,28.388
1747666125.85,0.119,-0.046,0.062,0.737,0.167,0.439,-70.266,19.714,28.622
1747666125.86,0.122,-0.026,0.029,0.740,0.035,0.474,-69.782,20.053,28.892
1747666125.87,0.117,-0.004,-0.008,0.772,-0.049,0.465,-69.285,20.329,29.193
1747666125.88,0.102,0.009,-0.012,0.854,-0.134,0.416,-68.764,20.476,29.387
1747666125.89,0.082,0.020,-0.006,0.934,-0.187,0.331,-68.208,20.437,29.445
1747666125.90,0.051,0.051,0.059,0.923,-0.261,0.213,-67.655,20.219,29.317
1747666125.91,-0.028,0.104,0.101,0.889,-0.337,0.067,-67.141,19.799,29.052
1747666125.92,-0.114,0.137,0.040,0.858,-0.296,-0.025,-66.668,19.245,28.639
1747666125.93,-0.132,0.105,0.013,0.817,-0.245,-0.045,-66.221,18.685,28.196
1747666125.94,-0.114,0.025,-0.020,0.752,-0.225,0.009,-65.801,18.205,27.824
1747666125.95,-0.064,-0.048,-0.028,0.776,-0.147,0.107,-65.379,17.869,27.574
1747666125.96,0.024,-0.090,0.024,0.872,-0.119,0.187,-64.905,17.665,27.440
1747666125.97,0.072,-0.079,0.028,0.887,-0.160,0.219,-64.386,17.497,27.343
1747666125.98,0.065,-0.031,0.020,0.838,-0.090,0.238,-63.877,17.373,27.315
1747666125.99,0.063,0.003,0.008,0.820,0.027,0.246,-63.383,17.339,27.294
1747666126.00,0.027,0.008,0.015,0.779,0.021,0.270,-62.903,17.360,27.323
1747666126.01,-0.041,-0.013,0.024,0.727,0.048,0.326,-62.443,17.440,27.395
1747666126.02,-0.055,-0.037,0.013,0.686,0.098,0.378,-61.997,17.618,27.573
1747666126.03,-0.019,-0.045,-0.011,0.660,0.119,0.395,-61.564,17.856,27.773
1747666126.04,0.014,-0.045,-0.031,0.684,0.121,0.397,-61.131,18.104,28.022
1747666126.05,0.049,-0.039,-0.036,0.704,0.056,0.389,-60.684,18.320,28.207
1747666126.06,0.065,-0.023,-0.049,0.723,-0.030,0.375,-60.229,18.467,28.405
1747666126.07,0.071,0.001,-0.036,0.771,-0.085,0.345,-59.760,18.537,28.526
1747666126.08,0.062,0.034,-0.002,0.775,-0.158,0.299,-59.278,18.526,28.629
1747666126.09,0.029,0.068,0.046,0.693,-0.215,0.270,-58.829,18.449,28.671
1747666126.10,0.023,0.072,0.095,0.672,-0.154,0.256,-58.416,18.376,28.733
1747666126.11,0.037,0.055,0.066,0.720,-0.191,0.244,-57.994,18.301,28.754
1747666126.12,0.028,0.025,-0.026,0.743,-0.289,0.258,-57.551,18.167,28.814
1747666126.13,0.034,-0.019,-0.065,0.727,-0.251,0.282,-57.104,18.033,28.845
1747666126.14,0.069,-0.060,-0.022,0.701,-0.150,0.270,-56.667,17.960,28.931
1747666126.15,0.041,-0.063,-0.001,0.687,-0.157,0.226,-56.247,17.896,28.955
1747666126.16,-0.036,-0.037,-0.013,0.669,-0.229,0.211,-55.839,17.783,29.020
1747666126.17,-0.075,-0.004,-0.021,0.635,-0.202,0.224,-55.449,17.660,29.028
1747666126.18,-0.051,0.023,0.008,0.651,-0.054,0.229,-55.060,17.604,29.100
1747666126.19,-0.014,0.045,0.054,0.657,0.043,0.201,-54.666,17.610,29.108
1747666126.20,-0.021,0.064,0.059,0.644,0.017,0.185,-54.277,17.619,29.133
1747666126.21,-0.052,0.074,-0.007,0.560,-0.046,0.181,-53.915,17.603,29.123
1747666126.22,-0.068,0.061,-0.008,0.520,-0.088,0.187,-53.593,17.573,29.199
1747666126.23,-0.056,0.029,0.004,0.568,-0.062,0.184,-53.267,17.542,29.215
1747666126.24,-0.017,0.015,0.009,0.624,-0.078,0.156,-52.912,17.493,29.281
1747666126.25,0.015,0.022,-0.013,0.662,-0.143,0.118,-52.538,17.384,29.223
1747666126.26,0.052,0.039,-0.017,0.691,-0.180,0.088,-52.151,17.213,29.207
1747666126.27,0.089,0.045,0.026,0.696,-0.129,0.061,-51.759,17.025,29.084
1747666126.28,0.089,0.038,0.048,0.655,-0.068,0.023,-51.381,16.857,29.032
1747666126.29,0.043,0.014,0.005,0.580,-0.091,0.001,-51.042,16.694,28.878
1747666126.30,-0.016,-0.029,-0.055,0.532,-0.154,0.041,-50.736,16.525,28.853
1747666126.31,-0.032,-0.073,-0.073,0.500,-0.194,0.108,-50.443,16.371,28.785
1747666126.32,-0.036,-0.085,-0.035,0.527,-0.157,0.148,-50.143,16.257,28.865
1747666126.33,-0.026,-0.061,0.005,0.597,-0.095,0.141,-49.811,16.176,28.851
1747666126.34,-0.012,-0.015,0.007,0.642,-0.082,0.115,-49.451,16.093,28.916
1747666126.35,-0.007,0.019,-0.017,0.696,-0.047,0.090,-49.068,15.999,28.841
1747666126.36,0.028,0.027,-0.036,0.731,-0.039,0.056,-48.662,15.897,28.839
1747666126.37,0.067,0.008,-0.030,0.686,-0.071,0.023,-48.264,15.764,28.704
1747666126.38,0.090,-0.037,-0.044,0.604,-0.083,0.012,-47.906,15.617,28.678
1747666126.39,0.103,-0.102,-0.092,0.519,-0.120,0.027,-47.595,15.477,28.566
1747666126.40,0.062,-0.142,-0.088,0.464,-0.196,0.070,-47.320,15.333,28.624
1747666126.41,-0.017,-0.130,-0.023,0.484,-0.122,0.109,-47.048,15.216,28.595
1747666126.42,-0.051,-0.058,0.066,0.537,-0.074,0.107,-46.749,15.149,28.703
1747666126.43,-0.085,0.038,0.061,0.559,-0.098,0.092,-46.432,15.070,28.664
1747666126.44,-0.087,0.097,0.018,0.595,-0.114,0.084,-46.103,14.972,28.744
1747666126.45,-0.045,0.116,0.015,0.656,-0.144,0.064,-45.746,14.847,28.672
1747666126.46,-0.005,0.111,0.017,0.663,-0.122,0.007,-45.373,14.691,28.693
1747666126.47,0.024,0.095,0.009,0.575,-0.087,-0.039,-45.032,14.534,28.553
1747666126.48,0.024,0.053,-0.047,0.489,-0.087,-0.056,-44.747,14.381,28.527
1747666126.49,-0.015,-0.013,-0.092,0.434,-0.105,-0.002,-44.497,14.243,28.410
1747666126.50,-0.059,-0.072,-0.052,0.415,-0.019,0.078,-44.257,14.166,28.493
1747666126.51,-0.048,-0.077,0.035,0.432,0.064,0.109,-44.010,14.177,28.485
1747666126.52,-0.035,-0.025,0.058,0.461,0.091,0.098,-43.748,14.216,28.617
1747666126.53,-0.013,0.036,0.039,0.472,0.069,0.095,-43.475,14.254,28.599
1747666126.54,0.047,0.064,0.003,0.483,-0.027,0.098,-43.198,14.253,28.705
1747666126.55,0.103,0.069,-0.019,0.479,-0.086,0.096,-42.917,14.207,28.686
1747666126.56,0.123,0.068,-0.011,0.463,-0.151,0.065,-42.644,14.122,28.787
1747666126.57,0.069,0.055,-0.037,0.455,-0.223,0.041,-42.382,13.981,28.739
1747666126.58,0.001,0.023,-0.062,0.422,-0.207,0.032,-42.132,13.817,28.815
1747666126.59,-0.033,-0.013,-0.054,0.376,-0.126,0.015,-41.909,13.686,28.760
1747666126.60,-0.066,-0.040,-0.044,0.347,-0.071,0.020,-41.706,13.595,28.847
1747666126.61,-0.099,-0.053,-0.040,0.330,-0.022,0.046,-41.515,13.544,28.810
1747666126.62,-0.100,-0.047,-0.012,0.345,0.017,0.077,-41.321,13.535,28.959
1747666126.63,-0.056,-0.021,0.005,0.370,0.013,0.092,-41.110,13.545,28.958
1747666126.64,0.035,0.010,-0.009,0.382,-0.036,0.090,-40.889,13.541,29.121
1747666126.65,0.137,0.032,-0.017,0.375,-0.134,0.090,-40.667,13.495,29.122
1747666126.66,0.200,0.043,-0.011,0.362,-0.228,0.087,-40.452,13.389,29.271
1747666126.67,0.219,0.046,-0.025,0.336,-0.234,0.081,-40.245,13.256,29.271
1747666126.68,0.161,0.029,-0.020,0.277,-0.251,0.095,-40.064,13.124,29.442
1747666126.69,0.018,-0.014,0.003,0.251,-0.187,0.152,-39.902,13.024,29.486
1747666126.70,-0.095,-0.067,0.007,0.240,-0.061,0.196,-39.743,13.008,29.729
1747666126.71,-0.150,-0.097,-0.030,0.243,0.050,0.181,-39.585,13.069,30.006
1747666126.72,-0.145,-0.087,-0.051,0.260,0.109,0.150,-39.424,13.168,30.085
1747666126.73,-0.082,-0.042,-0.026,0.283,0.088,0.088,-39.257,13.254,30.300
1747666126.74,-0.019,0.013,-0.002,0.320,0.020,0.015,-39.083,13.277,30.286
1747666126.75,0.002,0.046,0.010,0.327,-0.013,-0.036,-38.903,13.238,30.389
1747666126.76,-0.009,0.049,0.002,0.288,-0.026,-0.057,-38.737,13.173,30.304
1747666126.77,-0.040,0.032,-0.033,0.216,-0.036,-0.055,-38.603,13.104,30.394
1747666126.78,-0.072,0.018,-0.069,0.146,-0.007,-0.030,-38.509,13.050,30.333
1747666126.79,-0.072,0.017,-0.056,0.117,0.071,0.000,-38.440,13.048,30.469
1747666126.80,-0.047,0.035,-0.019,0.136,0.143,0.031,-38.368,13.104,30.459
1747666126.81,-0.013,0.057,0.014,0.177,0.153,0.046,-38.276,13.193,30.635
1747666126.82,0.023,0.068,0.004,0.209,0.117,0.036,-38.163,13.269,30.633
1747666126.83,0.053,0.055,-0.000,0.222,0.055,0.003,-38.040,13.306,30.784
1747666126.84,0.064,0.025,0.014,0.244,-0.021,-0.019,-37.913,13.287,30.738
1747666126.85,0.082,-0.020,0.007,0.240,-0.057,-0.028,-37.780,13.228,30.840
1747666126.86,0.097,-0.062,-0.004,0.207,-0.044,-0.036,-37.658,13.160,30.779
1747666126.87,0.098,-0.088,-0.012,0.155,-0.085,-0.029,-37.561,13.093,30.893
1747666126.88,0.072,-0.087,-0.056,0.111,-0.108,0.010,-37.490,13.015,30.863
1747666126.89,0.053,-0.060,-0.064,0.112,-0.058,0.044,-37.428,12.971,31.023
1747666126.90,0.041,-0.015,-0.003,0.135,-0.042,0.060,-37.354,12.953,31.040
1747666126.91,0.016,0.030,0.017,0.173,-0.054,0.073,-37.261,12.940,31.221
1747666126.92,0.024,0.036,0.015,0.201,-0.057,0.081,-37.146,12.926,31.246
1747666126.93,0.044,0.009,0.014,0.226,-0.087,0.083,-37.017,12.902,31.409
1747666126.94,0.051,-0.027,0.008,0.218,-0.128,0.079,-36.879,12.855,31.432
1747666126.95,0.050,-0.046,-0.009,0.223,-0.136,0.076,-36.746,12.796,31.588
1747666126.96,0.060,-0.047,-0.033,0.241,-0.132,0.077,-36.605,12.730,31.606
1747666126.97,0.039,-0.028,-0.030,0.220,-0.073,0.077,-36.463,12.682,31.775
1747666126.98,-0.015,0.006,-0.011,0.186,-0.019,0.058,-36.341,12.669,31.793
1747666126.99,-0.080,0.021,0.001,0.167,0.014,0.051,-36.238,12.673,31.937
1747666127.00,-0.114,0.009,0.004,0.171,0.095,0.079,-36.137,12.718,31.957
1747666127.01,-0.071,-0.001,0.017,0.158,0.073,0.092,-36.035,12.793,32.140
1747666127.02,-0.006,0.028,-0.009,0.160,0.014,0.094,-35.935,12.844,32.181
1747666127.03,0.060,0.082,-0.005,0.202,-0.058,0.083,-35.822,12.850,32.358
1747666127.04,0.093,0.125,0.026,0.228,-0.113,0.065,-35.691,12.810,32.374
1747666127.05,0.072,0.126,0.036,0.218,-0.138,0.046,-35.558,12.740,32.530
1747666127.06,0.016,0.084,0.000,0.179,-0.092,0.037,-35.442,12.669,32.526
1747666127.07,-0.030,0.030,-0.035,0.135,-0.030,0.046,-35.351,12.636,32.699
1747666127.08,-0.059,-0.019,-0.041,0.089,0.009,0.078,-35.281,12.640,32.722
1747666127.09,-0.059,-0.029,-0.011,0.062,0.071,0.098,-35.229,12.689,32.932
1747666127.10,-0.007,0.017,0.008,0.048,0.042,0.086,-35.188,12.755,32.986
1747666127.11,0.035,0.085,-0.002,0.040,-0.031,0.081,-35.154,12.787,33.201
1747666127.12,0.057,0.118,-0.001,0.044,-0.081,0.070,-35.122,12.782,33.248
1747666127.13,0.040,0.110,-0.012,0.000,-0.092,0.036,-35.102,12.752,33.456
1747666127.14,0.002,0.074,-0.088,-0.090,-0.058,-0.002,-35.128,12.719,33.474
1747666127.15,-0.045,0.030,-0.125,-0.095,0.014,0.003,-35.182,12.712,33.654
1747666127.16,-0.101,0.024,-0.069,-0.108,0.139,-0.008,-35.236,12.761,33.668
1747666127.17,-0.130,0.078,-0.022,-0.131,0.197,-0.050,-35.308,12.859,33.808
1747666127.18,-0.130,0.127,-0.013,-0.131,0.175,-0.067,-35.387,12.955,33.787
1747666127.19,-0.089,0.119,-0.012,-0.148,0.095,-0.090,-35.474,13.017,33.888
1747666127.20,-0.006,0.074,-0.054,-0.183,0.008,-0.128,-35.579,13.018,33.840
1747666127.21,0.074,0.018,-0.098,-0.305,-0.002,-0.169,-35.734,12.981,33.923
1747666127.22,0.082,-0.015,-0.125,-0.395,0.005,-0.191,-35.956,12.940,33.853
1747666127.23,0.001,-0.029,-0.133,-0.420,0.095,-0.162,-36.206,12.927,33.929
1747666127.24,-0.075,-0.033,-0.068,-0.422,0.249,-0.127,-36.457,13.008,33.895
1747666127.25,-0.075,-0.018,-0.033,-0.448,0.264,-0.133,-36.716,13.144,33.995
1747666127.26,-0.042,0.005,-0.041,-0.473,0.262,-0.183,-36.993,13.273,33.961
1747666127.27,0.025,0.020,-0.037,-0.522,0.219,-0.242,-37.297,13.373,33.998
1747666127.28,0.075,0.006,-0.031,-0.567,0.128,-0.260,-37.633,13.420,33.910
1747666127.29,0.101,-0.037,-0.046,-0.603,0.060,-0.229,-37.990,13.427,33.919
1747666127.30,0.127,-0.067,-0.070,-0.661,-0.012,-0.202,-38.370,13.412,33.874
1747666127.31,0.108,-0.065,-0.092,-0.693,0.005,-0.161,-38.771,13.399,33.937
1747666127.32,0.073,-0.043,-0.052,-0.700,0.063,-0.125,-39.177,13.430,33.954
1747666127.33,0.040,-0.011,-0.014,-0.699,0.121,-0.112,-39.581,13.505,34.062
1747666127.34,0.013,0.013,-0.008,-0.685,0.158,-0.104,-39.980,13.613,34.105
1747666127.35,0.014,0.011,-0.020,-0.708,0.179,-0.100,-40.378,13.742,34.215
1747666127.36,0.035,-0.020,-0.040,-0.767,0.186,-0.105,-40.800,13.884,34.271
1747666127.37,0.054,-0.068,-0.064,-0.807,0.142,-0.100,-41.253,14.025,34.398
1747666127.38,0.056,-0.106,-0.072,-0.801,0.111,-0.089,-41.711,14.148,34.478
1747666127.39,0.053,-0.125,-0.062,-0.814,0.134,-0.091,-42.170,14.275,34.624
1747666127.40,0.047,-0.121,-0.050,-0.843,0.137,-0.108,-42.643,14.412,34.708
1747666127.41,0.027,-0.107,-0.076,-0.881,0.094,-0.117,-43.135,14.534,34.827
1747666127.42,0.010,-0.089,-0.068,-0.926,0.079,-0.100,-43.651,14.648,34.922
1747666127.43,0.020,-0.072,-0.029,-0.931,0.087,-0.086,-44.180,14.776,35.071
1747666127.44,0.034,-0.054,-0.029,-0.910,0.102,-0.081,-44.699,14.918,35.197
1747666127.45,0.026,-0.039,-0.034,-0.904,0.092,-0.084,-45.211,15.062,35.347
1747666127.46,0.004,-0.038,-0.041,-0.910,0.115,-0.075,-45.722,15.213,35.478
1747666127.47,-0.005,-0.046,-0.047,-0.930,0.130,-0.079,-46.240,15.382,35.640
1747666127.48,-0.014,-0.056,-0.050,-0.961,0.158,-0.083,-46.772,15.567,35.785
1747666127.49,-0.013,-0.060,-0.040,-1.014,0.189,-0.083,-47.328,15.782,35.947
1747666127.50,0.003,-0.056,-0.026,-1.043,0.202,-0.084,-47.907,16.021,36.118
1747666127.51,0.018,-0.040,-0.015,-1.052,0.180,-0.068,-48.494,16.270,36.307
1747666127.52,0.029,-0.016,0.001,-1.055,0.152,-0.047,-49.081,16.523,36.518
1747666127.53,0.042,0.014,0.001,-1.054,0.101,-0.040,-49.665,16.770,36.736
1747666127.54,0.045,0.043,-0.015,-1.041,0.030,-0.060,-50.246,16.983,36.967
1747666127.55,0.030,0.063,-0.025,-1.015,-0.010,-0.096,-50.820,17.146,37.162
1747666127.56,0.012,0.062,-0.022,-1.015,-0.010,-0.150,-51.392,17.267,37.328
1747666127.57,-0.003,0.037,-0.030,-1.046,0.009,-0.187,-51.982,17.371,37.434
1747666127.57,-0.013,-0.004,-0.033,-1.089,0.033,-0.193,-52.596,17.484,37.561
1747666127.58,-0.005,-0.041,-0.022,-1.153,0.088,-0.168,-53.237,17.644,37.684
1747666127.60,0.022,-0.061,0.024,-1.187,0.137,-0.137,-53.902,17.874,37.888
1747666127.60,0.041,-0.057,0.024,-1.196,0.142,-0.103,-54.570,18.156,38.090
1747666127.61,0.045,-0.035,-0.006,-1.223,0.117,-0.068,-55.239,18.474,38.388
1747666127.62,0.035,-0.001,-0.014,-1.265,0.124,-0.059,-55.925,18.826,38.686
1747666127.63,0.011,0.038,0.008,-1.246,0.099,-0.085,-56.618,19.187,39.040
1747666127.64,-0.037,0.073,-0.003,-1.205,0.039,-0.137,-57.300,19.491,39.311
1747666127.65,-0.079,0.098,-0.014,-1.171,0.058,-0.207,-57.971,19.730,39.565
1747666127.66,-0.087,0.105,-0.006,-1.177,0.110,-0.281,-58.648,19.935,39.690
1747666127.67,-0.083,0.082,0.007,-1.183,0.142,-0.320,-59.343,20.122,39.825
1747666127.69,-0.069,0.040,0.004,-1.178,0.182,-0.341,-60.040,20.310,39.855
1747666127.69,-0.034,0.008,0.019,-1.202,0.173,-0.348,-60.744,20.505,39.959
1747666127.71,-0.007,-0.018,0.022,-1.257,0.163,-0.345,-61.471,20.712,40.004
1747666127.71,0.032,-0.049,0.024,-1.286,0.153,-0.337,-62.221,20.948,40.068
1747666127.72,0.085,-0.075,0.011,-1.253,0.084,-0.312,-62.965,21.187,40.259
1747666127.73,0.120,-0.087,-0.040,-1.234,-0.002,-0.272,-63.686,21.415,40.375
1747666127.74,0.149,-0.084,-0.048,-1.227,-0.069,-0.250,-64.394,21.643,40.651
1747666127.75,0.163,-0.067,-0.045,-1.225,-0.094,-0.251,-65.097,21.868,40.821
1747666127.76,0.151,-0.042,0.002,-1.198,-0.143,-0.274,-65.797,22.066,41.111
1747666127.77,0.111,-0.013,0.017,-1.147,-0.206,-0.313,-66.479,22.184,41.214
1747666127.78,0.065,0.008,-0.033,-1.160,-0.184,-0.347,-67.157,22.238,41.399
1747666127.79,0.051,-0.004,-0.020,-1.166,-0.084,-0.371,-67.852,22.316,41.434
1747666127.80,0.031,-0.043,0.012,-1.157,-0.052,-0.371,-68.545,22.418,41.581
1747666127.81,-0.018,-0.084,-0.010,-1.195,-0.111,-0.335,-69.243,22.553,41.637
1747666127.82,-0.040,-0.106,-0.039,-1.177,-0.161,-0.282,-69.939,22.741,41.922
1747666127.83,-0.007,-0.103,-0.089,-1.119,-0.159,-0.246,-70.601,22.974,42.135
1747666127.84,0.042,-0.080,-0.109,-1.065,-0.126,-0.240,-71.228,23.235,42.497
1747666127.85,0.052,-0.052,-0.074,-1.014,-0.088,-0.269,-71.831,23.482,42.684
1747666127.86,0.024,-0.029,-0.048,-0.990,-0.065,-0.301,-72.419,23.683,42.941
1747666127.87,-0.011,-0.011,-0.051,-0.997,-0.012,-0.318,-73.009,23.875,43.034
1747666127.88,-0.044,0.002,-0.061,-1.031,0.022,-0.332,-73.612,24.102,43.265
1747666127.89,-0.089,-0.002,-0.079,-1.022,-0.031,-0.345,-74.228,24.329,43.358
1747666127.90,-0.113,-0.023,-0.114,-0.977,-0.002,-0.338,-74.827,24.519,43.571
1747666127.91,-0.083,-0.056,-0.072,-0.947,0.152,-0.309,-75.403,24.787,43.661
1747666127.92,-0.037,-0.074,0.004,-0.929,0.270,-0.274,-75.958,25.208,43.967
1747666127.93,-0.019,-0.060,0.008,-0.883,0.315,-0.239,-76.488,25.745,44.190
1747666127.94,-0.009,-0.020,-0.023,-0.908,0.295,-0.213,-77.002,26.373,44.656
1747666127.95,0.005,0.023,-0.014,-0.939,0.308,-0.207,-77.529,27.127,45.094
1747666127.96,0.027,0.041,-0.000,-0.925,0.334,-0.214,-78.056,27.955,45.751
1747666127.97,0.055,0.021,0.027,-0.933,0.308,-0.228,-78.583,28.832,46.297
1747666127.98,0.060,-0.005,0.041,-0.890,0.211,-0.249,-79.104,29.675,47.004
1747666127.99,0.041,-0.039,-0.011,-0.844,0.108,-0.271,-79.607,30.397,47.495
1747666128.00,0.027,-0.061,-0.042,-0.836,0.005,-0.287,-80.099,31.024,48.101
1747666128.01,0.024,-0.052,-0.064,-0.843,-0.034,-0.294,-80.595,31.643,48.576
1747666128.02,0.023,-0.026,-0.036,-0.852,-0.036,-0.294,-81.094,32.322,49.286
1747666128.03,0.001,0.000,0.011,-0.867,0.008,-0.291,-81.598,33.130,49.945
1747666128.04,-0.052,0.024,0.046,-0.833,0.048,-0.302,-82.098,34.048,50.853
1747666128.05,-0.105,0.044,0.021,-0.780,0.016,-0.327,-82.579,34.900,51.512
1747666128.06,-0.140,0.048,-0.046,-0.767,0.047,-0.335,-83.048,35.712,52.316
1747666128.07,-0.110,0.031,-0.036,-0.797,0.178,-0.323,-83.520,36.720,53.102
1747666128.08,-0.037,0.008,0.039,-0.786,0.289,-0.285,-83.987,38.115,54.370
1747666128.09,0.005,-0.016,0.057,-0.735,0.353,-0.266,-84.422,39.788,55.695
1747666128.10,0.008,-0.030,0.059,-0.740,0.319,-0.264,-84.838,41.686,57.405
1747666128.11,-0.011,-0.030,0.062,-0.782,0.243,-0.266,-85.259,43.971,59.356
1747666128.12,-0.030,-0.022,0.038,-0.798,0.230,-0.255,-85.685,46.855,62.117
1747666128.13,-0.022,0.004,0.030,-0.766,0.261,-0.228,-86.084,50.388,65.325
1747666128.14,-0.023,0.028,0.031,-0.738,0.259,-0.198,-86.442,54.623,69.419
1747666128.15,-0.042,0.019,0.021,-0.693,0.270,-0.193,-86.757,59.546,74.025
1747666128.16,-0.036,0.004,-0.009,-0.644,0.305,-0.217,-87.037,64.931,79.254
1747666128.17,-0.013,0.011,-0.013,-0.600,0.329,-0.240,-87.293,70.778,84.733
1747666128.18,0.010,0.027,-0.015,-0.543,0.325,-0.242,-87.517,77.030,90.803
1747666128.19,0.027,0.031,-0.029,-0.532,0.282,-0.243,-87.704,83.858,97.462
1747666128.20,0.042,0.017,0.002,-0.563,0.219,-0.247,-87.856,91.923,105.390
1747666128.21,0.059,-0.018,0.021,-0.550,0.183,-0.227,-87.955,101.169,114.529
1747666128.22,0.063,-0.058,0.025,-0.529,0.179,-0.186,-87.985,110.535,123.796
1747666128.23,0.048,-0.071,0.052,-0.510,0.153,-0.142,-87.944,119.358,132.528
1747666128.24,-0.000,-0.058,0.056,-0.451,0.116,-0.132,-87.858,126.883,139.982
1747666128.25,-0.068,-0.023,0.042,-0.383,0.113,-0.153,-87.767,133.051,146.090
1747666128.26,-0.122,0.026,0.021,-0.323,0.147,-0.191,-87.691,138.447,151.417
1747666128.27,-0.132,0.055,-0.014,-0.289,0.246,-0.214,-87.630,143.446,156.312
1747666128.28,-0.085,0.046,-0.013,-0.246,0.413,-0.193,-87.569,148.042,160.725
1747666128.29,0.003,0.035,0.019,-0.197,0.531,-0.140,-87.510,151.703,164.115
1747666128.30,0.073,0.041,0.056,-0.273,0.504,-0.082,-87.424,154.628,166.742
1747666128.31,0.074,0.017,0.119,-0.356,0.342,-0.049,-87.271,157.181,169.053
1747666128.32,0.014,-0.042,0.090,-0.312,0.145,-0.069,-87.102,159.387,171.124
1747666128.33,-0.028,-0.086,-0.007,-0.286,0.052,-0.105,-86.962,161.432,173.120
1747666128.34,-0.000,-0.101,-0.009,-0.324,0.090,-0.124,-86.816,163.588,175.243
1747666128.35,0.049,-0.080,0.057,-0.288,0.106,-0.114,-86.662,165.644,177.242
1747666128.36,0.073,-0.031,0.037,-0.196,0.047,-0.109,-86.542,167.267,178.823
1747666128.37,0.061,0.024,-0.003,-0.149,-0.056,-0.125,-86.463,168.647,-179.793
1747666128.38,0.027,0.069,-0.015,-0.154,-0.156,-0.146,-86.393,170.058,-178.317
1747666128.39,0.004,0.079,-0.043,-0.129,-0.184,-0.166,-86.326,171.551,-176.721
1747666128.40,0.005,0.055,-0.070,-0.135,-0.144,-0.159,-86.266,173.044,-175.128
1747666128.41,0.028,0.014,-0.038,-0.148,-0.020,-0.117,-86.193,174.325,-173.795
1747666128.42,0.054,-0.008,-0.003,-0.102,0.029,-0.073,-86.126,175.236,-172.889
1747666128.43,0.049,0.009,-0.025,-0.007,-0.017,-0.026,-86.096,175.683,-172.446
1747666128.44,0.017,0.027,-0.069,0.026,-0.015,0.007,-86.105,175.747,-172.368
1747666128.45,-0.012,0.036,-0.047,0.029,-0.021,0.037,-86.119,175.549,-172.559
1747666128.46,-0.045,0.019,-0.036,0.102,-0.005,0.046,-86.153,175.123,-172.975
1747666128.47,-0.080,-0.018,-0.042,0.152,0.076,0.032,-86.227,174.699,-173.419
1747666128.48,-0.082,-0.044,-0.010,0.145,0.185,0.036,-86.312,174.355,-173.838
1747666128.49,-0.051,-0.041,0.021,0.148,0.325,0.066,-86.393,173.910,-174.429
1747666128.50,-0.017,-0.013,0.045,0.134,0.386,0.096,-86.468,173.191,-175.357
1747666128.51,-0.023,0.013,0.090,0.111,0.358,0.088,-86.531,172.359,-176.407
1747666128.52,-0.070,0.013,0.141,0.140,0.266,0.057,-86.595,171.697,-177.247
1747666128.53,-0.097,-0.011,0.125,0.170,0.189,0.028,-86.682,171.189,-177.884
1747666128.54,-0.079,-0.037,0.081,0.126,0.169,0.005,-86.767,170.903,-178.270
1747666128.55,-0.028,-0.039,0.065,0.073,0.169,-0.006,-86.823,170.881,-178.391
1747666128.56,0.021,-0.029,0.055,0.091,0.093,-0.009,-86.867,170.948,-178.403
1747666128.57,0.050,-0.018,0.029,0.132,-0.014,0.008,-86.931,170.810,-178.562
1747666128.58,0.071,-0.008,0.025,0.111,-0.065,0.022,-86.997,170.407,-178.941
1747666128.59,0.084,0.014,0.049,0.135,-0.136,0.022,-87.059,169.914,-179.380
1747666128.60,0.072,0.033,0.034,0.198,-0.272,0.019,-87.147,169.275,-179.905
1747666128.61,0.043,0.026,-0.006,0.227,-0.368,0.019,-87.265,168.443,179.449
1747666128.62,0.036,-0.005,-0.012,0.218,-0.357,0.034,-87.385,167.409,178.623
1747666128.63,0.052,-0.031,0.010,0.254,-0.360,0.058,-87.508,165.957,177.373
1747666128.64,0.053,-0.030,-0.009,0.300,-0.412,0.081,-87.651,163.827,175.461
1747666128.65,0.028,-0.001,-0.025,0.297,-0.483,0.076,-87.801,161.143,173.029
1747666128.66,-0.010,0.036,-0.018,0.290,-0.556,0.050,-87.945,158.377,170.561
1747666128.67,-0.050,0.041,0.004,0.325,-0.525,0.049,-88.094,155.365,167.858
1747666128.68,-0.071,0.009,0.035,0.374,-0.470,0.057,-88.260,151.414,164.188
1747666128.69,-0.088,-0.022,0.026,0.418,-0.435,0.076,-88.433,145.998,159.028
1747666128.70,-0.093,-0.041,-0.004,0.480,-0.387,0.108,-88.602,138.062,151.326
1747666128.71,-0.077,-0.045,-0.021,0.533,-0.264,0.130,-88.748,126.581,140.029
1747666128.72,-0.055,-0.031,0.010,0.559,-0.197,0.145,-88.832,111.573,125.146
1747666128.73,-0.050,-0.002,0.033,0.548,-0.280,0.152,-88.824,95.425,109.126
1747666128.74,-0.061,0.023,-0.012,0.521,-0.390,0.152,-88.727,81.021,94.913
1747666128.75,-0.048,0.037,-0.042,0.523,-0.348,0.166,-88.564,69.635,83.741
1747666128.76,-0.007,0.037,-0.011,0.558,-0.222,0.188,-88.341,60.665,74.930
1747666128.77,0.024,0.027,0.042,0.573,-0.140,0.202,-88.072,53.833,68.193
1747666128.78,0.015,0.011,0.090,0.608,-0.163,0.205,-87.771,48.548,62.987
1747666128.79,-0.014,0.003,0.086,0.629,-0.246,0.205,-87.440,44.236,58.788
1747666128.80,-0.040,0.005,0.076,0.603,-0.344,0.199,-87.102,40.829,55.546
1747666128.81,-0.053,0.003,0.063,0.573,-0.410,0.194,-86.774,38.261,53.194
1747666128.82,-0.042,-0.013,0.049,0.616,-0.423,0.202,-86.435,36.071,51.240
1747666128.83,-0.005,-0.033,0.036,0.626,-0.406,0.218,-86.075,34.186,49.590
1747666128.84,0.039,-0.041,0.064,0.645,-0.415,0.230,-85.702,32.672,48.305
1747666128.85,0.071,-0.025,0.088,0.704,-0.460,0.243,-85.304,31.283,47.161
1747666128.86,0.091,0.010,0.078,0.733,-0.515,0.253,-84.877,29.988,46.141
1747666128.87,0.080,0.044,0.078,0.748,-0.542,0.245,-84.438,28.802,45.254
1747666128.88,0.020,0.058,0.086,0.746,-0.581,0.217,-83.998,27.643,44.232
1747666128.89,-0.083,0.056,0.058,0.738,-0.583,0.183,-83.568,26.471,43.393
1747666128.90,-0.185,0.045,0.019,0.728,-0.428,0.146,-83.150,25.343,42.398
1747666128.91,-0.238,0.023,0.040,0.780,-0.169,0.122,-82.730,24.275,41.495
1747666128.92,-0.232,-0.002,0.057,0.852,0.013,0.136,-82.273,23.294,40.399
1747666128.93,-0.182,-0.013,0.026,0.854,0.190,0.194,-81.785,22.597,39.639
1747666128.94,-0.086,-0.015,0.048,0.802,0.351,0.278,-81.298,22.374,39.116
1747666128.95,0.001,-0.010,0.100,0.758,0.330,0.335,-80.818,22.526,39.068
1747666128.96,-0.007,0.011,0.025,0.721,0.267,0.343,-80.353,22.799,39.042
1747666128.97,-0.050,0.014,-0.007,0.718,0.288,0.326,-79.901,23.047,39.135
1747666128.98,-0.044,0.003,0.009,0.722,0.328,0.311,-79.452,23.257,39.036
1747666128.99,-0.002,-0.006,0.025,0.761,0.323,0.300,-78.994,23.404,38.995
1747666129.00,0.038,-0.016,0.001,0.764,0.347,0.282,-78.528,23.486,38.755
1747666129.01,0.087,-0.016,0.011,0.798,0.402,0.274,-78.057,23.546,38.596
1747666129.02,0.142,-0.006,0.073,0.912,0.315,0.275,-77.549,23.525,38.232
1747666129.03,0.138,0.003,0.037,1.016,0.115,0.248,-76.981,23.283,37.857
1747666129.04,0.075,0.003,-0.044,1.032,0.029,0.228,-76.386,22.869,37.286
1747666129.05,0.033,-0.007,-0.047,0.962,0.034,0.222,-75.808,22.474,36.860
1747666129.06,-0.018,-0.025,-0.015,0.827,0.041,0.208,-75.290,22.181,36.415
1747666129.07,-0.079,-0.046,0.013,0.740,0.076,0.212,-74.831,21.998,36.193
1747666129.08,-0.087,-0.053,0.012,0.693,0.146,0.221,-74.406,21.921,35.939
1747666129.09,-0.037,-0.044,0.000,0.734,0.204,0.219,-73.984,21.904,35.816
1747666129.10,0.053,-0.026,-0.029,0.821,0.191,0.204,-73.527,21.838,35.524
1747666129.11,0.103,-0.005,-0.045,0.911,0.092,0.202,-73.024,21.666,35.258
1747666129.12,0.085,0.011,-0.063,0.968,0.003,0.215,-72.480,21.412,34.859
1747666129.13,0.044,0.016,-0.051,1.037,-0.095,0.203,-71.901,21.093,34.550
1747666129.14,0.007,0.020,-0.044,1.004,-0.065,0.161,-71.314,20.701,34.082
1747666129.15,-0.002,0.023,0.010,0.892,0.137,0.134,-70.780,20.393,33.737
1747666129.16,-0.005,-0.005,0.136,0.873,0.252,0.130,-70.283,20.220,33.337
1747666129.17,-0.070,-0.042,0.125,0.824,0.148,0.168,-69.797,20.084,33.067
1747666129.18,-0.116,-0.061,-0.007,0.684,0.062,0.277,-69.346,20.059,32.901
1747666129.19,-0.072,-0.057,-0.060,0.595,0.064,0.345,-68.945,20.214,33.028
1747666129.20,0.004,-0.030,0.001,0.652,0.014,0.359,-68.545,20.412,33.146
1747666129.21,0.095,0.015,0.013,0.782,-0.138,0.326,-68.093,20.492,33.264
1747666129.22,0.155,0.058,-0.020,0.914,-0.353,0.228,-67.582,20.301,33.143
1747666129.23,0.138,0.074,-0.042,0.979,-0.395,0.098,-67.038,19.838,32.885
1747666129.24,0.097,0.056,0.013,0.949,-0.216,-0.005,-66.510,19.287,32.415
1747666129.25,0.049,0.026,0.102,0.921,-0.062,-0.052,-66.011,18.775,31.939
1747666129.26,-0.060,0.010,0.082,0.787,0.002,-0.026,-65.552,18.359,31.433
1747666129.27,-0.178,0.004,0.078,0.599,0.055,0.073,-65.174,18.130,31.164
1747666129.28,-0.215,-0.017,0.047,0.506,0.102,0.192,-64.853,18.124,31.062
1747666129.29,-0.156,-0.024,-0.004,0.505,0.119,0.249,-64.542,18.259,31.141
1747666129.30,-0.043,0.006,-0.004,0.597,0.072,0.270,-64.198,18.411,31.210
1747666129.31,0.072,0.045,-0.010,0.740,-0.114,0.236,-63.792,18.444,31.256
1747666129.32,0.123,0.067,-0.061,0.896,-0.252,0.159,-63.309,18.251,31.129
1747666129.33,0.130,0.064,-0.072,0.951,-0.168,0.087,-62.785,17.930,30.912
1747666129.34,0.121,0.029,-0.030,0.903,0.001,0.049,-62.262,17.636,30.595
1747666129.35,0.064,-0.011,-0.019,0.683,0.228,0.066,-61.818,17.493,30.362
1747666129.36,0.001,-0.057,0.116,0.480,0.433,0.164,-61.487,17.612,30.257
1747666129.37,0.002,-0.098,0.187,0.408,0.485,0.312,-61.207,17.977,30.366
1747666129.38,0.065,-0.101,0.067,0.370,0.341,0.431,-60.929,18.463,30.633
1747666129.39,0.148,-0.070,-0.026,0.405,0.072,0.471,-60.639,18.900,30.995
1747666129.40,0.219,-0.026,-0.042,0.482,-0.233,0.427,-60.316,19.142,31.324
1747666129.41,0.235,0.019,-0.073,0.584,-0.518,0.306,-59.961,19.101,31.527
1747666129.42,0.162,0.065,-0.115,0.709,-0.699,0.142,-59.570,18.752,31.531
1747666129.43,0.028,0.107,-0.138,0.765,-0.671,-0.012,-59.155,18.181,31.332
1747666129.44,-0.115,0.116,-0.074,0.689,-0.407,-0.107,-58.769,17.595,31.017
1747666129.45,-0.226,0.077,0.071,0.636,-0.071,-0.125,-58.430,17.168,30.674
1747666129.46,-0.279,0.018,0.111,0.589,0.146,-0.052,-58.110,16.947,30.382
1747666129.47,-0.237,-0.039,0.027,0.491,0.191,0.080,-57.813,16.912,30.224
1747666129.48,-0.089,-0.085,-0.049,0.451,0.183,0.217,-57.535,17.027,30.234
1747666129.49,0.112,-0.100,-0.025,0.489,0.120,0.302,-57.234,17.221,30.359
1747666129.50,0.231,-0.064,-0.006,0.567,-0.060,0.291,-56.897,17.358,30.497
1747666129.51,0.219,0.008,-0.025,0.676,-0.267,0.233,-56.513,17.318,30.564
1747666129.52,0.128,0.065,-0.058,0.741,-0.328,0.168,-56.091,17.125,30.543
1747666129.53,0.035,0.075,-0.058,0.735,-0.225,0.101,-55.662,16.890,30.453
1747666129.54,-0.034,0.047,-0.031,0.657,-0.098,0.043,-55.270,16.685,30.316
1747666129.55,-0.061,0.001,-0.023,0.557,0.088,0.042,-54.930,16.567,30.177
1747666129.56,-0.036,-0.055,0.021,0.453,0.173,0.102,-54.645,16.589,30.102
1747666129.57,-0.014,-0.090,0.031,0.396,0.099,0.172,-54.391,16.675,30.112
1747666129.58,-0.008,-0.096,-0.031,0.330,0.031,0.241,-54.160,16.789,30.205
1747666129.59,-0.001,-0.092,0.004,0.370,-0.098,0.268,-53.928,16.886,30.347
1747666129.60,-0.022,-0.066,0.008,0.455,-0.188,0.245,-53.661,16.901,30.472
1747666129.61,-0.051,-0.002,0.014,0.558,-0.174,0.177,-53.348,16.838,30.526
1747666129.62,-0.079,0.075,0.004,0.660,-0.112,0.076,-52.995,16.714,30.475
1747666129.63,-0.100,0.126,-0.038,0.756,-0.032,-0.034,-52.603,16.533,30.301
1747666129.64,-0.104,0.129,-0.024,0.741,0.123,-0.101,-52.201,16.345,30.035
1747666129.65,-0.102,0.080,0.083,0.662,0.262,-0.093,-51.832,16.243,29.761
1747666129.66,-0.077,-0.004,0.068,0.558,0.266,-0.024,-51.505,16.232,29.549
1747666129.67,-0.010,-0.095,-0.088,0.416,0.179,0.088,-51.233,16.285,29.449
1747666129.68,0.075,-0.163,-0.112,0.348,0.058,0.220,-51.002,16.383,29.490
1747666129.69,0.148,-0.180,-0.029,0.404,0.015,0.256,-50.760,16.494,29.607
1747666129.70,0.188,-0.109,0.059,0.517,-0.069,0.220,-50.469,16.551,29.696
1747666129.71,0.139,0.010,0.026,0.609,-0.193,0.162,-50.128,16.491,29.718
1747666129.72,0.058,0.092,-0.056,0.658,-0.275,0.098,-49.759,16.316,29.667
1747666129.73,0.013,0.104,-0.049,0.701,-0.287,0.058,-49.376,16.076,29.632
1747666129.74,0.004,0.078,0.030,0.692,-0.218,0.035,-48.981,15.831,29.502
1747666129.75,0.008,0.038,0.016,0.555,-0.148,0.011,-48.633,15.630,29.481
1747666129.76,-0.011,-0.022,-0.059,0.438,-0.116,0.024,-48.359,15.479,29.377
1747666129.77,-0.051,-0.089,-0.098,0.364,-0.120,0.108,-48.131,15.381,29.452
1747666129.78,-0.069,-0.124,-0.023,0.362,-0.095,0.227,-47.907,15.362,29.509
1747666129.79,-0.048,-0.100,0.044,0.421,-0.078,0.265,-47.654,15.402,29.737
1747666129.80,-0.029,-0.016,0.014,0.491,-0.059,0.213,-47.366,15.431,29.830
1747666129.81,-0.025,0.067,-0.015,0.534,-0.052,0.144,-47.057,15.422,29.967
1747666129.82,-0.018,0.104,-0.006,0.582,-0.078,0.080,-46.731,15.360,29.932
1747666129.83,-0.016,0.116,0.010,0.561,-0.080,0.028,-46.405,15.252,29.980
1747666129.84,-0.014,0.104,0.020,0.481,-0.049,-0.023,-46.118,15.135,29.867
1747666129.85,-0.024,0.060,-0.031,0.400,-0.054,-0.032,-45.880,15.021,29.878
1747666129.86,-0.035,-0.000,-0.060,0.352,-0.072,0.020,-45.676,14.923,29.793
1747666129.87,-0.008,-0.056,-0.032,0.339,-0.073,0.100,-45.477,14.863,29.897
1747666129.88,0.054,-0.071,0.012,0.359,-0.035,0.130,-45.268,14.845,29.918
1747666129.89,0.085,-0.025,0.025,0.385,-0.025,0.108,-45.045,14.841,30.053
1747666129.90,0.065,0.039,0.013,0.368,-0.077,0.111,-44.819,14.817,30.059
1747666129.91,0.048,0.072,0.002,0.360,-0.121,0.131,-44.602,14.773,30.188
1747666129.92,0.068,0.076,-0.013,0.377,-0.154,0.124,-44.379,14.713,30.213
1747666129.93,0.085,0.066,-0.030,0.386,-0.165,0.092,-44.152,14.626,30.328
1747666129.94,0.072,0.037,-0.044,0.395,-0.163,0.062,-43.925,14.520,30.310
1747666129.95,0.040,-0.003,-0.050,0.392,-0.180,0.046,-43.700,14.396,30.389
1747666129.96,-0.008,-0.043,-0.057,0.386,-0.166,0.046,-43.478,14.267,30.348
1747666129.97,-0.043,-0.067,-0.035,0.380,-0.119,0.051,-43.258,14.160,30.430
1747666129.98,-0.050,-0.049,-0.016,0.345,-0.067,0.051,-43.049,14.087,30.399
1747666129.99,-0.037,0.002,0.016,0.313,-0.033,0.052,-42.860,14.044,30.494
1747666130.00,-0.011,0.055,0.077,0.308,-0.033,0.040,-42.683,14.012,30.473
1747666130.01,-0.003,0.068,0.096,0.351,-0.023,0.021,-42.498,13.968,30.560
1747666130.02,0.000,0.035,0.071,0.365,-0.031,0.029,-42.293,13.922,30.510
1747666130.03,0.005,-0.006,0.004,0.310,-0.043,0.034,-42.099,13.874,30.594
1747666130.04,0.022,-0.021,-0.050,0.239,-0.015,0.014,-41.944,13.836,30.562
1747666130.05,0.032,-0.015,-0.038,0.238,0.014,0.003,-41.813,13.811,30.652
1747666130.06,0.022,0.005,-0.006,0.265,0.032,0.030,-41.671,13.802,30.617
1747666130.07,0.019,0.027,0.011,0.261,0.014,0.070,-41.518,13.809,30.727
1747666130.08,0.024,0.037,0.000,0.289,-0.022,0.101,-41.355,13.816,30.742
1747666130.09,0.062,0.031,-0.015,0.323,-0.090,0.106,-41.170,13.799,30.886
1747666130.10,0.114,0.013,-0.021,0.306,-0.149,0.114,-40.978,13.747,30.910
1747666130.11,0.159,-0.004,-0.004,0.264,-0.203,0.120,-40.804,13.671,31.073
1747666130.12,0.167,-0.023,-0.011,0.247,-0.267,0.124,-40.647,13.565,31.118
1747666130.13,0.138,-0.048,-0.005,0.244,-0.271,0.148,-40.491,13.442,31.293
1747666130.14,0.102,-0.067,0.015,0.214,-0.194,0.172,-40.342,13.359,31.371
1747666130.15,0.049,-0.074,0.005,0.207,-0.167,0.191,-40.201,13.322,31.595
1747666130.16,-0.036,-0.062,-0.065,0.192,-0.161,0.216,-40.063,13.299,31.708
1747666130.17,-0.101,-0.028,-0.082,0.191,-0.106,0.198,-39.931,13.299,31.958
1747666130.18,-0.114,0.023,-0.041,0.232,-0.066,0.142,-39.791,13.308,32.047
1747666130.19,-0.115,0.061,-0.014,0.263,-0.049,0.065,-39.641,13.297,32.221
1747666130.20,-0.118,0.059,0.006,0.295,-0.057,0.001,-39.481,13.251,32.196
1747666130.21,-0.109,0.014,-0.002,0.285,-0.071,-0.038,-39.321,13.174,32.272
1747666130.22,-0.079,-0.037,-0.006,0.270,-0.049,-0.065,-39.173,13.087,32.189
1747666130.23,-0.048,-0.061,-0.015,0.253,-0.065,-0.088,-39.038,12.992,32.231
1747666130.24,-0.037,-0.044,-0.031,0.257,-0.056,-0.102,-38.910,12.889,32.121
1747666130.25,-0.039,0.007,-0.030,0.267,-0.046,-0.093,-38.776,12.787,32.159
1747666130.26,-0.041,0.059,-0.023,0.271,-0.004,-0.071,-38.636,12.708,32.056
1747666130.27,-0.053,0.097,-0.014,0.266,0.024,-0.044,-38.494,12.662,32.127
1747666130.28,-0.056,0.106,0.000,0.275,0.035,-0.001,-38.345,12.643,32.067
1747666130.29,-0.028,0.094,0.029,0.297,0.036,0.030,-38.185,12.643,32.182
1747666130.30,0.022,0.077,0.037,0.318,0.031,0.031,-38.010,12.647,32.156
1747666130.31,0.071,0.053,0.029,0.329,0.009,0.004,-37.826,12.634,32.260
1747666130.32,0.099,0.018,0.030,0.320,-0.023,0.017,-37.644,12.605,32.216
1747666130.33,0.098,-0.028,0.026,0.292,-0.094,0.042,-37.468,12.555,32.308
1747666130.34,0.084,-0.066,-0.007,0.250,-0.105,0.060,-37.310,12.489,32.302
1747666130.35,0.083,-0.069,-0.039,0.177,-0.047,0.066,-37.182,12.453,32.440
1747666130.36,0.061,-0.023,-0.033,0.131,-0.011,0.085,-37.089,12.454,32.468
1747666130.37,0.006,0.036,-0.014,0.121,-0.014,0.131,-37.006,12.482,32.660
1747666130.38,-0.059,0.085,0.004,0.127,-0.009,0.142,-36.920,12.522,32.739
1747666130.39,-0.075,0.106,-0.004,0.160,0.011,0.110,-36.825,12.563,32.935
1747666130.40,-0.045,0.085,0.001,0.198,0.032,0.070,-36.715,12.597,32.970
1747666130.41,-0.021,0.040,0.016,0.205,0.004,0.036,-36.594,12.613,33.113
1747666130.42,-0.015,-0.009,-0.008,0.175,-0.020,0.015,-36.483,12.601,33.100
1747666130.43,0.002,-0.039,-0.045,0.129,-0.011,0.008,-36.394,12.584,33.205
1747666130.44,0.008,-0.033,-0.052,0.082,0.010,0.013,-36.334,12.578,33.195
1747666130.45,-0.015,0.002,-0.033,0.049,0.082,0.029,-36.296,12.606,33.325
1747666130.46,-0.042,0.054,-0.013,0.005,0.118,0.038,-36.279,12.675,33.343
1747666130.47,-0.056,0.096,-0.010,-0.008,0.094,0.051,-36.278,12.753,33.506
1747666130.48,-0.017,0.096,-0.033,-0.025,0.065,0.050,-36.282,12.817,33.544
1747666130.49,0.049,0.064,-0.035,-0.035,0.065,0.026,-36.296,12.873,33.701
1747666130.50,0.107,0.029,-0.031,-0.066,-0.002,-0.001,-36.321,12.901,33.717
1747666130.51,0.097,0.008,-0.075,-0.109,-0.050,-0.018,-36.371,12.888,33.851
1747666130.52,0.038,-0.001,-0.084,-0.133,-0.095,-0.020,-36.438,12.849,33.858
1747666130.53,-0.014,0.003,-0.052,-0.156,-0.083,-0.025,-36.522,12.799,33.996
1747666130.54,-0.018,0.012,-0.027,-0.143,-0.078,-0.027,-36.610,12.757,34.001
1747666130.55,0.001,0.015,-0.033,-0.187,-0.065,-0.030,-36.703,12.718,34.131
1747666130.56,0.026,0.016,-0.060,-0.266,-0.048,-0.032,-36.836,12.695,34.145
1747666130.57,0.054,0.003,-0.062,-0.313,-0.019,-0.017,-37.001,12.692,34.304
1747666130.58,0.060,-0.014,-0.056,-0.368,0.051,-0.020,-37.191,12.731,34.348
1747666130.59,0.039,-0.021,-0.070,-0.395,0.071,-0.033,-37.407,12.795,34.542
1747666130.60,-0.020,-0.018,-0.077,-0.408,0.078,-0.022,-37.634,12.863,34.586
1747666130.61,-0.060,-0.014,-0.026,-0.416,0.095,-0.017,-37.864,12.945,34.767
1747666130.62,-0.020,-0.005,-0.033,-0.436,0.060,-0.053,-38.106,13.019,34.814
1747666130.63,0.023,0.015,-0.053,-0.451,0.016,-0.093,-38.362,13.051,34.950
1747666130.64,0.049,0.036,-0.048,-0.505,-0.037,-0.115,-38.639,13.048,34.954
1747666130.64,0.054,0.042,-0.050,-0.542,-0.063,-0.127,-38.948,13.016,35.076
1747666130.65,0.035,0.039,-0.046,-0.548,0.001,-0.139,-39.268,12.996,35.072
1747666130.67,-0.011,0.035,-0.018,-0.565,0.053,-0.146,-39.595,13.005,35.172
1747666130.67,-0.054,0.026,-0.036,-0.591,0.071,-0.137,-39.934,13.038,35.256
1747666130.69,-0.054,0.010,-0.069,-0.611,0.089,-0.130,-40.286,13.085,35.261
1747666130.69,-0.040,-0.004,-0.063,-0.641,0.147,-0.147,-40.651,13.157,35.337
1747666130.70,-0.012,-0.016,-0.048,-0.680,0.185,-0.179,-41.040,13.251,35.331
1747666130.72,0.006,-0.031,-0.059,-0.716,0.188,-0.188,-41.452,13.349,35.367
1747666130.72,-0.005,-0.049,-0.039,-0.730,0.168,-0.182,-41.880,13.442,35.356
1747666130.74,-0.015,-0.057,-0.025,-0.758,0.163,-0.170,-42.314,13.537,35.409
1747666130.74,-0.006,-0.048,-0.025,-0.764,0.174,-0.165,-42.762,13.643,35.423
1747666130.75,0.005,-0.027,-0.028,-0.770,0.147,-0.175,-43.209,13.742,35.473
1747666130.76,0.008,0.001,-0.047,-0.789,0.135,-0.191,-43.667,13.825,35.479
1747666130.77,0.018,0.017,-0.040,-0.776,0.133,-0.198,-44.129,13.902,35.503
1747666130.78,0.019,0.013,-0.054,-0.790,0.116,-0.205,-44.590,13.968,35.498
1747666130.79,0.007,-0.009,-0.050,-0.817,0.165,-0.212,-45.064,14.042,35.507
1747666130.80,0.017,-0.049,-0.031,-0.840,0.187,-0.201,-45.550,14.145,35.508
1747666130.81,0.028,-0.088,-0.045,-0.880,0.152,-0.172,-46.053,14.258,35.553
1747666130.82,0.039,-0.107,-0.057,-0.926,0.157,-0.136,-46.575,14.390,35.615
1747666130.83,0.062,-0.101,-0.030,-0.940,0.146,-0.113,-47.110,14.548,35.715
1747666130.84,0.064,-0.078,-0.016,-0.923,0.145,-0.102,-47.640,14.714,35.827
1747666130.85,0.042,-0.045,-0.016,-0.913,0.135,-0.114,-48.162,14.877,35.938
1747666130.86,0.008,-0.017,-0.024,-0.907,0.098,-0.135,-48.682,15.016,36.036
1747666130.88,-0.029,-0.006,-0.045,-0.945,0.094,-0.153,-49.213,15.137,36.106
1747666130.89,-0.048,-0.013,-0.033,-0.976,0.122,-0.153,-49.766,15.267,36.197
1747666130.90,-0.035,-0.026,-0.026,-0.999,0.142,-0.146,-50.333,15.422,36.287
1747666130.90,0.001,-0.030,-0.018,-1.019,0.155,-0.125,-50.909,15.603,36.413
1747666130.91,0.037,-0.018,-0.007,-1.048,0.218,-0.107,-51.494,15.828,36.515
1747666130.92,0.067,0.007,0.028,-1.069,0.234,-0.105,-52.093,16.101,36.693
1747666130.93,0.063,0.036,0.026,-1.055,0.131,-0.106,-52.692,16.352,36.826
1747666130.94,0.030,0.055,-0.005,-1.065,0.033,-0.111,-53.290,16.545,37.013
1747666130.95,0.013,0.057,0.009,-1.055,0.045,-0.120,-53.889,16.713,37.133
1747666130.96,0.015,0.041,0.016,-1.037,0.063,-0.140,-54.481,16.886,37.306
1747666130.97,0.000,0.015,-0.015,-1.045,0.062,-0.164,-55.075,17.049,37.389
1747666130.98,-0.013,-0.006,-0.028,-1.069,0.119,-0.190,-55.681,17.218,37.532
1747666130.99,-0.014,-0.019,-0.025,-1.096,0.178,-0.215,-56.306,17.413,37.589
1747666131.00,-0.019,-0.022,-0.018,-1.140,0.187,-0.227,-56.953,17.628,37.719
1747666131.01,-0.018,-0.019,-0.015,-1.182,0.193,-0.211,-57.623,17.863,37.794
1747666131.02,0.004,-0.013,-0.004,-1.205,0.163,-0.191,-58.308,18.129,37.983
1747666131.03,0.020,-0.006,0.013,-1.201,0.110,-0.157,-58.992,18.405,38.122
1747666131.04,0.036,-0.004,0.007,-1.192,0.109,-0.129,-59.665,18.701,38.397
1747666131.05,0.073,-0.010,0.008,-1.186,0.130,-0.132,-60.333,19.030,38.594
1747666131.06,0.094,-0.016,-0.002,-1.156,0.084,-0.150,-60.991,19.351,38.890
1747666131.07,0.088,-0.023,-0.032,-1.157,0.035,-0.164,-61.642,19.627,39.071
1747666131.08,0.086,-0.029,-0.024,-1.174,0.026,-0.178,-62.302,19.895,39.356
1747666131.09,0.085,-0.029,-0.011,-1.166,0.033,-0.207,-62.967,20.156,39.512
1747666131.10,0.065,-0.025,-0.012,-1.158,0.018,-0.237,-63.633,20.394,39.759
1747666131.11,0.034,-0.023,-0.012,-1.153,-0.108,-0.268,-64.303,20.570,39.854
1747666131.12,-0.001,-0.018,-0.064,-1.129,-0.253,-0.312,-64.972,20.619,40.027
1747666131.13,-0.020,-0.024,-0.100,-1.131,-0.267,-0.350,-65.641,20.571,40.017
1747666131.14,-0.011,-0.052,-0.052,-1.146,-0.191,-0.379,-66.325,20.515,40.098
1747666131.15,-0.003,-0.083,-0.034,-1.110,-0.140,-0.392,-67.007,20.466,40.011
1747666131.16,-0.008,-0.091,-0.075,-1.085,-0.121,-0.370,-67.668,20.420,40.045
1747666131.17,-0.004,-0.083,-0.071,-1.091,-0.007,-0.313,-68.317,20.462,39.984
1747666131.18,0.003,-0.065,-0.015,-1.117,0.151,-0.268,-68.967,20.677,40.169
1747666131.19,-0.006,-0.039,0.037,-1.115,0.200,-0.245,-69.616,21.024,40.293
1747666131.20,-0.023,-0.006,-0.002,-1.095,0.156,-0.248,-70.255,21.392,40.576
1747666131.21,-0.020,0.021,-0.040,-1.092,0.103,-0.249,-70.888,21.741,40.718
1747666131.22,-0.005,0.030,-0.024,-1.077,0.103,-0.254,-71.517,22.086,41.023
1747666131.23,0.008,0.011,-0.010,-1.042,0.154,-0.279,-72.135,22.427,41.149
1747666131.24,0.006,-0.023,-0.015,-1.028,0.213,-0.299,-72.743,22.768,41.397
1747666131.25,-0.008,-0.063,-0.009,-1.007,0.255,-0.317,-73.347,23.113,41.448
1747666131.26,-0.016,-0.087,-0.020,-0.989,0.223,-0.303,-73.942,23.461,41.666
1747666131.27,-0.021,-0.081,-0.060,-0.965,0.165,-0.273,-74.519,23.830,41.767
1747666131.28,-0.000,-0.057,-0.077,-0.942,0.113,-0.247,-75.077,24.230,42.098
1747666131.29,0.032,-0.023,-0.086,-0.948,0.084,-0.252,-75.626,24.642,42.300
1747666131.30,0.048,0.012,-0.067,-0.971,0.107,-0.274,-76.187,25.073,42.690
1747666131.31,0.045,0.024,-0.008,-0.954,0.113,-0.315,-76.758,25.488,42.879
1747666131.32,0.009,0.021,-0.006,-0.901,0.086,-0.362,-77.319,25.781,43.122
1747666131.33,-0.027,0.011,-0.040,-0.859,0.108,-0.397,-77.866,25.937,43.053
1747666131.34,-0.052,0.003,-0.050,-0.867,0.151,-0.404,-78.407,26.057,43.100
1747666131.35,-0.080,-0.003,-0.019,-0.977,0.115,-0.413,-78.981,26.243,43.030
1747666131.36,-0.108,-0.004,0.011,-1.074,0.052,-0.415,-79.613,26.552,43.297
1747666131.37,-0.113,-0.013,0.015,-1.066,0.083,-0.405,-80.267,26.962,43.486
1747666131.38,-0.072,-0.027,0.013,-1.020,0.212,-0.380,-80.901,27.477,43.924
1747666131.39,0.004,-0.039,0.019,-0.995,0.284,-0.337,-81.505,28.188,44.304
1747666131.40,0.067,-0.043,0.005,-0.949,0.263,-0.293,-82.078,29.098,45.065
1747666131.41,0.107,-0.037,-0.018,-0.924,0.208,-0.259,-82.620,30.177,45.840
1747666131.42,0.123,-0.026,-0.011,-0.929,0.201,-0.244,-83.148,31.470,47.028
1747666131.43,0.125,0.001,0.003,-0.927,0.231,-0.240,-83.670,33.032,48.298
1747666131.44,0.100,0.030,0.002,-0.928,0.177,-0.255,-84.188,34.838,49.994
1747666131.45,0.045,0.031,-0.002,-0.916,0.146,-0.295,-84.706,36.791,51.681
1747666131.46,0.015,-0.004,0.002,-0.896,0.166,-0.307,-85.221,38.939,53.747
1747666131.47,0.036,-0.045,0.000,-0.859,0.137,-0.270,-85.712,41.516,56.039
1747666131.48,0.068,-0.057,-0.035,-0.812,0.058,-0.200,-86.151,44.783,59.259
1747666131.49,0.075,-0.042,-0.065,-0.801,0.047,-0.170,-86.541,48.957,63.226
1747666131.50,0.056,-0.020,-0.018,-0.828,0.038,-0.203,-86.912,54.222,68.474
1747666131.51,-0.011,0.006,0.045,-0.812,0.032,-0.260,-87.277,60.680,74.832
1747666131.52,-0.094,0.023,0.042,-0.732,0.055,-0.317,-87.618,68.054,82.188
1747666131.53,-0.142,0.020,0.019,-0.666,0.052,-0.344,-87.921,76.290,90.399
1747666131.54,-0.152,0.011,0.014,-0.662,0.103,-0.301,-88.163,86.472,100.547
1747666131.55,-0.135,-0.009,0.047,-0.627,0.251,-0.232,-88.298,98.812,112.794
1747666131.56,-0.103,-0.019,0.051,-0.548,0.371,-0.183,-88.325,111.024,124.829
1747666131.57,-0.081,0.003,0.017,-0.507,0.388,-0.164,-88.280,121.797,135.388
1747666131.58,-0.060,0.029,-0.015,-0.461,0.403,-0.193,-88.196,131.217,144.586
1747666131.59,-0.028,0.044,-0.022,-0.442,0.444,-0.221,-88.097,139.602,152.736
1747666131.60,-0.001,0.052,0.011,-0.466,0.542,-0.226,-87.966,147.387,160.245
1747666131.61,0.002,0.034,0.090,-0.467,0.611,-0.203,-87.792,154.169,166.700
1747666131.62,-0.029,-0.000,0.110,-0.425,0.606,-0.178,-87.600,159.513,171.702
1747666131.63,-0.055,-0.030,0.059,-0.375,0.600,-0.149,-87.414,163.547,175.396
1747666131.64,-0.040,-0.039,0.002,-0.330,0.633,-0.125,-87.239,166.618,178.117
1747666131.65,-0.000,-0.017,-0.009,-0.282,0.578,-0.107,-87.081,169.039,-179.809
1747666131.66,0.036,0.014,-0.028,-0.247,0.480,-0.102,-86.944,170.942,-178.204
1747666131.67,0.065,0.036,0.011,-0.266,0.449,-0.131,-86.810,172.748,-176.659
1747666131.68,0.067,0.043,0.096,-0.292,0.391,-0.150,-86.661,174.709,-174.938
1747666131.69,0.044,0.014,0.099,-0.301,0.301,-0.157,-86.498,176.594,-173.246
1747666131.70,0.031,-0.039,0.061,-0.308,0.207,-0.152,-86.328,178.265,-171.718
1747666131.71,0.045,-0.082,0.032,-0.288,0.067,-0.142,-86.157,179.676,-170.384
1747666131.72,0.081,-0.095,-0.024,-0.226,-0.041,-0.132,-86.008,-179.174,-169.237
1747666131.73,0.133,-0.069,-0.040,-0.152,-0.121,-0.109,-85.899,-178.272,-168.284
1747666131.74,0.163,-0.017,-0.019,-0.118,-0.178,-0.101,-85.822,-177.581,-167.507
1747666131.75,0.126,0.039,0.019,-0.116,-0.311,-0.112,-85.751,-176.943,-166.730
1747666131.76,0.030,0.071,0.007,-0.098,-0.427,-0.116,-85.687,-176.321,-165.891
1747666131.77,-0.068,0.053,-0.023,-0.116,-0.427,-0.105,-85.622,-175.799,-165.118
1747666131.78,-0.113,0.006,-0.026,-0.105,-0.321,-0.100,-85.553,-175.317,-164.418
1747666131.79,-0.108,-0.032,-0.043,-0.048,-0.129,-0.076,-85.504,-174.855,-163.822
1747666131.80,-0.076,-0.043,-0.035,0.011,0.069,-0.046,-85.493,-174.433,-163.385
1747666131.81,-0.048,-0.021,-0.013,0.019,0.187,-0.023,-85.500,-174.107,-163.134
1747666131.82,-0.055,0.012,-0.003,0.008,0.225,-0.021,-85.507,-173.840,-162.987
1747666131.83,-0.084,0.034,0.012,0.015,0.206,-0.014,-85.513,-173.586,-162.856
1747666131.84,-0.102,0.032,0.003,-0.004,0.264,0.005,-85.516,-173.405,-162.803
1747666131.85,-0.072,0.018,0.027,-0.044,0.379,0.043,-85.503,-173.412,-162.995
1747666131.86,-0.020,0.012,0.049,-0.060,0.435,0.055,-85.475,-173.592,-163.411
1747666131.87,0.012,0.017,0.023,-0.060,0.406,0.044,-85.444,-173.747,-163.810
1747666131.88,0.037,0.017,0.027,-0.043,0.373,0.027,-85.417,-173.818,-164.104
1747666131.89,0.060,0.001,0.048,-0.010,0.322,0.023,-85.403,-173.817,-164.303
1747666131.90,0.065,-0.017,0.051,0.008,0.283,0.011,-85.405,-173.768,-164.427
1747666131.91,0.036,-0.025,0.060,-0.019,0.238,0.003,-85.404,-173.667,-164.475
1747666131.92,0.000,-0.029,0.080,-0.033,0.177,-0.000,-85.389,-173.594,-164.523
1747666131.93,-0.033,-0.033,0.056,-0.029,0.059,-0.015,-85.371,-173.498,-164.498
1747666131.94,-0.041,-0.038,0.014,-0.013,-0.058,-0.020,-85.357,-173.411,-164.407
1747666131.95,0.002,-0.036,0.004,0.004,-0.086,-0.012,-85.354,-173.360,-164.311
1747666131.96,0.043,-0.020,0.016,-0.002,-0.097,-0.003,-85.354,-173.397,-164.295
1747666131.97,0.049,-0.000,0.015,-0.003,-0.095,-0.007,-85.350,-173.451,-164.295
1747666131.98,0.037,0.009,0.018,0.024,-0.146,-0.024,-85.352,-173.430,-164.206
1747666131.99,0.017,0.010,0.005,0.071,-0.238,-0.033,-85.374,-173.315,-163.981
1747666132.00,0.003,0.008,-0.006,0.142,-0.345,-0.025,-85.426,-173.193,-163.693
1747666132.01,0.006,0.012,-0.024,0.218,-0.464,-0.004,-85.521,-173.131,-163.398
1747666132.02,0.016,0.017,-0.053,0.278,-0.550,0.014,-85.661,-173.193,-163.169
1747666132.03,0.018,0.016,-0.049,0.313,-0.545,0.037,-85.830,-173.439,-163.097
1747666132.04,0.015,0.010,-0.019,0.342,-0.436,0.059,-86.019,-173.822,-163.200
1747666132.05,-0.001,0.008,-0.001,0.376,-0.360,0.080,-86.226,-174.316,-163.468
1747666132.06,-0.048,0.008,-0.008,0.409,-0.286,0.092,-86.456,-174.938,-163.904
1747666132.07,-0.085,0.004,0.009,0.401,-0.169,0.107,-86.693,-175.682,-164.520
1747666132.08,-0.093,0.000,0.049,0.389,-0.049,0.127,-86.921,-176.663,-165.441
1747666132.09,-0.095,-0.004,0.055,0.415,0.008,0.151,-87.152,-177.991,-166.761
1747666132.10,-0.097,-0.007,0.025,0.490,0.033,0.177,-87.410,-179.854,-168.636
1747666132.11,-0.090,-0.006,-0.008,0.585,0.087,0.208,-87.716,177.466,-171.352
1747666132.12,-0.068,0.007,-0.027,0.613,0.131,0.237,-88.050,173.381,-175.505
1747666132.13,-0.049,0.025,0.011,0.612,0.105,0.253,-88.371,167.120,178.162
1747666132.14,-0.044,0.036,0.063,0.633,0.077,0.257,-88.666,157.631,168.619
1747666132.15,-0.044,0.021,0.099,0.652,0.107,0.250,-88.917,143.022,153.954
1747666132.16,-0.036,-0.012,0.126,0.643,0.071,0.235,-89.068,122.229,133.103
1747666132.17,-0.022,-0.029,0.092,0.673,-0.011,0.226,-89.073,97.581,108.437
1747666132.18,-0.009,-0.028,0.028,0.676,-0.073,0.219,-88.920,75.773,86.649
1747666132.19,0.004,-0.022,0.048,0.672,-0.127,0.216,-88.662,61.041,71.971
1747666132.20,0.017,-0.016,0.080,0.760,-0.223,0.210,-88.332,50.665,61.687
1747666132.21,0.035,-0.011,0.055,0.823,-0.409,0.218,-87.931,42.893,54.090
1747666132.22,0.065,-0.004,0.049,0.832,-0.605,0.250,-87.484,37.517,49.000
1747666132.23,0.091,0.009,0.055,0.868,-0.697,0.263,-87.004,33.785,45.642
1747666132.24,0.097,0.029,0.027,0.891,-0.668,0.234,-86.500,30.773,43.018
1747666132.25,0.061,0.027,0.086,0.834,-0.643,0.195,-86.008,28.301,40.914
1747666132.26,-0.004,0.007,0.165,0.788,-0.635,0.168,-85.552,26.313,39.285
1747666132.27,-0.063,-0.012,0.163,0.814,-0.656,0.160,-85.100,24.580,37.916
1747666132.28,-0.110,-0.017,0.100,0.824,-0.609,0.158,-84.634,23.033,36.517
1747666132.29,-0.118,-0.015,0.047,0.789,-0.468,0.146,-84.173,21.749,35.538
1747666132.30,-0.081,-0.008,0.042,0.782,-0.356,0.154,-83.726,20.726,34.532
1747666132.31,-0.033,-0.003,0.049,0.831,-0.236,0.214,-83.260,20.016,33.988
1747666132.32,0.011,-0.007,0.058,0.905,-0.119,0.284,-82.744,19.637,33.518
1747666132.33,0.032,-0.003,0.039,0.929,-0.053,0.348,-82.187,19.545,33.473
1747666132.34,0.028,0.008,0.027,0.900,-0.069,0.375,-81.624,19.659,33.446
1747666132.35,0.005,0.015,0.028,0.878,-0.160,0.368,-81.074,19.785,33.640
1747666132.36,-0.031,0.015,-0.007,0.825,-0.132,0.341,-80.546,19.845,33.616
1747666132.37,-0.051,0.004,-0.017,0.750,0.053,0.314,-80.062,19.957,33.754
1747666132.38,-0.061,-0.017,0.028,0.740,0.124,0.291,-79.605,20.118,33.698
1747666132.39,-0.085,-0.043,-0.016,0.790,0.030,0.261,-79.142,20.160,33.693
1747666132.40,-0.096,-0.057,-0.084,0.908,-0.036,0.262,-78.638,20.019,33.393
1747666132.41,-0.041,-0.043,-0.094,0.961,-0.020,0.287,-78.076,19.822,33.210
1747666132.42,0.020,-0.002,-0.022,0.905,0.011,0.305,-77.517,19.727,32.954
1747666132.43,0.035,0.040,0.067,0.823,0.043,0.295,-76.994,19.719,32.932
1747666132.44,-0.005,0.065,0.102,0.789,0.108,0.252,-76.511,19.743,32.765
1747666132.45,-0.078,0.063,0.057,0.815,0.102,0.193,-76.036,19.658,32.615
1747666132.46,-0.156,0.036,-0.039,0.788,0.173,0.179,-75.567,19.509,32.252
1747666132.47,-0.151,-0.012,-0.013,0.770,0.275,0.208,-75.114,19.472,32.080
1747666132.48,-0.095,-0.046,0.027,0.821,0.255,0.236,-74.644,19.515,31.827
1747666132.49,-0.036,-0.036,-0.009,0.888,0.105,0.227,-74.139,19.486,31.689
1747666132.50,0.025,-0.002,-0.070,0.956,-0.007,0.181,-73.605,19.288,31.322
1747666132.51,0.074,0.029,-0.076,1.031,0.098,0.143,-73.038,18.975,30.978
1747666132.52,0.112,0.052,-0.017,1.025,0.265,0.107,-72.454,18.684,30.418
1747666132.53,0.071,0.064,0.018,0.921,0.260,0.093,-71.908,18.452,30.012
1747666132.54,-0.035,0.041,0.011,0.816,0.261,0.116,-71.419,18.297,29.566
1747666132.55,-0.084,-0.007,0.012,0.732,0.278,0.152,-70.978,18.262,29.367
1747666132.56,-0.101,-0.053,0.025,0.712,0.312,0.182,-70.559,18.317,29.142
1747666132.57,-0.092,-0.076,0.031,0.770,0.317,0.209,-70.124,18.429,29.065
1747666132.58,-0.052,-0.073,0.006,0.837,0.258,0.200,-69.651,18.501,28.867
1747666132.59,-0.018,-0.054,-0.047,0.917,0.237,0.167,-69.143,18.484,28.702
1747666132.60,0.007,-0.030,-0.077,1.010,0.262,0.113,-68.595,18.375,28.331
1747666132.61,0.001,-0.010,-0.079,1.078,0.312,0.050,-68.013,18.175,27.940
1747666132.62,-0.017,0.002,-0.045,1.080,0.325,0.018,-67.419,17.936,27.379
1747666132.63,-0.036,0.001,-0.011,0.998,0.225,0.028,-66.848,17.685,26.877
1747666132.64,-0.053,-0.013,-0.044,0.829,0.336,0.094,-66.337,17.536,26.554
1747666132.65,-0.031,-0.037,-0.021,0.682,0.550,0.173,-65.908,17.670,26.338
1747666132.66,0.042,-0.066,0.074,0.672,0.551,0.249,-65.503,17.987,26.331
1747666132.67,0.148,-0.075,0.083,0.668,0.366,0.341,-65.088,18.341,26.373
1747666132.68,0.283,-0.057,0.078,0.692,0.122,0.424,-64.652,18.661,26.570
1747666132.69,0.390,-0.037,0.088,0.744,-0.161,0.397,-64.188,18.846,26.713
1747666132.70,0.444,-0.025,0.047,0.776,-0.439,0.340,-63.706,18.790,26.845
1747666132.71,0.425,-0.031,-0.032,0.751,-0.591,0.298,-63.234,18.553,26.860
1747666132.72,0.337,-0.045,-0.046,0.689,-0.641,0.278,-62.790,18.247,26.914
1747666132.73,0.192,-0.043,-0.051,0.653,-0.650,0.281,-62.379,17.942,26.985
1747666132.74,0.017,-0.005,-0.013,0.639,-0.665,0.302,-61.975,17.651,27.081
1747666132.75,-0.144,0.046,0.007,0.583,-0.580,0.323,-61.588,17.412,27.220
1747666132.76,-0.218,0.076,0.012,0.566,-0.469,0.324,-61.222,17.259,27.386
1747666132.77,-0.230,0.074,-0.003,0.594,-0.432,0.304,-60.855,17.139,27.506
1747666132.78,-0.204,0.044,-0.013,0.674,-0.434,0.299,-60.460,16.994,27.625
1747666132.79,-0.145,0.016,-0.055,0.737,-0.365,0.290,-60.023,16.841,27.707
1747666132.80,-0.101,0.009,-0.056,0.711,-0.218,0.246,-59.581,16.719,27.761
1747666132.81,-0.127,0.008,-0.002,0.707,-0.015,0.198,-59.160,16.663,27.776
1747666132.82,-0.180,0.009,0.030,0.742,0.110,0.162,-58.733,16.657,27.733
1747666132.83,-0.225,0.026,0.004,0.656,0.224,0.157,-58.320,16.702,27.677
1747666132.84,-0.191,0.032,0.034,0.574,0.362,0.181,-57.961,16.858,27.662
1747666132.85,-0.082,0.030,0.032,0.579,0.383,0.202,-57.615,17.092,27.679
1747666132.86,0.018,0.029,0.030,0.589,0.244,0.216,-57.261,17.297,27.706
1747666132.87,0.087,0.027,0.046,0.615,0.097,0.218,-56.897,17.417,27.736
1747666132.88,0.144,0.034,0.062,0.664,-0.010,0.202,-56.512,17.449,27.747
1747666132.89,0.164,0.048,0.049,0.668,-0.092,0.150,-56.117,17.393,27.716
1747666132.90,0.124,0.064,0.009,0.650,-0.087,0.098,-55.735,17.270,27.635
1747666132.91,0.084,0.063,0.022,0.615,-0.082,0.081,-55.376,17.139,27.530
1747666132.92,0.047,0.045,0.041,0.579,-0.108,0.116,-55.033,17.011,27.444
1747666132.93,0.043,0.023,0.027,0.541,-0.092,0.185,-54.703,16.941,27.426
1747666132.94,0.055,-0.000,0.032,0.533,-0.139,0.236,-54.376,16.915,27.474
1747666132.95,0.047,-0.018,-0.003,0.556,-0.187,0.265,-54.038,16.886,27.556
1747666132.96,0.044,-0.024,0.024,0.635,-0.152,0.255,-53.668,16.849,27.635
1747666132.97,0.025,-0.020,0.030,0.675,-0.107,0.199,-53.269,16.799,27.662
1747666132.98,-0.029,-0.011,-0.024,0.666,-0.120,0.139,-52.874,16.712,27.631
1747666132.99,-0.076,-0.012,-0.078,0.622,-0.127,0.097,-52.500,16.581,27.561
1747666133.00,-0.081,-0.018,-0.052,0.553,-0.058,0.080,-52.165,16.464,27.482
1747666133.01,-0.018,-0.029,0.010,0.524,0.006,0.102,-51.859,16.402,27.420
1747666133.02,0.073,-0.032,0.026,0.519,-0.036,0.148,-51.553,16.377,27.393
1747666133.03,0.124,-0.019,0.010,0.497,-0.129,0.197,-51.246,16.344,27.412
1747666133.04,0.145,-0.008,-0.015,0.503,-0.229,0.253,-50.937,16.297,27.482
1747666133.05,0.148,-0.005,-0.022,0.533,-0.336,0.312,-50.608,16.223,27.597
1747666133.06,0.128,-0.001,0.003,0.588,-0.402,0.343,-50.249,16.121,27.741
1747666133.07,0.100,0.004,0.027,0.664,-0.392,0.322,-49.852,15.993,27.875
1747666133.08,0.056,0.011,0.023,0.656,-0.326,0.242,-49.441,15.848,27.953
1747666133.09,0.018,0.001,0.017,0.583,-0.289,0.169,-49.068,15.687,27.974
1747666133.10,0.026,-0.041,-0.020,0.516,-0.248,0.174,-48.741,15.543,27.984
1747666133.11,0.045,-0.094,-0.069,0.474,-0.243,0.247,-48.439,15.448,28.045
1747666133.12,0.038,-0.127,-0.096,0.454,-0.240,0.317,-48.140,15.407,28.174
1747666133.13,0.006,-0.112,-0.062,0.469,-0.229,0.341,-47.838,15.398,28.346
1747666133.14,-0.047,-0.049,-0.008,0.518,-0.211,0.315,-47.516,15.389,28.504
1747666133.15,-0.097,0.036,0.003,0.550,-0.202,0.271,-47.178,15.361,28.624
1747666133.16,-0.120,0.097,0.005,0.613,-0.164,0.207,-46.823,15.302,28.689
1747666133.17,-0.110,0.133,0.039,0.662,-0.121,0.120,-46.445,15.216,28.679
1747666133.18,-0.091,0.140,0.055,0.604,-0.152,0.015,-46.084,15.079,28.595
1747666133.19,-0.082,0.122,-0.013,0.515,-0.191,-0.045,-45.777,14.883,28.540
1747666133.20,-0.068,0.068,-0.069,0.423,-0.185,-0.043,-45.526,14.676,28.404
1747666133.21,-0.069,0.006,-0.052,0.388,-0.128,0.005,-45.308,14.517,28.461
1747666133.22,-0.075,-0.026,-0.003,0.407,-0.090,0.066,-45.083,14.419,28.411
1747666133.23,-0.094,0.008,0.027,0.419,-0.036,0.095,-44.842,14.369,28.538
1747666133.24,-0.108,0.087,0.034,0.443,0.004,0.097,-44.591,14.355,28.528
1747666133.25,-0.091,0.142,0.037,0.496,-0.013,0.071,-44.319,14.336,28.652
1747666133.26,-0.044,0.151,0.041,0.576,-0.062,0.010,-44.018,14.268,28.581
1747666133.27,0.022,0.121,0.041,0.639,-0.133,-0.062,-43.683,14.116,28.593
1747666133.28,0.072,0.068,-0.001,0.581,-0.125,-0.128,-43.353,13.907,28.402
1747666133.29,0.093,0.002,-0.057,0.434,-0.107,-0.181,-43.093,13.698,28.326
1747666133.30,0.065,-0.082,-0.095,0.345,-0.143,-0.160,-42.904,13.484,28.120
1747666133.31,0.010,-0.157,-0.067,0.331,-0.101,-0.035,-42.732,13.317,28.128
1747666133.32,-0.008,-0.163,0.013,0.336,-0.012,0.058,-42.544,13.256,28.085
1747666133.33,-0.014,-0.096,0.027,0.346,0.026,0.088,-42.346,13.260,28.219
1747666133.34,-0.019,0.011,0.019,0.365,0.024,0.095,-42.137,13.279,28.225
1747666133.35,-0.011,0.095,0.018,0.383,0.021,0.095,-41.916,13.296,28.375
1747666133.36,0.040,0.119,0.026,0.404,0.013,0.085,-41.685,13.304,28.373
1747666133.37,0.097,0.092,0.017,0.386,0.025,0.066,-41.454,13.308,28.488
1747666133.38,0.103,0.046,0.007,0.364,0.016,0.034,-41.240,13.301,28.459
1747666133.39,0.054,-0.013,-0.032,0.349,-0.024,0.035,-41.037,13.274,28.550
1747666133.40,-0.004,-0.063,-0.064,0.305,-0.056,0.059,-40.850,13.234,28.527
1747666133.41,-0.047,-0.077,-0.073,0.271,-0.008,0.088,-40.682,13.219,28.673
1747666133.42,-0.064,-0.051,-0.050,0.282,0.019,0.081,-40.518,13.234,28.690
1747666133.43,-0.078,0.007,-0.034,0.319,0.028,0.037,-40.343,13.243,28.820
1747666133.44,-0.057,0.047,-0.023,0.357,0.013,-0.026,-40.156,13.221,28.766
1747666133.45,-0.028,0.040,-0.022,0.403,-0.028,-0.070,-39.951,13.153,28.812
1747666133.46,-0.007,0.001,-0.003,0.434,-0.043,-0.092,-39.727,13.046,28.682
1747666133.47,0.003,-0.039,0.000,0.425,-0.002,-0.130,-39.500,12.933,28.672
1747666133.48,0.023,-0.062,-0.039,0.345,0.030,-0.160,-39.303,12.836,28.501
1747666133.49,0.021,-0.069,-0.075,0.285,-0.014,-0.128,-39.148,12.741,28.486
1747666133.50,0.021,-0.045,-0.069,0.224,-0.030,-0.019,-39.016,12.676,28.392
1747666133.51,0.034,0.001,-0.031,0.219,-0.053,-0.014,-38.897,12.622,28.504
1747666133.52,0.046,0.050,0.016,0.250,0.008,0.006,-38.767,12.580,28.462
1747666133.53,0.054,0.063,0.062,0.277,0.048,0.026,-38.618,12.579,28.577
1747666133.54,0.041,0.054,0.052,0.300,0.056,0.022,-38.453,12.594,28.549
1747666133.55,0.024,0.037,0.024,0.319,0.041,0.013,-38.279,12.598,28.660
1747666133.56,0.018,0.023,0.006,0.329,0.056,0.009,-38.097,12.597,28.615
1747666133.57,0.022,0.007,-0.003,0.321,0.035,0.010,-37.914,12.596,28.715
1747666133.58,-0.003,-0.011,-0.009,0.314,0.024,0.016,-37.735,12.588,28.674
1747666133.59,-0.020,-0.018,-0.006,0.304,0.071,0.016,-37.560,12.591,28.794
1747666133.60,-0.006,-0.013,0.013,0.279,0.063,0.004,-37.395,12.611,28.900
1747666133.61,0.038,0.001,0.000,0.228,0.026,-0.007,-37.253,12.610,28.857
1747666133.62,0.083,0.018,-0.024,0.164,-0.036,0.039,-37.143,12.599,28.969
1747666133.63,0.092,0.026,-0.037,0.151,-0.094,-0.004,-37.053,12.555,28.962
1747666133.64,0.080,0.044,-0.005,0.165,-0.105,0.028,-36.965,12.484,29.087
1747666133.65,0.071,0.052,0.032,0.188,-0.103,0.095,-36.859,12.435,29.104
1747666133.66,0.039,0.064,0.014,0.203,-0.117,0.128,-36.736,12.401,29.295
1747666133.67,0.005,0.070,-0.003,0.177,-0.091,0.128,-36.614,12.376,29.356
1747666133.68,0.013,0.049,0.006,0.172,-0.056,0.108,-36.504,12.369,29.569
1747666133.69,0.027,0.004,0.006,0.209,-0.058,0.089,-36.386,12.360,29.608
1747666133.70,0.014,-0.052,0.002,0.226,-0.040,0.090,-36.253,12.355,29.805
1747666133.71,0.012,-0.099,-0.011,0.204,-0.048,0.112,-36.122,12.358,29.843
1747666133.72,0.036,-0.114,-0.043,0.197,-0.077,0.133,-35.996,12.356,30.051
1747666133.73,0.054,-0.082,-0.043,0.162,-0.055,0.127,-35.880,12.356,30.116
1747666133.74,0.075,-0.021,-0.029,0.133,-0.044,0.114,-35.785,12.367,30.343
1747666133.74,0.070,0.024,-0.024,0.132,-0.059,0.115,-35.698,12.370,30.402
1747666133.76,0.022,0.038,-0.021,0.118,-0.033,0.135,-35.615,12.381,30.623
1747666133.76,-0.029,0.021,-0.011,0.119,-0.015,0.166,-35.530,12.418,30.709
1747666133.77,-0.051,0.002,-0.021,0.121,0.006,0.189,-35.440,12.477,30.970
1747666133.78,-0.040,0.006,-0.019,0.090,0.007,0.166,-35.356,12.543,31.077
1747666133.80,-0.021,0.020,-0.026,0.065,0.017,0.125,-35.292,12.598,31.323
1747666133.80,-0.009,0.018,-0.049,0.022,0.039,0.085,-35.252,12.652,31.388
1747666133.82,-0.012,0.000,-0.055,-0.036,0.041,0.063,-35.246,12.709,31.600
1747666133.82,-0.010,-0.019,-0.059,-0.080,0.048,0.066,-35.271,12.765,31.653
1747666133.84,0.006,-0.009,-0.074,-0.117,0.058,0.067,-35.319,12.833,31.851
1747666133.84,0.000,0.035,-0.068,-0.154,0.023,0.073,-35.386,12.895,31.918
1747666133.85,-0.003,0.086,-0.064,-0.191,-0.012,0.069,-35.472,12.939,32.136
1747666133.86,0.019,0.120,-0.059,-0.207,-0.030,0.029,-35.577,12.965,32.202
1747666133.87,0.014,0.124,-0.038,-0.231,-0.077,-0.012,-35.698,12.957,32.373
1747666133.88,-0.017,0.076,-0.043,-0.280,-0.098,-0.028,-35.841,12.920,32.398
1747666133.89,-0.036,-0.002,-0.061,-0.305,-0.057,-0.042,-36.009,12.885,32.539
1747666133.90,-0.035,-0.050,-0.064,-0.342,0.018,-0.055,-36.193,12.883,32.558
1747666133.91,-0.025,-0.041,-0.084,-0.405,0.094,-0.074,-36.407,12.926,32.706
1747666133.92,-0.015,-0.001,-0.064,-0.471,0.098,-0.063,-36.660,12.993,32.727
1747666133.93,0.012,0.045,-0.034,-0.523,0.090,-0.037,-36.943,13.076,32.897
1747666133.94,0.071,0.084,-0.025,-0.563,0.042,-0.027,-37.250,13.155,32.964
1747666133.95,0.112,0.104,-0.027,-0.603,-0.012,-0.020,-37.577,13.213,33.155
1747666133.96,0.126,0.097,-0.034,-0.644,-0.092,-0.018,-37.926,13.239,33.246
1747666133.97,0.092,0.074,-0.064,-0.658,-0.125,-0.034,-38.291,13.231,33.435
1747666133.98,0.063,0.043,-0.062,-0.675,-0.096,-0.056,-38.667,13.218,33.516
1747666133.99,0.039,0.003,-0.042,-0.689,-0.067,-0.076,-39.055,13.214,33.682
1747666134.00,-0.003,-0.039,-0.044,-0.692,-0.064,-0.091,-39.451,13.213,33.740
1747666134.01,-0.047,-0.074,-0.051,-0.691,-0.036,-0.107,-39.848,13.212,33.881
1747666134.02,-0.062,-0.093,-0.045,-0.690,0.054,-0.111,-40.246,13.243,33.919
1747666134.03,-0.036,-0.101,-0.013,-0.719,0.085,-0.107,-40.652,13.312,34.053
1747666134.04,-0.017,-0.100,-0.035,-0.760,0.098,-0.092,-41.075,13.399,34.108
1747666134.05,0.003,-0.091,-0.066,-0.809,0.097,-0.071,-41.521,13.508,34.276
1747666134.06,0.028,-0.072,-0.074,-0.839,0.076,-0.054,-41.986,13.626,34.378
1747666134.07,0.049,-0.044,-0.065,-0.851,0.062,-0.049,-42.463,13.743,34.579
1747666134.08,0.062,-0.018,-0.061,-0.835,0.048,-0.062,-42.937,13.854,34.693
1747666134.09,0.048,-0.003,-0.063,-0.824,0.028,-0.102,-43.407,13.942,34.845
1747666134.10,-0.001,-0.007,-0.072,-0.836,0.034,-0.158,-43.885,13.995,34.903
1747666134.11,-0.030,-0.035,-0.055,-0.836,0.119,-0.190,-44.374,14.057,34.973
1747666134.12,-0.025,-0.077,-0.022,-0.853,0.155,-0.189,-44.867,14.148,34.989
1747666134.13,-0.019,-0.102,-0.006,-0.910,0.195,-0.162,-45.379,14.275,35.061
1747666134.14,0.019,-0.099,0.020,-0.941,0.179,-0.131,-45.913,14.436,35.133
1747666134.15,0.062,-0.070,0.004,-0.949,0.098,-0.095,-46.452,14.591,35.240
1747666134.16,0.098,-0.037,-0.030,-0.957,0.052,-0.065,-46.992,14.733,35.377
1747666134.17,0.130,-0.006,-0.029,-0.938,-0.001,-0.068,-47.525,14.859,35.532
1747666134.18,0.111,0.016,-0.040,-0.911,-0.062,-0.091,-48.046,14.943,35.669
1747666134.19,0.045,0.021,-0.043,-0.906,-0.078,-0.130,-48.562,14.981,35.780
1747666134.20,-0.028,0.012,-0.036,-0.907,-0.061,-0.161,-49.085,15.002,35.860
1747666134.21,-0.095,-0.010,-0.043,-0.896,-0.005,-0.187,-49.608,15.024,35.910
1747666134.22,-0.131,-0.034,-0.043,-0.905,0.117,-0.198,-50.134,15.087,35.952
1747666134.23,-0.132,-0.049,-0.013,-0.910,0.252,-0.198,-50.664,15.225,35.980
1747666134.24,-0.107,-0.052,-0.011,-0.952,0.321,-0.187,-51.205,15.433,36.032
1747666134.25,-0.065,-0.050,-0.001,-0.994,0.332,-0.174,-51.769,15.682,36.082
1747666134.26,-0.003,-0.040,0.024,-0.995,0.334,-0.152,-52.343,15.957,36.188
1747666134.27,0.070,-0.022,0.025,-0.981,0.297,-0.147,-52.908,16.237,36.274
1747666134.28,0.116,0.005,0.010,-0.984,0.243,-0.156,-53.471,16.492,36.400
1747666134.29,0.133,0.032,0.001,-1.006,0.161,-0.188,-54.042,16.702,36.463
1747666134.30,0.122,0.049,-0.006,-1.016,0.078,-0.210,-54.629,16.848,36.561
1747666134.31,0.094,0.057,-0.010,-1.035,0.053,-0.218,-55.224,16.958,36.603
1747666134.32,0.070,0.057,-0.007,-1.061,0.064,-0.218,-55.833,17.075,36.703
1747666134.33,0.043,0.054,-0.010,-1.100,0.056,-0.221,-56.459,17.203,36.753
1747666134.34,0.007,0.047,-0.006,-1.111,0.036,-0.218,-57.101,17.333,36.876
1747666134.35,-0.015,0.034,0.005,-1.114,0.052,-0.214,-57.743,17.470,36.956
1747666134.36,-0.014,0.018,0.007,-1.116,0.080,-0.216,-58.387,17.627,37.097
1747666134.37,-0.016,0.009,-0.001,-1.115,0.119,-0.233,-59.034,17.803,37.175
1747666134.38,-0.019,0.002,0.005,-1.124,0.145,-0.250,-59.683,17.989,37.300
1747666134.39,-0.019,-0.005,0.008,-1.155,0.129,-0.274,-60.348,18.171,37.336
1747666134.40,-0.007,-0.011,0.008,-1.191,0.090,-0.309,-61.036,18.328,37.443
1747666134.41,0.015,-0.010,-0.010,-1.221,0.042,-0.348,-61.750,18.437,37.430
1747666134.42,0.034,-0.015,0.012,-1.231,0.022,-0.360,-62.478,18.510,37.494
1747666134.43,0.059,-0.027,0.033,-1.227,0.039,-0.342,-63.210,18.593,37.468
1747666134.44,0.074,-0.027,0.018,-1.178,0.014,-0.331,-63.921,18.686,37.552
1747666134.45,0.057,-0.012,-0.036,-1.157,-0.055,-0.331,-64.612,18.746,37.528
1747666134.46,0.031,0.004,-0.046,-1.186,-0.099,-0.327,-65.305,18.781,37.616
1747666134.47,0.014,0.015,-0.022,-1.205,-0.105,-0.341,-66.014,18.809,37.611
1747666134.48,-0.019,0.023,0.007,-1.175,-0.103,-0.374,-66.724,18.808,37.676
1747666134.49,-0.056,0.019,-0.002,-1.166,-0.056,-0.405,-67.426,18.770,37.577
1747666134.50,-0.059,-0.008,-0.000,-1.202,0.046,-0.435,-68.142,18.744,37.552
1747666134.51,-0.043,-0.053,0.030,-1.221,0.123,-0.443,-68.881,18.756,37.400
1747666134.52,-0.013,-0.100,0.017,-1.159,0.115,-0.412,-69.606,18.792,37.363
1747666134.53,0.017,-0.122,-0.049,-1.114,0.077,-0.341,-70.288,18.858,37.263
1747666134.54,0.053,-0.118,-0.060,-1.135,0.046,-0.266,-70.950,19.019,37.396
1747666134.55,0.083,-0.082,-0.043,-1.147,-0.005,-0.227,-71.612,19.278,37.540
1747666134.56,0.073,-0.030,-0.058,-1.120,-0.067,-0.243,-72.268,19.536,37.834
1747666134.57,0.039,0.013,-0.064,-1.040,-0.044,-0.283,-72.901,19.715,37.932
1747666134.58,0.021,0.031,-0.051,-0.966,0.025,-0.330,-73.497,19.800,37.871
1747666134.59,0.008,0.028,-0.062,-0.977,0.086,-0.359,-74.085,19.837,37.874
1747666134.60,-0.022,0.000,-0.046,-0.992,0.143,-0.379,-74.686,19.871,37.677
1747666134.61,-0.061,-0.046,-0.013,-0.984,0.170,-0.365,-75.290,19.932,37.645
1747666134.62,-0.104,-0.090,0.012,-0.961,0.223,-0.317,-75.879,20.067,37.502
1747666134.63,-0.124,-0.108,0.026,-0.931,0.371,-0.267,-76.442,20.356,37.626
1747666134.64,-0.111,-0.087,0.036,-0.944,0.427,-0.230,-76.992,20.827,37.691
1747666134.65,-0.096,-0.044,0.022,-0.962,0.417,-0.213,-77.545,21.420,38.051
1747666134.66,-0.067,0.002,0.009,-0.981,0.394,-0.218,-78.105,22.069,38.320
1747666134.67,-0.017,0.040,-0.012,-0.994,0.387,-0.244,-78.677,22.744,38.782
1747666134.68,0.026,0.055,-0.004,-0.954,0.345,-0.265,-79.248,23.389,39.050
1747666134.69,0.060,0.040,0.025,-0.854,0.298,-0.258,-79.780,23.942,39.428
1747666134.70,0.089,0.013,0.036,-0.843,0.341,-0.233,-80.278,24.519,39.647
1747666134.71,0.111,-0.008,0.068,-0.820,0.332,-0.213,-80.763,25.228,40.166
1747666134.72,0.105,-0.017,0.006,-0.795,0.240,-0.226,-81.231,25.941,40.538
1747666134.73,0.066,-0.022,-0.035,-0.826,0.179,-0.249,-81.706,26.611,41.095
1747666134.74,0.045,-0.023,0.015,-0.801,0.111,-0.257,-82.189,27.272,41.493
1747666134.75,0.037,-0.021,-0.008,-0.715,0.028,-0.271,-82.643,27.811,41.998
1747666134.76,0.022,-0.014,-0.041,-0.708,-0.004,-0.285,-83.073,28.201,42.212
1747666134.77,0.015,-0.016,0.006,-0.748,-0.039,-0.287,-83.517,28.648,42.672
1747666134.78,0.003,-0.017,0.026,-0.748,-0.082,-0.282,-83.970,29.199,43.066
1747666134.79,-0.020,-0.006,0.010,-0.750,-0.082,-0.282,-84.421,29.842,43.762
1747666134.80,-0.051,0.001,0.033,-0.734,-0.000,-0.285,-84.871,30.595,44.361
1747666134.81,-0.062,-0.002,0.049,-0.668,0.074,-0.264,-85.297,31.458,45.202
1747666134.82,-0.062,-0.014,0.007,-0.621,0.044,-0.237,-85.684,32.418,45.945
1747666134.83,-0.073,-0.019,-0.067,-0.609,0.067,-0.216,-86.049,33.608,47.112
1747666134.84,-0.069,-0.016,-0.062,-0.566,0.174,-0.196,-86.394,35.093,48.350
1747666134.85,-0.049,-0.001,-0.040,-0.481,0.290,-0.193,-86.701,36.649,49.775
1747666134.86,-0.046,0.023,-0.040,-0.399,0.352,-0.191,-86.968,38.023,50.773
1747666134.87,-0.051,0.046,-0.057,-0.356,0.334,-0.188,-87.201,39.174,51.725
1747666134.88,-0.058,0.050,-0.067,-0.346,0.293,-0.176,-87.423,40.388,52.663
1747666134.89,-0.059,0.032,-0.046,-0.320,0.233,-0.153,-87.627,41.810,53.934
1747666134.90,-0.048,0.014,-0.057,-0.330,0.194,-0.129,-87.817,43.613,55.620
1747666134.91,-0.031,0.001,-0.031,-0.324,0.291,-0.123,-88.000,46.010,57.887
1747666134.92,-0.007,-0.002,0.020,-0.287,0.448,-0.137,-88.173,48.542,60.206
1747666134.93,0.010,0.011,0.066,-0.267,0.455,-0.132,-88.333,51.083,62.484
1747666134.94,0.009,0.011,0.088,-0.310,0.367,-0.106,-88.485,54.524,65.692
1747666134.95,0.001,0.002,0.079,-0.344,0.343,-0.096,-88.635,59.821,70.790
1747666134.96,-0.004,-0.015,0.071,-0.349,0.335,-0.099,-88.775,66.748,77.526
1747666134.97,-0.005,-0.034,0.061,-0.322,0.323,-0.097,-88.892,75.016,85.607
1747666134.98,-0.004,-0.041,0.057,-0.277,0.276,-0.093,-88.977,83.661,94.081
1747666134.99,-0.007,-0.025,0.058,-0.287,0.224,-0.100,-89.037,92.830,103.110
1747666135.00,-0.009,0.009,0.074,-0.342,0.134,-0.111,-89.068,104.279,114.455
1747666135.01,-0.011,0.030,0.056,-0.357,0.050,-0.127,-89.060,117.404,127.530
1747666135.02,-0.011,0.020,0.015,-0.331,0.003,-0.139,-89.015,129.766,139.880
1747666135.03,0.012,-0.006,-0.021,-0.287,-0.050,-0.132,-88.945,139.875,150.004
1747666135.04,0.040,-0.018,-0.063,-0.251,-0.106,-0.126,-88.866,147.716,157.890
1747666135.05,0.062,-0.017,-0.067,-0.210,-0.157,-0.113,-88.784,153.667,163.919
1747666135.06,0.057,-0.016,-0.057,-0.180,-0.152,-0.113,-88.707,158.297,168.641
1747666135.07,0.029,-0.012,-0.043,-0.148,-0.111,-0.117,-88.641,162.267,172.688
1747666135.08,0.005,0.001,-0.029,-0.148,-0.114,-0.087,-88.579,165.512,175.996
1747666135.09,-0.016,0.009,-0.006,-0.159,-0.125,-0.033,-88.501,167.540,178.093
1747666135.10,-0.054,0.026,-0.024,-0.164,-0.111,-0.021,-88.415,168.645,179.268
1747666135.11,-0.096,0.042,-0.024,-0.171,-0.051,-0.042,-88.325,169.815,-179.511
1747666135.12,-0.099,0.032,-0.009,-0.180,0.106,-0.064,-88.231,171.395,-177.943
1747666135.13,-0.055,-0.002,0.036,-0.202,0.294,-0.054,-88.128,173.052,-176.401
1747666135.14,-0.001,-0.028,0.095,-0.211,0.400,-0.017,-88.011,174.268,-175.387
1747666135.15,0.017,-0.030,0.114,-0.199,0.346,0.003,-87.896,174.879,-174.994
1747666135.16,-0.024,-0.010,0.061,-0.222,0.229,-0.009,-87.776,175.339,-174.696
1747666135.17,-0.064,0.007,0.006,-0.214,0.205,-0.033,-87.652,176.002,-174.150
1747666135.18,-0.058,0.006,-0.009,-0.231,0.292,-0.047,-87.528,176.883,-173.408
1747666135.19,-0.017,-0.013,0.036,-0.234,0.432,-0.032,-87.394,177.769,-172.729
1747666135.20,0.035,-0.038,0.053,-0.183,0.470,-0.014,-87.275,178.392,-172.369
1747666135.21,0.049,-0.037,0.016,-0.160,0.375,0.007,-87.180,178.709,-172.297
1747666135.22,0.044,-0.010,0.006,-0.166,0.228,0.035,-87.085,178.698,-172.481
1747666135.23,0.043,0.011,0.003,-0.115,0.083,0.055,-87.003,178.312,-172.954
1747666135.24,0.034,0.022,-0.045,-0.067,0.002,0.043,-86.951,177.834,-173.455
1747666135.25,0.024,0.019,-0.053,-0.046,-0.037,0.029,-86.918,177.477,-173.801
1747666135.26,0.027,-0.005,-0.047,0.013,-0.059,0.027,-86.907,177.175,-174.194
1747666135.27,0.042,-0.037,-0.056,0.076,-0.097,0.029,-86.930,176.805,-174.521
1747666135.28,0.047,-0.034,-0.058,0.126,-0.132,0.025,-86.989,176.376,-175.137
1747666135.29,0.037,0.004,-0.033,0.145,-0.126,0.035,-87.065,175.865,-175.573
1747666135.30,0.016,0.040,0.012,0.190,-0.109,0.042,-87.158,175.212,-176.399
1747666135.31,-0.014,0.045,-0.001,0.220,-0.159,0.047,-87.274,174.387,-177.148
1747666135.32,-0.033,0.023,-0.012,0.209,-0.144,0.041,-87.396,173.424,-178.260
1747666135.33,-0.016,-0.007,0.019,0.202,-0.091,0.046,-87.512,172.418,-179.200
1747666135.34,0.018,-0.025,0.032,0.200,-0.043,0.062,-87.624,171.232,179.423
1747666135.35,0.045,-0.025,0.055,0.188,-0.021,0.091,-87.730,169.582,177.790
1747666135.36,0.049,-0.003,0.083,0.191,-0.015,0.104,-87.827,167.508,175.500
1747666135.37,0.009,0.018,0.095,0.212,-0.048,0.095,-87.925,165.198,173.206
1747666135.38,-0.043,0.016,0.086,0.238,-0.076,0.093,-88.032,162.696,170.527
1747666135.39,-0.066,-0.006,0.051,0.256,-0.081,0.104,-88.149,159.718,167.591
1747666135.40,-0.057,-0.022,0.031,0.270,-0.068,0.119,-88.264,156.097,163.798
1747666135.41,-0.042,-0.023,0.014,0.330,-0.041,0.124,-88.385,151.431,159.161
1747666135.42,-0.031,-0.014,-0.011,0.389,-0.016,0.121,-88.520,145.251,152.792
1747666135.43,-0.028,0.001,-0.009,0.423,-0.032,0.109,-88.657,137.292,144.842
1747666135.44,-0.034,0.015,-0.019,0.424,-0.028,0.115,-88.773,127.386,134.745
1747666135.45,-0.023,0.024,-0.007,0.430,-0.023,0.125,-88.843,115.722,123.092
1747666135.46,-0.018,0.036,0.009,0.486,-0.080,0.140,-88.856,102.198,109.385
1747666135.47,-0.018,0.032,0.005,0.547,-0.183,0.159,-88.795,87.398,94.659
1747666135.48,-0.010,0.003,0.004,0.624,-0.279,0.176,-88.644,73.256,80.438
1747666135.49,0.023,-0.033,0.001,0.684,-0.315,0.196,-88.400,61.230,68.581
1747666135.50,0.073,-0.049,0.006,0.686,-0.304,0.218,-88.086,52.487,59.803
1747666135.51,0.122,-0.042,0.022,0.710,-0.379,0.229,-87.729,46.290,53.793
1747666135.52,0.131,-0.005,0.010,0.674,-0.550,0.246,-87.349,41.869,49.439
1747666135.53,0.072,0.032,0.053,0.655,-0.698,0.239,-86.970,38.705,46.633
1747666135.54,-0.013,0.044,0.056,0.646,-0.651,0.201,-86.598,36.081,44.221
1747666135.55,-0.073,0.034,0.085,0.628,-0.532,0.153,-86.244,33.719,42.192
1747666135.56,-0.102,0.006,0.117,0.630,-0.497,0.147,-85.897,31.655,40.249
1747666135.57,-0.099,-0.028,0.086,0.653,-0.433,0.148,-85.538,29.840,38.699
1747666135.58,-0.057,-0.035,0.053,0.644,-0.363,0.171,-85.171,28.367,37.297
1747666135.59,-0.007,-0.024,0.056,0.685,-0.356,0.192,-84.790,27.219,36.209
1747666135.60,-0.007,0.004,0.020,0.747,-0.410,0.204,-84.371,26.128,35.332
1747666135.61,-0.045,0.040,-0.003,0.761,-0.450,0.195,-83.934,25.064,34.437
1747666135.62,-0.090,0.054,0.001,0.808,-0.381,0.185,-83.481,24.028,33.639
1747666135.63,-0.122,0.054,0.004,0.798,-0.175,0.192,-83.015,23.131,32.898
1747666135.64,-0.145,0.049,0.053,0.757,-0.008,0.204,-82.562,22.550,32.361
1747666135.65,-0.183,0.036,0.050,0.733,0.087,0.210,-82.123,22.183,31.866
1747666135.66,-0.201,0.014,0.007,0.670,0.174,0.225,-81.704,21.998,31.604
1747666135.67,-0.146,-0.019,0.043,0.618,0.249,0.252,-81.313,22.042,31.430
1747666135.68,-0.047,-0.048,0.060,0.598,0.305,0.282,-80.935,22.266,31.495
1747666135.69,0.051,-0.051,0.079,0.598,0.167,0.313,-80.556,22.582,31.575
1747666135.70,0.102,-0.032,0.082,0.674,-0.137,0.347,-80.149,22.794,31.783
1747666135.71,0.089,0.001,0.029,0.704,-0.249,0.347,-79.706,22.849,31.866
1747666135.72,0.060,0.014,0.048,0.691,-0.193,0.288,-79.268,22.797,31.945
1747666135.73,0.035,0.005,0.053,0.692,-0.126,0.225,-78.847,22.609,31.774
1747666135.74,0.034,-0.006,0.025,0.699,-0.146,0.189,-78.436,22.320,31.553
1747666135.75,0.026,-0.005,0.015,0.740,-0.237,0.193,-78.016,21.948,31.216
1747666135.76,0.002,0.007,0.014,0.794,-0.260,0.216,-77.566,21.553,30.960
1747666135.77,-0.005,0.010,0.034,0.862,-0.242,0.222,-77.080,21.166,30.646
1747666135.78,0.001,0.003,0.006,0.890,-0.219,0.216,-76.566,20.765,30.372
1747666135.79,0.013,-0.011,-0.032,0.876,-0.080,0.223,-76.048,20.425,30.068
1747666135.80,0.019,-0.022,-0.031,0.821,0.157,0.246,-75.547,20.277,29.893
1747666135.81,0.015,-0.015,0.037,0.748,0.274,0.272,-75.075,20.344,29.783
1747666135.82,-0.032,-0.001,0.070,0.676,0.287,0.313,-74.636,20.560,29.838
1747666135.83,-0.053,0.004,0.084,0.644,0.247,0.382,-74.217,20.902,29.992
1747666135.84,-0.025,0.001,0.060,0.665,0.169,0.444,-73.782,21.319,30.303
1747666135.85,0.019,-0.020,0.033,0.690,0.137,0.462,-73.328,21.746,30.623
1747666135.86,0.087,-0.050,0.028,0.769,0.149,0.451,-72.845,22.120,30.928
1747666135.87,0.160,-0.059,0.009,0.866,0.101,0.413,-72.319,22.365,31.069
1747666135.88,0.179,-0.030,-0.028,0.856,-0.021,0.356,-71.774,22.432,31.113
1747666135.89,0.139,0.023,-0.008,0.754,-0.106,0.278,-71.281,22.369,31.039
1747666135.90,0.058,0.064,0.036,0.726,-0.060,0.208,-70.839,22.221,30.938
1747666135.91,-0.019,0.068,0.048,0.685,0.027,0.181,-70.423,22.077,30.759
1747666135.92,-0.094,0.040,0.055,0.650,-0.037,0.169,-70.033,21.937,30.610
1747666135.93,-0.154,0.007,-0.023,0.607,-0.036,0.166,-69.663,21.786,30.465
1747666135.94,-0.130,-0.013,-0.034,0.599,0.040,0.177,-69.310,21.694,30.364
1747666135.95,-0.058,-0.024,-0.010,0.712,0.008,0.192,-68.928,21.607,30.243
1747666135.96,-0.016,-0.034,-0.091,0.853,-0.048,0.184,-68.469,21.426,30.064
1747666135.97,0.006,-0.036,-0.134,0.854,-0.025,0.163,-67.974,21.184,29.822
1747666135.98,-0.006,-0.034,-0.054,0.794,0.128,0.122,-67.506,20.984,29.578
1747666135.99,-0.011,-0.032,-0.009,0.723,0.357,0.073,-67.079,20.874,29.296
1747666136.00,-0.011,-0.008,-0.018,0.578,0.425,0.057,-66.719,20.872,29.041
1747666136.01,-0.049,0.020,0.036,0.520,0.332,0.132,-66.412,20.946,28.879
1747666136.02,-0.049,0.030,0.038,0.518,0.257,0.275,-66.093,21.117,28.884
1747666136.03,0.018,0.038,0.057,0.581,0.173,0.337,-65.738,21.363,29.018
1747666136.04,0.064,0.036,0.012,0.665,0.035,0.299,-65.339,21.515,29.118
1747666136.05,0.090,0.010,-0.041,0.773,-0.129,0.213,-64.904,21.460,29.077
1747666136.06,0.085,-0.009,-0.058,0.846,-0.212,0.116,-64.436,21.186,28.886
1747666136.07,0.033,-0.005,-0.044,0.866,-0.174,0.026,-63.967,20.790,28.561
1747666136.08,-0.030,0.012,-0.022,0.900,-0.170,-0.053,-63.498,20.321,28.145
1747666136.09,-0.113,0.028,-0.041,0.877,-0.143,-0.119,-63.035,19.784,27.666
1747666136.10,-0.176,0.021,0.003,0.780,0.033,-0.103,-62.610,19.315,27.181
1747666136.11,-0.153,-0.012,0.088,0.657,0.274,-0.001,-62.232,19.087,26.846
1747666136.12,-0.058,-0.037,0.106,0.496,0.359,0.118,-61.909,19.134,26.685
1747666136.13,0.025,-0.042,0.073,0.415,0.278,0.194,-61.638,19.320,26.715
1747666136.14,0.104,-0.023,0.034,0.397,0.134,0.253,-61.379,19.519,26.807
1747666136.15,0.196,0.000,0.047,0.496,-0.011,0.276,-61.091,19.664,26.967
1747666136.16,0.238,0.028,0.044,0.646,-0.147,0.259,-60.732,19.682,27.041
1747666136.17,0.197,0.057,0.002,0.771,-0.262,0.218,-60.303,19.552,27.049
1747666136.18,0.090,0.064,-0.059,0.804,-0.361,0.159,-59.838,19.287,26.950
1747666136.19,-0.036,0.051,-0.087,0.773,-0.341,0.091,-59.389,18.943,26.809
1747666136.20,-0.110,0.014,-0.042,0.710,-0.142,0.039,-58.975,18.627,26.609
1747666136.21,-0.117,-0.038,0.018,0.660,0.108,0.035,-58.600,18.447,26.445
1747666136.22,-0.073,-0.076,-0.015,0.623,0.224,0.065,-58.242,18.405,26.274
1747666136.23,-0.025,-0.096,-0.063,0.521,0.200,0.109,-57.916,18.438,26.213
1747666136.24,0.023,-0.111,-0.032,0.480,0.123,0.161,-57.623,18.507,26.183
1747666136.25,0.092,-0.114,-0.025,0.500,-0.007,0.210,-57.326,18.560,26.256
1747666136.26,0.149,-0.090,-0.034,0.554,-0.136,0.259,-56.998,18.567,26.315
1747666136.27,0.184,-0.036,-0.030,0.615,-0.186,0.286,-56.632,18.537,26.434
1747666136.28,0.179,0.017,-0.025,0.690,-0.205,0.269,-56.227,18.478,26.496
1747666136.29,0.111,0.043,-0.015,0.699,-0.233,0.221,-55.803,18.361,26.560
1747666136.30,0.008,0.035,0.033,0.629,-0.106,0.193,-55.404,18.245,26.544
1747666136.31,-0.049,-0.001,0.082,0.551,0.036,0.202,-55.050,18.230,26.601
1747666136.32,-0.059,-0.039,0.047,0.468,-0.001,0.241,-54.733,18.287,26.650
1747666136.33,-0.044,-0.050,-0.046,0.417,-0.094,0.290,-54.449,18.351,26.765
1747666136.34,0.021,-0.033,-0.064,0.458,-0.133,0.299,-54.160,18.403,26.909
1747666136.35,0.079,0.014,-0.005,0.533,-0.233,0.255,-53.842,18.389,27.017
1747666136.36,0.055,0.068,0.021,0.625,-0.323,0.190,-53.489,18.251,27.045
1747666136.37,-0.020,0.104,-0.015,0.692,-0.358,0.109,-53.103,18.006,26.985
1747666136.38,-0.092,0.117,-0.039,0.717,-0.344,0.024,-52.708,17.686,26.839
1747666136.39,-0.132,0.097,-0.002,0.716,-0.203,-0.038,-52.319,17.355,26.628
1747666136.40,-0.111,0.048,0.058,0.687,-0.005,-0.039,-51.940,17.113,26.394
1747666136.41,-0.071,-0.016,0.102,0.593,0.061,0.007,-51.592,16.987,26.206
1747666136.42,-0.071,-0.062,0.008,0.483,0.045,0.063,-51.293,16.929,26.092
1747666136.43,-0.040,-0.079,-0.094,0.401,0.008,0.123,-51.038,16.918,26.058
1747666136.44,-0.003,-0.059,-0.031,0.414,-0.014,0.130,-50.797,16.921,26.067
1747666136.45,0.008,0.021,0.060,0.502,-0.021,0.090,-50.529,16.895,26.101
1747666136.46,-0.005,0.119,0.075,0.590,-0.118,0.059,-50.219,16.796,26.021
1747666136.47,-0.040,0.169,-0.008,0.655,-0.195,0.045,-49.868,16.614,26.015
1747666136.48,-0.053,0.164,-0.058,0.703,-0.185,-0.001,-49.494,16.390,25.866
1747666136.49,-0.057,0.120,0.014,0.756,-0.147,-0.061,-49.099,16.137,25.758
1747666136.50,-0.042,0.064,0.052,0.746,-0.004,-0.109,-48.696,15.900,25.504
1747666136.51,-0.021,-0.004,0.024,0.592,0.130,-0.134,-48.342,15.742,25.354
1747666136.52,-0.033,-0.072,-0.056,0.395,0.154,-0.106,-48.093,15.668,25.139
1747666136.53,-0.030,-0.131,-0.097,0.299,0.155,0.003,-47.915,15.659,25.139
1747666136.54,-0.009,-0.159,0.019,0.334,0.227,0.149,-47.733,15.762,25.132
1747666136.55,0.040,-0.110,0.133,0.407,0.244,0.212,-47.499,15.949,25.327
1747666136.56,0.085,0.018,0.092,0.462,0.117,0.192,-47.229,16.104,25.393
1747666136.57,0.094,0.148,0.011,0.569,-0.040,0.140,-46.922,16.137,25.541
1747666136.58,0.107,0.217,-0.062,0.706,-0.185,0.055,-46.553,16.021,25.625
1747666136.59,0.096,0.214,-0.058,0.735,-0.233,-0.053,-46.154,15.781,25.460
1747666136.60,0.026,0.143,0.068,0.694,-0.210,-0.162,-45.776,15.476,25.369
1747666136.61,-0.049,0.027,0.018,0.580,-0.176,-0.238,-45.456,15.157,25.072
1747666136.62,-0.090,-0.112,-0.102,0.473,-0.243,-0.233,-45.201,14.821,24.924
1747666136.63,-0.066,-0.252,-0.217,0.377,-0.105,-0.131,-44.995,14.551,24.693
1747666136.64,0.022,-0.330,-0.087,0.354,0.058,-0.014,-44.806,14.452,24.710
1747666136.65,0.074,-0.305,0.056,0.390,0.107,0.103,-44.595,14.475,24.671
1747666136.66,0.108,-0.156,0.053,0.417,0.079,0.139,-44.353,14.544,24.833
1747666136.67,0.156,0.049,0.024,0.447,-0.046,0.137,-44.095,14.569,24.852
1747666136.68,0.208,0.195,0.009,0.495,-0.214,0.165,-43.813,14.508,25.023
1747666136.69,0.241,0.222,0.054,0.505,-0.323,0.166,-43.510,14.371,25.053
1747666136.70,0.207,0.162,0.038,0.453,-0.294,0.105,-43.223,14.200,25.231
1747666136.71,0.123,0.059,-0.021,0.332,-0.346,0.081,-42.993,14.015,25.222
1747666136.72,-0.016,-0.066,-0.059,0.250,-0.347,0.135,-42.820,13.828,25.412
1747666136.73,-0.104,-0.145,-0.061,0.228,-0.184,0.199,-42.666,13.731,25.495
1747666136.74,-0.125,-0.133,-0.023,0.220,-0.046,0.228,-42.513,13.748,25.784
1747666136.75,-0.154,-0.033,-0.003,0.253,0.034,0.235,-42.351,13.837,25.917
1747666136.76,-0.143,0.093,0.012,0.290,0.031,0.217,-42.169,13.939,26.213
1747666136.77,-0.090,0.172,0.003,0.340,-0.037,0.162,-41.969,13.997,26.299
1747666136.78,-0.018,0.174,0.010,0.397,-0.101,0.115,-41.745,13.979,26.494
1747666136.79,0.043,0.114,0.029,0.424,-0.102,0.073,-41.502,13.916,26.488
1747666136.80,0.055,0.040,0.009,0.347,-0.150,0.033,-41.279,13.827,26.609
1747666136.81,0.004,-0.026,-0.046,0.290,-0.202,0.035,-41.101,13.700,26.574
1747666136.82,-0.043,-0.084,-0.058,0.279,-0.152,0.070,-40.937,13.588,26.726
1747666136.82,-0.046,-0.098,-0.023,0.262,-0.059,0.082,-40.776,13.534,26.737
1747666136.84,-0.048,-0.050,-0.040,0.249,0.006,0.062,-40.625,13.527,26.901
1747666136.85,-0.083,0.019,-0.035,0.281,0.024,0.044,-40.472,13.532,26.893
1747666136.86,-0.112,0.062,-0.005,0.321,0.029,0.037,-40.299,13.533,27.031
1747666136.87,-0.066,0.067,0.022,0.340,-0.017,0.025,-40.110,13.514,26.994
1747666136.88,0.013,0.039,0.036,0.358,-0.067,0.004,-39.915,13.457,27.106
1747666136.88,0.076,-0.009,0.022,0.376,-0.117,-0.009,-39.711,13.364,27.041
1747666136.89,0.112,-0.057,-0.009,0.348,-0.134,-0.007,-39.510,13.246,27.125
1747666136.90,0.129,-0.093,-0.009,0.290,-0.101,0.028,-39.330,13.149,27.079
1747666136.91,0.127,-0.089,-0.018,0.199,-0.072,0.075,-39.188,13.095,27.239
1747666136.92,0.081,-0.047,-0.051,0.150,-0.026,0.120,-39.080,13.091,27.280
1747666136.93,0.014,-0.001,-0.019,0.160,0.008,0.183,-38.976,13.140,27.525
1747666136.94,-0.025,0.032,0.010,0.175,0.008,0.228,-38.854,13.220,27.646
1747666136.95,-0.000,0.059,-0.011,0.192,-0.002,0.215,-38.724,13.303,27.962
1747666136.97,0.035,0.068,0.014,0.244,-0.019,0.154,-38.579,13.357,28.057
1747666136.97,0.056,0.047,0.042,0.273,-0.073,0.101,-38.418,13.361,28.265
1747666136.99,0.064,0.005,0.002,0.277,-0.149,0.075,-38.254,13.306,28.280
1747666136.99,0.057,-0.034,-0.042,0.253,-0.201,0.079,-38.094,13.210,28.449
1747666137.00,0.040,-0.060,-0.053,0.206,-0.212,0.100,-37.955,13.105,28.474
1747666137.01,0.027,-0.067,-0.092,0.145,-0.170,0.111,-37.844,13.023,28.664
1747666137.02,-0.004,-0.042,-0.101,0.101,-0.121,0.126,-37.761,12.975,28.726
1747666137.03,-0.007,-0.002,-0.046,0.076,-0.048,0.151,-37.695,12.981,28.975
1747666137.04,0.030,0.029,0.004,0.089,-0.049,0.161,-37.630,13.014,29.073
1747666137.05,0.060,0.026,0.008,0.110,-0.080,0.168,-37.553,13.040,29.338
1747666137.06,0.074,0.005,0.008,0.136,-0.142,0.159,-37.464,13.039,29.436
1747666137.07,0.057,-0.006,0.009,0.165,-0.194,0.144,-37.358,12.996,29.699
1747666137.08,0.032,-0.004,0.010,0.171,-0.229,0.133,-37.240,12.917,29.771
1747666137.09,-0.000,0.017,-0.024,0.145,-0.209,0.095,-37.138,12.824,29.993
1747666137.10,-0.022,0.052,-0.051,0.088,-0.161,0.053,-37.062,12.738,30.025
1747666137.11,-0.058,0.080,-0.031,0.024,-0.137,0.036,-37.027,12.669,30.232
1747666137.12,-0.115,0.082,-0.003,0.029,-0.110,0.039,-37.010,12.611,30.254
1747666137.13,-0.153,0.063,0.018,0.054,-0.042,0.047,-36.982,12.584,30.467
1747666137.14,-0.128,0.050,0.024,0.062,-0.004,0.028,-36.945,12.587,30.486
1747666137.15,-0.061,0.062,0.005,0.088,-0.050,-0.019,-36.904,12.568,30.648
1747666137.16,-0.012,0.084,0.007,0.118,-0.053,-0.054,-36.851,12.513,30.606
1747666137.17,0.011,0.097,0.029,0.116,-0.056,-0.091,-36.793,12.441,30.720
1747666137.18,0.004,0.090,0.005,0.120,-0.041,-0.112,-36.741,12.356,30.629
1747666137.19,-0.017,0.063,-0.002,0.119,0.020,-0.122,-36.689,12.287,30.715
1747666137.20,-0.053,0.038,0.020,0.107,0.087,-0.127,-36.644,12.254,30.609
1747666137.21,-0.082,0.015,0.010,0.081,0.101,-0.114,-36.608,12.248,30.673
1747666137.22,-0.086,-0.009,-0.010,0.046,0.099,-0.076,-36.587,12.252,30.594
1747666137.23,-0.029,-0.020,-0.027,0.028,0.126,-0.044,-36.578,12.289,30.696
1747666137.24,0.068,-0.012,-0.019,0.044,0.102,-0.045,-36.566,12.334,30.660
1747666137.25,0.113,0.007,-0.012,0.050,0.057,-0.047,-36.547,12.357,30.754
