Time,AccX,AccY,AccZ,GyroX,GyroY,GyroZ,Pitch,Roll,Yaw
1747607349.54,0.044,-0.020,-0.010,0.001,-0.061,0.037,-84.106,26.530,-13.792
1747607349.55,0.048,-0.019,-0.014,-0.011,-0.064,0.033,-84.107,26.700,-13.586
1747607349.56,0.025,0.014,-0.023,0.002,-0.063,0.023,-84.117,26.867,-13.381
1747607349.57,0.006,0.024,-0.033,0.019,-0.067,0.014,-84.118,26.897,-13.314
1747607349.58,-0.011,0.019,-0.040,0.035,-0.052,-0.003,-84.108,26.793,-13.383
1747607349.59,-0.025,0.009,-0.036,0.052,-0.016,-0.025,-84.094,26.584,-13.574
1747607349.60,-0.035,0.001,-0.028,0.068,-0.004,-0.042,-84.076,26.302,-13.852
1747607349.61,-0.041,-0.004,-0.035,0.070,0.024,-0.045,-84.047,25.987,-14.175
1747607349.62,-0.039,-0.007,-0.029,0.039,0.072,-0.042,-84.023,25.750,-14.441
1747607349.63,-0.027,-0.007,-0.004,0.006,0.097,-0.035,-84.014,25.650,-14.593
1747607349.64,-0.011,-0.008,0.012,-0.013,0.090,-0.017,-84.016,25.623,-14.675
1747607349.65,0.003,-0.012,0.013,-0.013,0.078,-0.004,-84.020,25.644,-14.701
1747607349.66,0.027,-0.017,0.020,-0.000,0.063,0.008,-84.018,25.676,-14.708
1747607349.67,0.048,-0.016,0.015,0.019,0.031,0.032,-84.005,25.710,-14.703
1747607349.68,0.051,-0.030,0.001,0.027,-0.010,0.035,-83.981,25.777,-14.641
1747607349.69,0.021,-0.010,-0.002,0.033,-0.025,0.017,-83.957,25.755,-14.651
1747607349.70,-0.007,0.014,0.002,0.034,-0.015,0.002,-83.936,25.635,-14.759
1747607349.71,-0.032,0.019,0.003,0.038,-0.021,-0.022,-83.922,25.446,-14.940
1747607349.72,-0.054,0.027,-0.008,0.032,-0.021,-0.040,-83.914,25.189,-15.185
1747607349.73,-0.057,0.023,-0.013,0.029,-0.001,-0.057,-83.910,24.889,-15.481
1747607349.74,-0.036,0.015,-0.001,0.030,0.022,-0.054,-83.910,24.601,-15.777
1747607349.75,-0.009,0.005,0.005,0.029,0.025,-0.026,-83.902,24.423,-15.972
1747607349.76,0.011,-0.009,0.013,-0.001,0.022,0.002,-83.893,24.418,-15.990
1747607349.77,0.036,-0.020,0.024,-0.034,0.036,0.013,-83.899,24.545,-15.879
1747607349.78,0.061,-0.021,0.030,-0.032,0.043,0.033,-83.913,24.761,-15.687
1747607349.79,0.067,-0.021,0.023,-0.018,0.008,0.050,-83.918,25.011,-15.452
1747607349.80,0.048,-0.010,0.007,-0.012,-0.035,0.049,-83.915,25.235,-15.217
1747607349.81,0.021,0.017,-0.002,0.012,-0.036,0.039,-83.906,25.367,-15.063
1747607349.82,-0.012,0.028,0.000,0.014,-0.043,0.012,-83.893,25.427,-14.981
1747607349.83,-0.042,0.030,0.004,0.003,-0.045,-0.041,-83.894,25.310,-15.072
1747607349.84,-0.040,0.020,-0.002,0.002,-0.041,-0.054,-83.905,25.047,-15.312
1747607349.85,-0.029,0.005,-0.000,-0.003,-0.033,-0.038,-83.917,24.834,-15.505
1747607349.86,-0.016,-0.002,0.004,-0.016,-0.011,-0.021,-83.929,24.768,-15.559
1747607349.87,-0.006,-0.000,0.012,-0.018,0.011,-0.009,-83.942,24.812,-15.516
1747607349.88,-0.000,-0.007,0.017,-0.005,0.040,0.009,-83.947,24.903,-15.438
1747607349.89,0.003,-0.021,0.028,-0.002,0.070,0.025,-83.943,25.061,-15.311
1747607349.90,-0.000,-0.020,0.032,-0.003,0.087,0.028,-83.938,25.229,-15.188
1747607349.91,-0.011,-0.006,0.027,-0.010,0.090,0.026,-83.939,25.376,-15.090
1747607349.92,-0.021,0.009,0.033,-0.010,0.077,0.024,-83.940,25.518,-14.995
1747607349.93,-0.023,0.020,0.031,-0.006,0.072,0.020,-83.941,25.649,-14.905
1747607349.94,-0.008,0.020,0.021,-0.007,0.069,0.009,-83.941,25.738,-14.854
1747607349.95,0.020,0.004,0.027,-0.015,0.073,0.005,-83.950,25.833,-14.801
1747607349.96,0.045,-0.012,0.037,-0.002,0.051,0.005,-83.958,25.929,-14.741
1747607349.97,0.051,-0.011,0.024,0.012,-0.004,0.008,-83.959,25.991,-14.694
1747607349.98,0.035,0.006,0.007,0.002,-0.041,-0.005,-83.960,25.992,-14.679
1747607349.99,0.015,0.018,0.009,0.006,-0.056,-0.013,-83.968,25.907,-14.736
1747607350.00,0.012,0.016,0.007,0.023,-0.045,-0.011,-83.974,25.761,-14.853
1747607350.01,0.010,0.006,0.006,0.019,-0.017,-0.008,-83.978,25.620,-14.974
1747607350.02,-0.001,-0.005,0.014,0.011,0.014,-0.005,-83.981,25.566,-15.028
1747607350.03,-0.011,-0.011,0.007,0.010,0.029,0.004,-83.981,25.649,-14.957
1747607350.04,-0.014,-0.008,-0.002,0.023,0.029,0.006,-83.975,25.833,-14.792
1747607350.05,-0.017,0.005,-0.014,0.017,0.005,0.001,-83.963,25.976,-14.658
1747607350.06,-0.018,0.013,-0.023,0.011,0.004,-0.002,-83.953,26.040,-14.597
1747607350.07,-0.012,0.005,-0.014,0.010,0.010,-0.010,-83.950,26.038,-14.604
1747607350.08,-0.002,-0.010,-0.009,0.006,0.020,-0.011,-83.949,26.013,-14.638
1747607350.09,0.009,-0.024,-0.005,-0.001,0.028,-0.004,-83.952,26.018,-14.648
1747607350.10,0.016,-0.023,-0.009,0.014,0.006,0.006,-83.954,26.030,-14.646
1747607350.11,0.020,-0.006,-0.025,0.021,-0.014,0.011,-83.945,25.993,-14.680
1747607350.12,0.019,0.012,-0.025,0.025,-0.004,0.013,-83.932,25.947,-14.720
1747607350.13,0.014,0.017,-0.020,0.023,0.005,0.007,-83.916,25.869,-14.798
1747607350.14,0.007,0.011,-0.015,0.018,0.012,-0.007,-83.902,25.736,-14.934
1747607350.15,0.005,-0.004,-0.008,0.017,0.020,-0.013,-83.893,25.597,-15.083
1747607350.16,0.007,-0.015,-0.006,0.012,0.006,-0.003,-83.884,25.514,-15.175
1747607350.17,0.011,-0.015,-0.012,0.007,-0.022,-0.002,-83.877,25.498,-15.186
1747607350.18,0.019,-0.009,-0.009,0.007,-0.032,-0.002,-83.869,25.500,-15.170
1747607350.19,0.028,-0.004,-0.006,0.018,-0.038,-0.002,-83.852,25.476,-15.175
1747607350.20,0.023,0.003,-0.011,0.025,-0.047,-0.006,-83.831,25.416,-15.210
1747607350.21,0.003,0.011,-0.017,0.023,-0.039,-0.010,-83.812,25.316,-15.286
1747607350.22,-0.022,0.013,-0.015,0.016,-0.026,-0.016,-83.800,25.198,-15.386
1747607350.23,-0.044,0.010,-0.012,0.011,-0.003,-0.020,-83.794,25.075,-15.502
1747607350.24,-0.053,0.001,-0.003,-0.004,0.041,-0.016,-83.794,24.995,-15.592
1747607350.25,-0.046,-0.004,0.013,-0.010,0.065,-0.013,-83.798,24.985,-15.634
1747607350.26,-0.031,-0.003,0.012,-0.014,0.063,-0.007,-83.804,25.030,-15.627
1747607350.27,-0.013,0.007,0.009,-0.014,0.069,-0.006,-83.810,25.103,-15.591
1747607350.28,0.006,0.021,0.019,-0.011,0.072,-0.006,-83.814,25.172,-15.564
1747607350.29,0.014,0.026,0.026,-0.004,0.065,-0.007,-83.816,25.191,-15.584
1747607350.30,0.014,0.020,0.029,-0.010,0.065,-0.016,-83.821,25.132,-15.680
1747607350.31,0.008,0.005,0.042,-0.020,0.065,-0.023,-83.835,25.017,-15.832
1747607350.32,-0.002,-0.009,0.048,-0.023,0.055,-0.023,-83.857,24.890,-15.995
1747607350.33,-0.008,-0.022,0.037,-0.019,0.044,-0.018,-83.879,24.784,-16.127
1747607350.34,-0.005,-0.030,0.021,-0.021,0.045,-0.003,-83.897,24.746,-16.190
1747607350.35,0.008,-0.029,0.009,-0.023,0.045,0.006,-83.911,24.814,-16.148
1747607350.36,0.018,-0.018,-0.006,-0.026,0.036,0.004,-83.927,24.966,-16.019
1747607350.37,0.023,0.000,-0.016,-0.001,0.018,-0.005,-83.939,25.079,-15.921
1747607350.38,0.026,0.019,-0.030,0.025,0.010,-0.006,-83.939,25.088,-15.922
1747607350.39,0.024,0.031,-0.031,0.029,0.011,-0.006,-83.934,25.063,-15.954
1747607350.40,0.014,0.027,-0.018,0.021,0.001,-0.008,-83.934,25.023,-15.999
1747607350.41,-0.002,0.008,-0.008,0.016,-0.016,-0.015,-83.936,24.940,-16.079
1747607350.42,-0.014,-0.012,-0.002,0.020,-0.023,-0.012,-83.935,24.824,-16.184
1747607350.43,-0.009,-0.024,0.002,0.027,-0.001,-0.002,-83.924,24.751,-16.250
1747607350.44,0.006,-0.025,0.008,0.036,0.024,0.009,-83.903,24.732,-16.277
1747607350.45,0.016,-0.015,0.014,0.045,0.038,0.013,-83.873,24.743,-16.285
1747607350.46,0.011,-0.001,0.017,0.052,0.035,0.013,-83.836,24.748,-16.302
1747607350.47,-0.003,0.012,0.006,0.054,0.028,0.014,-83.795,24.743,-16.326
1747607350.48,-0.011,0.017,-0.001,0.054,0.049,0.017,-83.758,24.726,-16.364
1747607350.49,-0.005,0.014,0.012,0.039,0.081,0.022,-83.728,24.740,-16.389
1747607350.50,-0.002,0.002,0.026,0.041,0.079,0.023,-83.705,24.773,-16.401
1747607350.51,-0.006,-0.009,0.020,0.048,0.053,0.013,-83.680,24.777,-16.434
1747607350.52,-0.005,-0.010,0.014,0.052,0.039,0.002,-83.654,24.754,-16.484
1747607350.53,0.000,-0.003,0.014,0.064,0.032,0.005,-83.626,24.725,-16.536
1747607350.54,0.005,0.002,0.012,0.080,0.020,0.006,-83.592,24.664,-16.613
1747607350.55,0.007,0.006,0.002,0.088,0.014,0.007,-83.550,24.521,-16.765
1747607350.56,0.005,0.007,-0.002,0.092,0.011,0.003,-83.506,24.329,-16.965
1747607350.57,0.004,0.004,-0.006,0.114,0.011,0.004,-83.459,24.135,-17.167
1747607350.58,0.005,0.001,-0.014,0.137,-0.001,0.013,-83.401,23.949,-17.358
1747607350.59,0.006,-0.007,-0.019,0.146,-0.002,0.023,-83.330,23.754,-17.553
1747607350.60,0.010,-0.008,-0.013,0.129,0.013,0.030,-83.258,23.614,-17.697
1747607350.61,0.016,-0.003,-0.002,0.137,0.032,0.036,-83.188,23.535,-17.791
1747607350.62,0.011,0.001,0.005,0.175,0.034,0.041,-83.103,23.468,-17.879
1747607350.63,-0.004,0.003,0.001,0.209,0.023,0.047,-82.995,23.333,-18.031
1747607350.64,-0.012,-0.004,0.005,0.243,0.017,0.053,-82.868,23.166,-18.211
1747607350.65,-0.016,-0.020,0.000,0.290,0.018,0.065,-82.717,22.957,-18.432
1747607350.66,-0.013,-0.031,-0.008,0.330,0.028,0.077,-82.537,22.724,-18.679
1747607350.67,-0.007,-0.029,-0.013,0.343,0.039,0.082,-82.340,22.499,-18.927
1747607350.68,-0.005,-0.014,-0.020,0.360,0.008,0.086,-82.138,22.297,-19.146
1747607350.69,-0.006,0.007,-0.039,0.410,-0.038,0.095,-81.919,22.078,-19.358
1747607350.70,-0.009,0.025,-0.042,0.459,-0.054,0.102,-81.675,21.803,-19.610
1747607350.71,-0.015,0.030,-0.006,0.501,-0.022,0.107,-81.406,21.470,-19.923
1747607350.72,-0.027,0.015,0.031,0.564,-0.012,0.114,-81.100,21.131,-20.256
1747607350.73,-0.050,-0.002,0.010,0.620,-0.007,0.112,-80.760,20.746,-20.640
1747607350.74,-0.075,-0.009,-0.013,0.636,0.040,0.108,-80.400,20.343,-21.056
1747607350.75,-0.086,-0.012,-0.007,0.594,0.132,0.105,-80.048,20.017,-21.435
1747607350.76,-0.093,-0.016,0.023,0.552,0.217,0.105,-79.721,19.814,-21.744
1747607350.77,-0.097,-0.023,0.038,0.563,0.243,0.116,-79.402,19.682,-22.014
1747607350.78,-0.082,-0.028,0.024,0.606,0.220,0.165,-79.062,19.617,-22.216
1747607350.79,-0.047,-0.029,0.018,0.637,0.182,0.228,-78.689,19.662,-22.287
1747607350.80,-0.005,-0.020,0.044,0.649,0.169,0.289,-78.293,19.833,-22.214
1747607350.81,0.028,-0.004,0.066,0.672,0.179,0.338,-77.879,20.122,-22.020
1747607350.82,0.038,0.012,0.031,0.721,0.161,0.336,-77.438,20.417,-21.818
1747607350.83,0.017,0.030,-0.006,0.731,0.123,0.302,-76.985,20.605,-21.709
1747607350.84,-0.005,0.039,0.009,0.719,0.092,0.262,-76.541,20.686,-21.686
1747607350.85,-0.015,0.033,0.035,0.714,0.081,0.227,-76.108,20.680,-21.743
1747607350.86,-0.014,0.015,0.062,0.716,0.041,0.190,-75.685,20.586,-21.878
1747607350.87,-0.012,-0.006,0.068,0.714,-0.021,0.172,-75.266,20.408,-22.067
1747607350.88,-0.005,-0.021,0.062,0.722,-0.026,0.179,-74.847,20.207,-22.257
1747607350.89,0.010,-0.022,0.050,0.730,0.033,0.201,-74.419,20.055,-22.416
1747607350.90,0.013,-0.014,0.037,0.707,0.056,0.225,-73.991,19.991,-22.510
1747607350.91,-0.003,-0.010,0.027,0.715,0.039,0.246,-73.566,19.978,-22.551
1747607350.91,-0.023,-0.006,0.003,0.758,0.059,0.252,-73.122,19.975,-22.583
1747607350.92,-0.025,0.009,-0.007,0.776,0.048,0.259,-72.657,19.966,-22.627
1747607350.93,-0.020,0.023,-0.020,0.759,0.050,0.257,-72.194,19.955,-22.663
1747607350.94,-0.016,0.025,-0.008,0.780,0.100,0.225,-71.735,19.939,-22.714
1747607350.95,-0.007,0.019,0.004,0.789,0.100,0.176,-71.273,19.862,-22.860
1747607350.96,-0.003,0.006,0.031,0.774,0.073,0.168,-70.821,19.735,-23.040
1747607350.97,0.007,-0.016,0.031,0.771,0.096,0.207,-70.369,19.643,-23.167
1747607350.98,0.028,-0.035,0.000,0.739,0.126,0.261,-69.918,19.653,-23.225
1747607350.99,0.036,-0.046,-0.029,0.699,0.161,0.291,-69.477,19.764,-23.178
1747607351.00,0.023,-0.042,-0.016,0.648,0.187,0.291,-69.060,19.934,-23.101
1747607351.01,-0.001,-0.031,0.006,0.648,0.207,0.270,-68.659,20.115,-23.015
1747607351.02,-0.017,-0.022,-0.016,0.695,0.136,0.248,-68.249,20.233,-22.995
1747607351.03,-0.014,-0.013,-0.066,0.756,0.100,0.224,-67.814,20.257,-23.020
1747607351.04,0.019,-0.012,-0.061,0.795,0.157,0.198,-67.354,20.228,-23.128
1747607351.05,0.044,-0.009,-0.001,0.789,0.222,0.185,-66.892,20.209,-23.250
1747607351.06,0.027,0.008,0.057,0.801,0.206,0.177,-66.429,20.197,-23.402
1747607351.07,-0.024,0.027,0.051,0.769,0.096,0.176,-65.973,20.147,-23.544
1747607351.08,-0.058,0.044,-0.013,0.716,0.041,0.177,-65.541,20.068,-23.669
1747607351.09,-0.030,0.040,0.004,0.719,0.047,0.179,-65.123,20.001,-23.756
1747607351.10,0.034,0.021,0.060,0.753,0.041,0.177,-64.694,19.924,-23.870
1747607351.11,0.095,0.005,0.059,0.787,0.017,0.173,-64.247,19.824,-23.983
1747607351.12,0.126,-0.005,0.022,0.815,-0.074,0.162,-63.783,19.673,-24.134
1747607351.13,0.129,-0.006,-0.011,0.838,-0.112,0.157,-63.308,19.469,-24.293
1747607351.14,0.116,-0.008,0.005,0.821,-0.055,0.160,-62.830,19.275,-24.452
1747607351.15,0.087,-0.014,0.033,0.779,0.039,0.159,-62.368,19.149,-24.583
1747607351.16,0.010,-0.015,0.040,0.723,0.073,0.161,-61.932,19.079,-24.702
1747607351.17,-0.063,-0.012,0.033,0.658,0.041,0.207,-61.527,19.054,-24.766
1747607351.18,-0.074,-0.009,0.027,0.634,-0.005,0.271,-61.135,19.085,-24.744
1747607351.19,-0.017,0.001,0.022,0.692,-0.062,0.292,-60.726,19.125,-24.670
1747607351.20,0.052,0.020,0.010,0.776,-0.135,0.276,-60.278,19.102,-24.633
1747607351.21,0.089,0.039,-0.017,0.931,-0.221,0.223,-59.771,18.961,-24.678
1747607351.22,0.072,0.048,-0.063,1.023,-0.236,0.158,-59.203,18.694,-24.832
1747607351.23,0.013,0.038,-0.045,0.969,-0.162,0.095,-58.636,18.388,-25.051
1747607351.24,-0.063,0.007,0.005,0.867,-0.099,0.054,-58.128,18.111,-25.291
1747607351.25,-0.126,-0.044,-0.018,0.753,-0.019,0.076,-57.674,17.895,-25.493
1747607351.26,-0.135,-0.085,0.017,0.599,0.139,0.168,-57.287,17.845,-25.592
1747607351.27,-0.097,-0.109,0.108,0.529,0.182,0.289,-56.941,17.987,-25.549
1747607351.28,-0.036,-0.097,0.095,0.507,0.175,0.402,-56.596,18.245,-25.372
1747607351.29,0.088,-0.042,0.072,0.545,0.115,0.448,-56.237,18.537,-25.129
1747607351.30,0.182,0.023,0.054,0.633,-0.033,0.492,-55.834,18.777,-24.868
1747607351.31,0.229,0.084,0.012,0.770,-0.174,0.493,-55.364,18.924,-24.623
1747607351.32,0.190,0.142,-0.034,0.862,-0.312,0.404,-54.836,18.918,-24.460
1747607351.33,0.083,0.161,-0.055,0.877,-0.344,0.259,-54.303,18.753,-24.435
1747607351.34,-0.016,0.145,-0.032,0.852,-0.312,0.139,-53.799,18.490,-24.525
1747607351.35,-0.070,0.089,0.012,0.821,-0.237,0.110,-53.324,18.218,-24.679
1747607351.36,-0.085,0.017,0.036,0.792,-0.208,0.137,-52.864,17.987,-24.807
1747607351.37,-0.074,-0.066,0.017,0.735,-0.165,0.196,-52.420,17.819,-24.891
1747607351.38,-0.034,-0.122,-0.008,0.699,-0.127,0.242,-51.994,17.733,-24.897
1747607351.39,0.007,-0.139,-0.025,0.720,-0.144,0.251,-51.566,17.675,-24.889
1747607351.40,-0.001,-0.119,-0.033,0.760,-0.191,0.232,-51.122,17.585,-24.881
1747607351.41,-0.036,-0.063,-0.027,0.840,-0.211,0.195,-50.651,17.443,-24.925
1747607351.42,-0.067,-0.003,-0.029,0.915,-0.191,0.161,-50.140,17.264,-25.008
1747607351.43,-0.096,0.047,-0.013,0.931,-0.130,0.114,-49.612,17.075,-25.141
1747607351.44,-0.105,0.066,0.008,0.843,-0.010,0.100,-49.108,16.925,-25.282
1747607351.45,-0.083,0.059,0.030,0.732,0.060,0.099,-48.661,16.855,-25.400
1747607351.46,-0.070,0.020,-0.007,0.652,0.032,0.133,-48.267,16.825,-25.477
1747607351.47,-0.048,-0.031,-0.001,0.623,0.001,0.200,-47.893,16.817,-25.500
1747607351.48,0.005,-0.044,0.060,0.644,-0.002,0.251,-47.510,16.839,-25.469
1747607351.49,0.061,-0.013,0.078,0.696,-0.034,0.247,-47.103,16.860,-25.428
1747607351.50,0.069,0.041,0.052,0.773,-0.076,0.201,-46.665,16.829,-25.425
1747607351.51,0.047,0.096,0.015,0.829,-0.132,0.140,-46.198,16.731,-25.479
1747607351.52,0.002,0.127,-0.005,0.888,-0.170,0.075,-45.712,16.559,-25.595
1747607351.53,-0.046,0.129,0.007,0.924,-0.194,0.035,-45.205,16.328,-25.767
1747607351.54,-0.058,0.114,0.070,0.909,-0.109,0.023,-44.695,16.108,-25.952
1747607351.55,-0.058,0.083,0.059,0.841,-0.021,0.013,-44.211,15.946,-26.134
1747607351.56,-0.048,0.018,-0.030,0.724,-0.014,0.045,-43.776,15.834,-26.286
1747607351.57,-0.035,-0.042,-0.041,0.637,-0.037,0.147,-43.391,15.763,-26.361
1747607351.58,0.022,-0.089,0.012,0.646,0.078,0.223,-43.010,15.779,-26.351
1747607351.59,0.093,-0.093,0.058,0.687,0.101,0.204,-42.611,15.852,-26.329
1747607351.60,0.076,-0.035,0.035,0.743,0.035,0.186,-42.188,15.886,-26.335
1747607351.61,0.026,0.026,0.006,0.794,-0.023,0.165,-41.738,15.869,-26.367
1747607351.62,-0.018,0.051,-0.002,0.811,-0.091,0.150,-41.272,15.801,-26.418
1747607351.63,-0.046,0.045,0.002,0.813,-0.129,0.118,-40.804,15.694,-26.485
1747607351.64,-0.045,0.032,0.017,0.803,-0.111,0.067,-40.344,15.560,-26.581
1747607351.65,-0.025,0.021,0.014,0.773,-0.059,0.000,-39.903,15.430,-26.721
1747607351.66,0.000,-0.001,-0.003,0.728,-0.016,0.007,-39.490,15.317,-26.867
1747607351.67,0.012,-0.016,-0.018,0.672,-0.026,0.045,-39.101,15.231,-26.985
1747607351.68,-0.010,-0.030,-0.011,0.645,-0.045,0.109,-38.727,15.165,-27.059
1747607351.69,0.002,-0.046,-0.009,0.619,-0.075,0.163,-38.359,15.118,-27.081
1747607351.70,0.031,-0.042,-0.007,0.648,-0.098,0.180,-37.985,15.070,-27.077
1747607351.71,0.072,-0.034,-0.013,0.690,-0.131,0.167,-37.589,15.002,-27.082
1747607351.72,0.105,-0.013,-0.020,0.718,-0.170,0.131,-37.178,14.900,-27.109
1747607351.73,0.124,-0.003,-0.007,0.768,-0.224,0.090,-36.753,14.754,-27.168
1747607351.74,0.115,0.004,0.013,0.821,-0.255,0.075,-36.303,14.561,-27.256
1747607351.75,0.097,0.001,0.006,0.805,-0.239,0.072,-35.838,14.363,-27.350
1747607351.76,0.077,-0.010,-0.003,0.752,-0.213,0.068,-35.396,14.183,-27.436
1747607351.77,0.046,-0.038,-0.033,0.643,-0.231,0.145,-34.999,14.023,-27.484
1747607351.78,0.035,-0.047,-0.012,0.615,-0.222,0.226,-34.626,13.906,-27.462
1747607351.79,0.022,-0.047,0.011,0.629,-0.205,0.287,-34.245,13.824,-27.391
1747607351.80,0.027,-0.007,0.006,0.643,-0.241,0.280,-33.852,13.747,-27.304
1747607351.81,0.023,0.047,-0.015,0.669,-0.284,0.232,-33.453,13.632,-27.238
1747607351.82,0.021,0.087,-0.035,0.709,-0.312,0.173,-33.043,13.476,-27.215
1747607351.83,-0.004,0.119,-0.022,0.749,-0.350,0.114,-32.618,13.276,-27.236
1747607351.84,-0.051,0.127,0.034,0.759,-0.354,0.065,-32.187,13.043,-27.293
1747607351.85,-0.081,0.102,0.025,0.739,-0.354,0.011,-31.765,12.795,-27.380
1747607351.86,-0.101,0.043,-0.015,0.745,-0.336,-0.027,-31.355,12.537,-27.495
1747607351.87,-0.122,-0.020,-0.026,0.728,-0.235,0.002,-30.944,12.311,-27.612
1747607351.88,-0.100,-0.068,-0.012,0.682,-0.129,0.022,-30.549,12.163,-27.702
1747607351.89,-0.081,-0.081,-0.010,0.681,-0.071,0.056,-30.165,12.072,-27.772
1747607351.90,-0.060,-0.078,-0.002,0.682,-0.030,0.088,-29.776,12.018,-27.819
1747607351.91,-0.002,-0.052,0.011,0.695,0.014,0.109,-29.378,12.002,-27.846
1747607351.92,0.044,-0.014,0.003,0.714,-0.019,0.040,-28.976,11.979,-27.895
1747607351.93,0.056,0.021,0.010,0.737,-0.078,-0.002,-28.564,11.917,-27.989
1747607351.94,0.050,0.036,0.049,0.755,-0.124,0.022,-28.146,11.816,-28.081
1747607351.95,0.034,0.052,0.058,0.754,-0.176,0.033,-27.719,11.688,-28.165
1747607351.96,0.033,0.037,0.009,0.741,-0.191,0.055,-27.295,11.552,-28.234
1747607351.97,0.042,0.019,-0.030,0.728,-0.218,0.075,-26.877,11.409,-28.288
1747607351.98,0.031,0.005,-0.019,0.722,-0.221,0.140,-26.459,11.272,-28.311
1747607351.99,0.029,0.007,0.014,0.740,-0.222,0.089,-26.038,11.140,-28.330
1747607352.00,0.022,-0.009,0.032,0.747,-0.208,0.079,-25.612,10.999,-28.370
1747607352.01,0.031,-0.026,0.045,0.758,-0.187,0.112,-25.180,10.873,-28.402
1747607352.02,0.054,-0.035,0.020,0.747,-0.166,0.150,-24.742,10.769,-28.410
1747607352.03,0.078,-0.033,0.001,0.719,-0.117,0.171,-24.314,10.694,-28.394
1747607352.04,0.088,0.004,0.004,0.733,-0.128,0.152,-23.890,10.632,-28.377
1747607352.05,0.041,0.050,-0.002,0.751,-0.182,0.125,-23.457,10.544,-28.379
1747607352.06,-0.027,0.072,-0.030,0.715,-0.186,0.104,-23.032,10.428,-28.391
1747607352.07,-0.072,0.064,-0.073,0.676,-0.294,0.081,-22.626,10.284,-28.425
1747607352.08,-0.044,0.044,-0.047,0.680,-0.307,0.143,-22.234,10.109,-28.428
1747607352.09,0.003,0.033,-0.015,0.680,-0.320,0.124,-21.839,9.935,-28.418
1747607352.10,0.035,0.006,-0.001,0.722,-0.343,0.101,-21.434,9.745,-28.425
1747607352.11,0.061,-0.029,0.025,0.769,-0.341,0.102,-21.005,9.542,-28.440
1747607352.12,0.034,-0.019,0.055,0.773,-0.297,0.110,-20.559,9.354,-28.454
1747607352.13,-0.015,0.014,0.019,0.747,-0.225,0.117,-20.121,9.202,-28.461
1747607352.14,-0.067,0.030,-0.024,0.725,-0.141,0.173,-19.693,9.103,-28.447
1747607352.15,-0.089,0.031,-0.032,0.686,-0.026,0.239,-19.276,9.073,-28.391
1747607352.16,-0.063,0.039,-0.047,0.638,0.036,0.248,-18.880,9.106,-28.307
1747607352.17,-0.036,0.065,-0.057,0.605,0.049,0.212,-18.510,9.157,-28.228
1747607352.18,0.004,0.085,-0.026,0.613,0.012,0.168,-18.150,9.196,-28.172
1747607352.19,0.030,0.085,-0.018,0.626,-0.063,0.107,-17.788,9.188,-28.150
1747607352.20,0.027,0.052,-0.021,0.655,-0.124,0.052,-17.419,9.129,-28.164
1747607352.21,0.015,0.025,0.010,0.680,-0.141,0.029,-17.044,9.040,-28.201
1747607352.22,-0.010,-0.003,0.047,0.709,-0.112,0.014,-16.651,8.949,-28.256
1747607352.23,-0.039,-0.040,0.099,0.761,-0.029,0.027,-16.235,8.893,-28.312
1747607352.24,-0.074,-0.003,0.080,0.772,0.043,0.065,-15.797,8.884,-28.357
1747607352.25,-0.067,-0.012,0.035,0.733,0.118,0.116,-15.363,8.925,-28.374
1747607352.26,-0.014,-0.030,-0.007,0.714,0.187,0.164,-14.945,9.019,-28.358
1747607352.27,0.051,-0.022,-0.057,0.718,0.207,0.200,-14.525,9.149,-28.318
1747607352.28,0.094,0.002,-0.075,0.705,0.063,0.208,-14.103,9.239,-28.233
1747607352.29,0.143,0.048,-0.043,0.699,-0.052,0.174,-13.691,9.252,-28.187
1747607352.30,0.155,0.072,-0.016,0.716,-0.178,0.124,-13.280,9.191,-28.120
1747607352.31,0.115,0.030,-0.007,0.744,-0.253,0.086,-12.858,9.062,-28.128
1747607352.32,0.052,-0.042,0.005,0.766,-0.240,0.054,-12.427,8.911,-28.104
1747607352.33,-0.031,-0.094,0.025,0.798,-0.142,0.065,-11.980,8.791,-28.143
1747607352.34,-0.093,-0.101,0.045,0.815,-0.033,0.090,-11.513,8.733,-28.121
1747607352.35,-0.115,-0.154,0.028,0.783,0.086,0.166,-11.051,8.749,-28.112
1747607352.36,-0.090,-0.088,0.023,0.778,0.195,0.143,-10.596,8.836,-28.046
1747607352.37,-0.030,0.013,0.004,0.732,0.174,0.182,-10.156,8.950,-28.021
1747607352.38,0.023,0.080,-0.025,0.730,0.112,0.191,-9.730,9.039,-27.913
1747607352.39,0.039,0.134,-0.045,0.769,0.025,0.152,-9.291,9.085,-27.882
1747607352.40,0.055,0.120,-0.081,0.772,-0.083,0.077,-8.845,9.066,-27.820
1747607352.41,0.065,0.058,-0.093,0.769,-0.161,0.005,-8.408,8.988,-27.868
1747607352.42,0.044,-0.002,-0.051,0.791,-0.213,-0.038,-7.970,8.868,-27.881
1747607352.43,-0.018,-0.044,0.002,0.882,-0.161,-0.163,-7.513,8.736,-27.999
1747607352.44,-0.125,-0.074,0.011,0.788,-0.152,-0.077,-7.056,8.618,-28.084
1747607352.45,-0.125,-0.040,0.036,0.771,-0.049,-0.019,-6.620,8.548,-28.174
1747607352.46,-0.160,0.005,0.003,0.755,0.062,0.002,-6.189,8.545,-28.182
1747607352.47,-0.138,0.056,0.009,0.721,0.139,0.045,-5.770,8.598,-28.231
1747607352.48,-0.063,0.086,-0.015,0.685,0.124,0.067,-5.367,8.676,-28.193
1747607352.49,0.004,0.090,-0.049,0.671,0.032,0.007,-4.981,8.718,-28.229
1747607352.50,0.084,0.057,-0.056,0.664,-0.069,-0.032,-4.605,8.703,-28.224
1747607352.51,0.139,0.002,-0.060,0.653,-0.163,-0.061,-4.238,8.631,-28.308
1747607352.52,0.130,-0.030,-0.057,0.620,-0.256,-0.085,-3.883,8.502,-28.350
1747607352.53,0.088,-0.033,-0.049,0.604,-0.284,-0.081,-3.546,8.341,-28.452
1747607352.54,0.033,-0.028,-0.024,0.597,-0.260,-0.025,-3.210,8.177,-28.479
1747607352.55,-0.024,-0.015,0.010,0.578,-0.171,0.031,-2.879,8.050,-28.523
1747607352.56,-0.057,0.009,0.044,0.579,-0.047,0.044,-2.549,7.984,-28.491
1747607352.57,-0.067,0.019,0.053,0.634,0.071,0.057,-2.203,7.990,-28.509
1747607352.58,-0.062,0.011,0.032,0.650,0.078,0.041,-1.832,8.038,-28.475
1747607352.59,-0.056,-0.000,-0.017,0.650,0.037,0.032,-1.462,8.068,-28.508
1747607352.60,-0.010,-0.012,-0.036,0.628,-0.019,0.062,-1.097,8.072,-28.484
1747607352.61,0.005,-0.026,-0.039,0.623,-0.026,-0.049,-0.744,8.058,-28.527
1747607352.62,0.017,-0.015,-0.042,0.623,-0.079,-0.079,-0.397,8.029,-28.554
1747607352.63,0.016,-0.007,-0.027,0.625,-0.137,-0.085,-0.050,7.966,-28.650
1747607352.64,-0.000,-0.001,-0.005,0.638,-0.116,-0.092,0.299,7.893,-28.683
1747607352.65,-0.007,0.011,0.025,0.671,-0.095,-0.100,0.660,7.832,-28.787
1747607352.66,0.007,0.020,0.032,0.724,-0.071,-0.096,1.048,7.786,-28.826
1747607352.67,0.009,0.018,0.035,0.708,-0.053,-0.080,1.449,7.752,-28.931
1747607352.68,0.008,0.027,0.018,0.714,-0.017,-0.056,1.843,7.734,-28.955
1747607352.69,0.045,0.026,-0.003,0.731,0.040,-0.014,2.251,7.744,-29.029
1747607352.70,0.071,0.039,-0.018,0.718,0.086,-0.007,2.661,7.783,-29.028
1747607352.71,0.075,0.041,-0.057,0.711,0.094,0.004,3.063,7.840,-29.084
1747607352.73,0.063,0.019,-0.061,0.729,0.085,0.033,3.473,7.895,-29.068
1747607352.73,0.069,0.028,-0.022,0.724,0.051,0.046,3.887,7.934,-29.102
1747607352.74,0.097,0.061,0.002,0.724,-0.008,0.033,4.299,7.948,-29.082
1747607352.75,0.081,0.086,-0.002,0.727,-0.057,0.030,4.712,7.932,-29.122
1747607352.76,0.045,0.091,-0.005,0.721,-0.081,0.044,5.126,7.896,-29.101
1747607352.77,0.001,0.070,-0.023,0.696,-0.064,0.035,5.530,7.856,-29.136
1747607352.78,-0.026,0.021,-0.040,0.666,-0.031,0.006,5.919,7.834,-29.115
1747607352.79,-0.046,0.023,-0.038,0.693,0.017,-0.027,6.307,7.837,-29.178
1747607352.80,-0.037,-0.065,-0.051,0.641,0.041,-0.032,6.682,7.862,-29.181
1747607352.81,-0.034,-0.068,-0.065,0.625,0.042,-0.028,7.036,7.895,-29.246
1747607352.82,-0.012,-0.027,-0.075,0.623,0.027,-0.023,7.387,7.923,-29.251
1747607352.83,0.022,0.016,-0.070,0.597,-0.009,-0.039,7.731,7.937,-29.317
1747607352.84,0.050,0.050,-0.081,0.590,-0.072,-0.059,8.063,7.925,-29.330
1747607352.85,0.043,0.050,-0.088,0.573,-0.130,-0.057,8.387,7.877,-29.348
1747607352.86,0.022,0.057,-0.066,0.556,-0.142,-0.051,8.702,7.807,-29.423
1747607352.87,-0.008,0.048,-0.050,0.531,-0.128,-0.045,9.005,7.740,-29.429
1747607352.88,-0.039,0.037,-0.059,0.491,-0.124,-0.040,9.292,7.679,-29.494
1747607352.89,-0.036,0.029,-0.070,0.485,-0.128,-0.042,9.564,7.619,-29.489
1747607352.90,-0.025,0.029,-0.069,0.473,-0.154,-0.063,9.831,7.549,-29.556
1747607352.91,0.002,0.010,-0.054,0.459,-0.209,-0.085,10.090,7.461,-29.566
1747607352.92,0.028,-0.006,-0.052,0.456,-0.293,-0.100,10.341,7.332,-29.654
1747607352.93,0.039,-0.018,-0.047,0.444,-0.348,-0.104,10.589,7.163,-29.685
1747607352.94,0.036,-0.008,-0.028,0.459,-0.342,-0.103,10.835,6.983,-29.780
1747607352.95,0.032,-0.023,-0.015,0.440,-0.327,-0.056,11.084,6.805,-29.790
1747607352.96,0.015,-0.019,-0.000,0.446,-0.243,-0.053,11.331,6.651,-29.851
1747607352.97,-0.008,0.040,0.003,0.440,-0.166,-0.049,11.578,6.548,-29.832
1747607352.98,-0.023,0.039,-0.002,0.436,-0.137,-0.026,11.824,6.471,-29.883
1747607352.99,-0.032,0.009,-0.015,0.439,-0.100,-0.010,12.071,6.409,-29.856
1747607353.00,-0.000,-0.011,-0.026,0.420,-0.130,-0.012,12.313,6.351,-29.890
1747607353.01,0.056,-0.009,-0.037,0.403,-0.166,-0.021,12.546,6.275,-29.859
1747607353.02,0.066,-0.010,-0.035,0.389,-0.221,-0.009,12.769,6.173,-29.894
1747607353.03,0.047,-0.020,-0.040,0.383,-0.268,0.012,12.989,6.037,-29.865
1747607353.04,0.041,0.002,-0.042,0.388,-0.281,0.029,13.209,5.882,-29.878
1747607353.05,0.033,0.024,-0.040,0.395,-0.274,0.038,13.434,5.724,-29.822
1747607353.06,0.007,0.041,-0.034,0.388,-0.253,0.035,13.660,5.574,-29.823
1747607353.07,-0.017,0.030,-0.010,0.384,-0.201,0.029,13.881,5.444,-29.764
1747607353.08,-0.017,0.001,0.005,0.388,-0.142,0.026,14.104,5.347,-29.769
1747607353.09,0.000,-0.008,0.004,0.386,-0.107,0.018,14.325,5.282,-29.721
1747607353.10,0.007,0.000,-0.007,0.382,-0.121,-0.024,14.540,5.222,-29.742
1747607353.11,-0.005,0.021,-0.024,0.383,-0.051,0.033,14.761,5.174,-29.713
1747607353.12,0.028,-0.074,-0.008,0.395,-0.057,0.037,14.983,5.143,-29.711
1747607353.13,0.014,0.002,-0.024,0.391,-0.062,0.060,15.209,5.108,-29.659
1747607353.14,0.010,0.019,-0.035,0.380,-0.068,0.058,15.432,5.064,-29.640
1747607353.15,0.012,0.013,-0.034,0.359,-0.071,0.058,15.645,5.020,-29.573
1747607353.16,0.022,0.019,-0.037,0.346,-0.076,0.075,15.847,4.972,-29.551
1747607353.17,0.002,0.014,-0.045,0.342,-0.062,0.087,16.047,4.925,-29.469
1747607353.18,-0.017,0.012,-0.043,0.315,-0.059,0.076,16.238,4.880,-29.438
1747607353.19,-0.022,-0.003,-0.035,0.301,-0.005,0.059,16.417,4.855,-29.361
1747607353.20,-0.021,-0.012,-0.020,0.287,0.044,0.044,16.586,4.862,-29.346
1747607353.21,-0.025,-0.020,-0.011,0.280,0.087,0.035,16.749,4.896,-29.290
1747607353.22,-0.022,-0.006,-0.003,0.281,0.123,0.012,16.907,4.956,-29.292
1747607353.23,0.007,-0.002,-0.012,0.251,0.145,0.032,17.060,5.035,-29.249
1747607353.24,0.028,-0.032,-0.026,0.234,0.117,0.021,17.198,5.110,-29.247
1747607353.25,0.024,0.012,-0.068,0.228,0.079,0.023,17.332,5.167,-29.206
1747607353.26,0.025,0.024,-0.080,0.213,0.048,0.039,17.460,5.200,-29.199
1747607353.27,0.006,0.024,-0.070,0.193,0.051,0.045,17.578,5.223,-29.138
1747607353.28,-0.013,0.005,-0.050,0.172,0.073,0.050,17.684,5.252,-29.117
1747607353.29,-0.007,0.003,-0.037,0.154,0.086,0.048,17.780,5.293,-29.063
1747607353.30,0.001,0.006,-0.034,0.149,0.089,0.041,17.867,5.337,-29.044
1747607353.31,0.002,-0.003,-0.043,0.141,0.084,0.045,17.953,5.382,-28.982
1747607353.32,0.014,0.007,-0.059,0.122,0.078,0.031,18.030,5.425,-28.967
1747607353.33,0.026,0.013,-0.055,0.113,0.083,0.035,18.095,5.467,-28.894
1747607353.34,0.023,0.001,-0.038,0.102,0.095,0.040,18.154,5.514,-28.878
1747607353.35,0.021,-0.001,-0.026,0.090,0.110,0.046,18.206,5.566,-28.802
1747607353.36,0.023,0.001,-0.024,0.085,0.120,0.061,18.258,5.622,-28.774
1747607353.37,0.031,0.005,-0.029,0.078,0.100,0.073,18.306,5.674,-28.689
1747607353.38,0.034,0.021,-0.041,0.070,0.073,0.081,18.351,5.709,-28.648
1747607353.39,0.027,0.020,-0.037,0.067,0.052,0.099,18.393,5.728,-28.544
1747607353.40,0.019,0.019,-0.023,0.052,0.068,0.106,18.431,5.743,-28.485
1747607353.41,0.013,0.012,-0.009,0.042,0.099,0.125,18.461,5.773,-28.369
1747607353.42,0.005,-0.003,-0.011,0.041,0.110,0.115,18.489,5.813,-28.301
1747607353.43,0.004,0.000,-0.016,0.047,0.118,0.127,18.520,5.857,-28.173
1747607353.44,0.024,0.007,-0.012,0.054,0.133,0.131,18.554,5.906,-28.099
1747607353.45,0.025,0.013,-0.018,0.059,0.126,0.140,18.592,5.960,-27.967
1747607353.46,0.018,0.014,-0.031,0.053,0.096,0.150,18.629,6.000,-27.883
1747607353.47,0.014,0.015,-0.042,0.045,0.069,0.166,18.660,6.021,-27.729
1747607353.48,0.010,0.005,-0.034,0.052,0.094,0.128,18.693,6.042,-27.646
1747607353.49,0.013,0.006,-0.009,0.060,0.117,0.100,18.730,6.083,-27.510
1747607353.50,-0.003,-0.002,0.003,0.063,0.140,0.091,18.769,6.139,-27.458
1747607353.51,-0.008,-0.011,-0.006,0.075,0.177,0.094,18.812,6.212,-27.343
1747607353.52,-0.002,-0.002,-0.028,0.056,0.190,0.094,18.852,6.303,-27.291
1747607353.53,-0.010,0.005,-0.053,0.037,0.171,0.075,18.877,6.396,-27.197
1747607353.54,-0.016,0.028,-0.077,0.034,0.138,0.093,18.898,6.470,-27.147
1747607353.55,-0.012,0.013,-0.072,0.028,0.095,0.075,18.917,6.520,-27.055
1747607353.56,-0.022,0.038,-0.057,0.026,0.085,0.041,18.932,6.560,-27.022
1747607353.57,-0.015,0.039,-0.033,0.038,0.100,0.025,18.950,6.605,-26.955
1747607353.58,-0.014,0.035,-0.010,0.038,0.134,0.006,18.973,6.669,-26.948
1747607353.59,-0.010,0.019,0.006,0.037,0.147,0.004,18.994,6.747,-26.897
1747607353.60,-0.003,-0.000,-0.004,0.041,0.137,0.006,19.015,6.826,-26.897
1747607353.61,0.006,0.008,-0.024,0.036,0.095,-0.005,19.033,6.890,-26.844
1747607353.62,0.023,0.017,-0.033,0.045,0.072,-0.017,19.048,6.935,-26.851
1747607353.63,0.030,0.020,-0.031,0.063,0.043,-0.022,19.071,6.968,-26.821
1747607353.64,0.003,0.019,-0.026,0.079,0.065,-0.018,19.102,6.997,-26.836
1747607353.65,0.005,0.015,0.002,0.066,0.070,-0.017,19.133,7.037,-26.806
1747607353.66,0.017,0.003,0.005,0.069,0.067,-0.005,19.163,7.076,-26.816
1747607353.67,0.032,0.008,-0.005,0.071,0.053,0.011,19.200,7.108,-26.770
1747607353.68,0.036,0.020,-0.014,0.073,0.033,0.028,19.241,7.128,-26.763
1747607353.69,0.037,0.024,-0.018,0.070,0.018,0.039,19.280,7.138,-26.694
1747607353.70,0.041,0.008,-0.029,0.065,-0.014,0.047,19.313,7.136,-26.675
1747607353.71,0.039,-0.001,-0.033,0.056,-0.037,0.049,19.340,7.121,-26.597
1747607353.72,0.027,-0.008,-0.019,0.051,-0.035,0.051,19.364,7.090,-26.571
1747607353.73,0.008,-0.022,-0.007,0.053,-0.007,0.053,19.391,7.069,-26.490
1747607353.74,0.003,-0.016,-0.006,0.068,0.022,0.041,19.427,7.070,-26.468
1747607353.75,-0.001,-0.011,-0.002,0.064,0.038,0.025,19.463,7.092,-26.414
1747607353.76,-0.001,-0.019,-0.001,0.066,0.030,0.002,19.493,7.120,-26.414
1747607353.77,0.006,-0.015,-0.004,0.062,0.013,-0.004,19.520,7.144,-26.380
1747607353.78,-0.001,-0.011,0.002,0.060,0.004,-0.014,19.548,7.164,-26.392
1747607353.79,-0.006,-0.005,0.006,0.074,0.012,-0.025,19.578,7.187,-26.370
1747607353.80,0.002,-0.003,-0.004,0.080,0.002,-0.026,19.618,7.209,-26.356
1747607353.81,0.005,-0.004,-0.014,0.088,-0.002,-0.023,19.669,7.216,-26.377
1747607353.82,0.013,-0.013,-0.009,0.077,0.016,-0.011,19.717,7.226,-26.352
1747607353.83,0.027,-0.017,-0.008,0.072,0.008,-0.006,19.761,7.237,-26.362
1747607353.84,0.033,0.000,-0.019,0.075,-0.029,0.002,19.805,7.233,-26.325
1747607353.85,0.030,0.008,-0.024,0.076,-0.050,0.006,19.848,7.211,-26.328
1747607353.86,0.012,0.005,-0.012,0.091,-0.030,0.016,19.897,7.185,-26.280
1747607353.87,-0.000,0.006,0.014,0.092,0.010,0.014,19.951,7.176,-26.278
1747607353.88,-0.012,0.002,0.033,0.106,0.055,0.022,20.005,7.194,-26.237
1747607353.89,-0.009,-0.005,0.032,0.118,0.077,0.018,20.068,7.234,-26.233
1747607353.90,0.003,0.017,0.005,0.123,0.018,0.013,20.138,7.270,-26.204
1747607353.91,0.012,0.027,-0.034,0.135,-0.050,0.011,20.213,7.270,-26.211
1747607353.92,0.013,0.026,-0.043,0.141,-0.085,0.006,20.288,7.245,-26.184
1747607353.93,-0.000,0.025,-0.034,0.133,-0.082,-0.006,20.357,7.210,-26.199
1747607353.94,-0.016,-0.000,-0.021,0.131,-0.069,-0.018,20.424,7.177,-26.187
1747607353.95,-0.014,-0.009,-0.008,0.130,-0.030,-0.028,20.492,7.156,-26.212
1747607353.96,-0.008,-0.003,-0.004,0.133,0.000,-0.042,20.565,7.156,-26.216
1747607353.97,-0.007,0.000,-0.010,0.127,0.004,-0.062,20.637,7.172,-26.256
1747607353.98,-0.004,-0.013,-0.030,0.124,-0.020,-0.072,20.694,7.187,-26.281
1747607353.99,0.007,-0.014,-0.038,0.129,-0.028,-0.082,20.747,7.197,-26.337
1747607353.99,0.019,0.008,-0.026,0.091,-0.027,-0.095,20.788,7.205,-26.379
1747607354.01,0.022,-0.019,-0.016,0.072,0.004,-0.066,20.813,7.216,-26.435
1747607354.02,0.024,-0.027,-0.014,0.047,0.044,-0.014,20.839,7.234,-26.430
1747607354.02,0.036,-0.012,-0.048,-0.002,0.062,0.042,20.854,7.260,-26.422
1747607354.03,0.058,-0.029,-0.093,-0.046,0.041,0.098,20.843,7.272,-26.343
1747607354.05,0.067,-0.039,-0.107,-0.075,0.057,0.116,20.817,7.273,-26.271
1747607354.05,0.074,-0.011,-0.082,-0.123,0.070,0.109,20.769,7.282,-26.160
1747607354.07,0.052,-0.006,-0.065,-0.159,0.101,0.115,20.696,7.302,-26.081
1747607354.07,0.011,-0.029,-0.063,-0.203,0.146,0.108,20.602,7.345,-25.977
1747607354.09,-0.016,-0.047,-0.088,-0.271,0.185,0.093,20.476,7.412,-25.899
1747607354.09,-0.018,-0.068,-0.092,-0.324,0.225,0.084,20.315,7.504,-25.791
1747607354.10,-0.008,-0.089,-0.083,-0.377,0.239,0.076,20.124,7.612,-25.715
1747607354.11,-0.001,-0.098,-0.107,-0.436,0.258,0.063,19.900,7.728,-25.619
1747607354.12,0.021,-0.082,-0.120,-0.491,0.254,0.044,19.641,7.851,-25.548
1747607354.13,0.031,-0.059,-0.120,-0.552,0.229,0.037,19.350,7.969,-25.448
1747607354.14,0.038,-0.052,-0.132,-0.633,0.198,0.043,19.018,8.065,-25.374
1747607354.15,0.037,-0.059,-0.148,-0.685,0.176,0.060,18.648,8.144,-25.258
1747607354.16,0.031,-0.054,-0.156,-0.753,0.200,0.064,18.249,8.220,-25.158
1747607354.17,0.028,-0.036,-0.144,-0.815,0.217,0.058,17.810,8.307,-25.018
1747607354.18,-0.003,-0.039,-0.130,-0.863,0.227,0.073,17.342,8.403,-24.907
1747607354.19,-0.048,-0.068,-0.106,-0.932,0.243,0.094,16.843,8.498,-24.745
1747607354.20,-0.050,-0.105,-0.107,-1.008,0.259,0.100,16.303,8.601,-24.603
1747607354.21,-0.016,-0.137,-0.096,-1.054,0.266,0.108,15.729,8.710,-24.409
1747607354.22,0.011,-0.125,-0.075,-1.085,0.245,0.085,15.134,8.815,-24.254
1747607354.23,0.019,-0.078,-0.074,-1.129,0.201,0.017,14.514,8.910,-24.092
1747607354.24,0.017,-0.032,-0.121,-1.176,0.131,-0.003,13.866,8.979,-23.981
1747607354.25,-0.010,-0.005,-0.160,-1.213,0.088,-0.019,13.190,9.015,-23.853
1747607354.26,-0.022,-0.004,-0.150,-1.271,0.074,-0.014,12.490,9.038,-23.748
1747607354.27,-0.019,-0.013,-0.120,-1.293,0.062,-0.010,11.764,9.053,-23.607
1747607354.28,-0.029,-0.010,-0.075,-1.289,0.048,-0.035,11.033,9.064,-23.499
1747607354.29,-0.058,0.011,-0.042,-1.294,0.015,-0.093,10.300,9.067,-23.397
1747607354.30,-0.105,0.010,-0.053,-1.293,-0.006,-0.150,9.559,9.060,-23.348
1747607354.31,-0.164,-0.020,-0.034,-1.262,0.096,-0.212,8.821,9.077,-23.307
1747607354.32,-0.193,-0.054,0.010,-1.267,0.195,-0.252,8.087,9.161,-23.323
1747607354.33,-0.170,-0.048,0.000,-1.241,0.257,-0.287,7.354,9.298,-23.334
1747607354.34,-0.143,-0.028,-0.008,-1.241,0.297,-0.305,6.631,9.462,-23.387
1747607354.35,-0.071,-0.020,-0.020,-1.301,0.338,-0.301,5.885,9.651,-23.404
1747607354.36,0.036,-0.045,-0.061,-1.302,0.321,-0.269,5.123,9.845,-23.438
1747607354.37,0.083,-0.069,-0.033,-1.307,0.341,-0.246,4.364,10.033,-23.426
1747607354.38,0.116,-0.072,0.024,-1.325,0.336,-0.223,3.602,10.230,-23.425
1747607354.39,0.139,-0.045,0.009,-1.338,0.241,-0.209,2.832,10.395,-23.382
1747607354.40,0.134,-0.007,-0.002,-1.323,0.197,-0.189,2.063,10.518,-23.356
1747607354.41,0.110,0.013,-0.001,-1.329,0.179,-0.166,1.302,10.625,-23.291
1747607354.42,0.089,0.005,-0.032,-1.395,0.175,-0.104,0.525,10.725,-23.225
1747607354.43,0.088,-0.029,-0.074,-1.447,0.172,-0.035,-0.282,10.823,-23.086
1747607354.44,0.082,-0.064,-0.053,-1.449,0.261,0.018,-1.096,10.946,-22.934
1747607354.45,0.081,-0.072,-0.004,-1.463,0.358,0.011,-1.910,11.130,-22.740
1747607354.46,0.056,-0.064,-0.001,-1.476,0.338,-0.020,-2.735,11.341,-22.579
1747607354.47,0.026,-0.053,-0.011,-1.468,0.278,-0.039,-3.561,11.523,-22.410
1747607354.48,0.023,-0.042,0.002,-1.483,0.269,-0.041,-4.390,11.690,-22.263
1747607354.49,0.035,-0.031,-0.008,-1.511,0.240,-0.054,-5.232,11.851,-22.095
1747607354.50,0.036,-0.030,-0.033,-1.529,0.206,-0.034,-6.089,11.991,-21.940
1747607354.51,0.059,-0.032,-0.046,-1.531,0.229,-0.012,-6.947,12.132,-21.750
1747607354.52,0.068,-0.037,-0.017,-1.554,0.276,-0.023,-7.809,12.297,-21.570
1747607354.53,0.027,-0.040,0.029,-1.558,0.354,-0.070,-8.684,12.502,-21.397
1747607354.54,-0.029,-0.057,0.042,-1.551,0.422,-0.119,-9.562,12.747,-21.256
1747607354.55,-0.057,-0.088,0.035,-1.567,0.466,-0.138,-10.447,13.023,-21.123
1747607354.56,-0.049,-0.106,0.006,-1.556,0.475,-0.122,-11.332,13.318,-20.989
1747607354.57,-0.030,-0.096,-0.016,-1.559,0.477,-0.110,-12.211,13.619,-20.843
1747607354.58,-0.004,-0.058,-0.013,-1.569,0.482,-0.123,-13.094,13.927,-20.691
1747607354.59,0.004,-0.007,0.006,-1.559,0.453,-0.157,-13.982,14.228,-20.554
1747607354.60,-0.011,0.036,0.027,-1.514,0.433,-0.198,-14.858,14.510,-20.431
1747607354.61,-0.032,0.063,-0.002,-1.502,0.380,-0.230,-15.720,14.772,-20.329
1747607354.62,-0.056,0.066,-0.034,-1.497,0.342,-0.266,-16.585,15.000,-20.242
1747607354.63,-0.055,0.040,-0.027,-1.496,0.355,-0.281,-17.449,15.220,-20.169
1747607354.64,-0.036,0.010,0.004,-1.494,0.400,-0.293,-18.317,15.456,-20.096
1747607354.65,-0.018,-0.017,0.034,-1.506,0.427,-0.319,-19.188,15.716,-20.045
1747607354.66,-0.004,-0.036,0.046,-1.502,0.391,-0.278,-20.062,15.970,-19.969
1747607354.67,0.023,-0.016,0.021,-1.502,0.406,-0.268,-20.928,16.233,-19.877
1747607354.68,0.026,-0.013,-0.020,-1.513,0.374,-0.266,-21.797,16.497,-19.773
1747607354.69,0.011,-0.010,-0.052,-1.518,0.312,-0.257,-22.671,16.733,-19.668
1747607354.70,-0.008,-0.020,-0.018,-1.456,0.348,-0.270,-23.527,16.962,-19.556
1747607354.71,-0.002,-0.050,0.031,-1.429,0.406,-0.291,-24.361,17.218,-19.474
1747607354.72,-0.003,-0.062,0.032,-1.423,0.375,-0.321,-25.189,17.484,-19.387
1747607354.73,-0.028,-0.074,-0.023,-1.424,0.296,-0.393,-26.026,17.696,-19.347
1747607354.74,-0.025,-0.110,-0.018,-1.465,0.305,-0.473,-26.886,17.877,-19.365
1747607354.75,0.031,-0.130,0.037,-1.532,0.239,-0.405,-27.780,18.044,-19.339
1747607354.76,0.035,-0.072,0.064,-1.529,0.167,-0.313,-28.678,18.203,-19.287
1747607354.77,-0.003,-0.008,0.099,-1.493,0.135,-0.334,-29.555,18.344,-19.173
1747607354.78,-0.033,0.011,0.073,-1.441,0.072,-0.363,-30.413,18.448,-19.123
1747607354.79,-0.019,-0.000,-0.011,-1.430,-0.045,-0.332,-31.253,18.498,-19.043
1747607354.80,0.011,-0.007,-0.064,-1.427,-0.094,-0.312,-32.085,18.509,-18.975
1747607354.81,0.035,-0.028,-0.035,-1.397,-0.043,-0.374,-32.911,18.512,-18.889
1747607354.82,0.056,-0.056,0.023,-1.384,-0.027,-0.376,-33.732,18.523,-18.878
1747607354.83,0.044,-0.049,0.028,-1.398,-0.034,-0.346,-34.550,18.543,-18.808
1747607354.84,0.018,-0.039,0.027,-1.424,-0.022,-0.330,-35.377,18.578,-18.762
1747607354.85,0.019,-0.041,0.046,-1.449,-0.019,-0.291,-36.210,18.632,-18.647
1747607354.86,0.038,-0.041,0.053,-1.452,0.036,-0.275,-37.047,18.721,-18.550
1747607354.87,0.068,-0.046,0.050,-1.416,0.060,-0.271,-37.873,18.840,-18.404
1747607354.88,0.079,-0.046,0.021,-1.413,0.018,-0.255,-38.685,18.957,-18.295
1747607354.89,0.070,-0.041,-0.022,-1.443,-0.032,-0.250,-39.504,19.056,-18.126
1747607354.90,0.054,-0.044,-0.040,-1.426,-0.021,-0.272,-40.327,19.150,-18.001
1747607354.91,0.033,-0.058,-0.050,-1.392,-0.068,-0.327,-41.143,19.217,-17.865
1747607354.92,-0.000,-0.070,-0.040,-1.361,-0.123,-0.353,-41.949,19.226,-17.812
1747607354.93,-0.014,-0.072,0.007,-1.348,-0.142,-0.343,-42.746,19.208,-17.724
1747607354.94,-0.014,-0.063,0.027,-1.356,-0.133,-0.320,-43.536,19.202,-17.665
1747607354.95,-0.005,-0.058,0.030,-1.382,-0.113,-0.298,-44.332,19.220,-17.540
1747607354.96,0.025,-0.053,0.046,-1.402,-0.099,-0.265,-45.137,19.269,-17.443
1747607354.97,0.046,-0.040,0.057,-1.374,-0.089,-0.240,-45.935,19.346,-17.262
1747607354.98,0.055,-0.017,0.035,-1.314,-0.102,-0.230,-46.703,19.427,-17.133
1747607354.99,0.045,0.014,-0.016,-1.287,-0.139,-0.254,-47.447,19.489,-16.960
1747607355.00,0.025,0.034,-0.073,-1.282,-0.181,-0.283,-48.188,19.511,-16.857
1747607355.01,-0.003,0.038,-0.106,-1.290,-0.224,-0.312,-48.938,19.490,-16.728
1747607355.02,-0.052,0.030,-0.086,-1.278,-0.236,-0.342,-49.693,19.436,-16.643
1747607355.03,-0.083,0.013,-0.047,-1.265,-0.163,-0.427,-50.450,19.362,-16.589
1747607355.04,-0.109,-0.022,-0.005,-1.246,-0.115,-0.480,-51.212,19.273,-16.637
1747607355.05,-0.126,-0.041,0.005,-1.214,-0.123,-0.480,-51.965,19.166,-16.684
1747607355.06,-0.130,-0.042,0.002,-1.203,-0.107,-0.456,-52.705,19.063,-16.786
1747607355.07,-0.109,-0.038,0.035,-1.242,-0.039,-0.416,-53.445,19.007,-16.799
1747607355.08,-0.067,-0.039,0.075,-1.258,0.039,-0.374,-54.195,19.035,-16.786
1747607355.09,-0.015,-0.038,0.044,-1.234,0.066,-0.355,-54.937,19.119,-16.722
1747607355.10,0.030,-0.029,-0.006,-1.212,0.034,-0.343,-55.661,19.207,-16.649
1747607355.11,0.068,-0.020,-0.031,-1.199,0.004,-0.360,-56.377,19.274,-16.581
1747607355.12,0.087,-0.006,-0.039,-1.185,-0.034,-0.398,-57.090,19.296,-16.544
1747607355.13,0.083,0.004,-0.036,-1.162,-0.078,-0.429,-57.800,19.260,-16.549
1747607355.14,0.064,0.006,-0.028,-1.155,-0.105,-0.443,-58.506,19.177,-16.585
1747607355.15,0.036,0.003,-0.007,-1.136,-0.100,-0.437,-59.207,19.078,-16.630
1747607355.16,0.002,-0.005,0.003,-1.112,-0.091,-0.419,-59.894,18.987,-16.675
1747607355.17,-0.030,-0.019,0.008,-1.115,-0.119,-0.395,-60.571,18.904,-16.702
1747607355.18,-0.044,-0.040,0.016,-1.118,-0.128,-0.370,-61.244,18.829,-16.704
1747607355.19,-0.027,-0.058,0.025,-1.156,-0.102,-0.350,-61.925,18.789,-16.674
1747607355.20,0.004,-0.074,0.066,-1.161,-0.092,-0.317,-62.616,18.798,-16.603
1747607355.21,0.032,-0.088,0.040,-1.128,-0.136,-0.279,-63.290,18.830,-16.495
1747607355.22,0.055,-0.086,-0.036,-1.108,-0.126,-0.244,-63.941,18.882,-16.350
1747607355.23,0.080,-0.072,-0.019,-1.123,-0.040,-0.217,-64.584,19.007,-16.157
1747607355.24,0.070,-0.040,0.021,-1.166,0.017,-0.221,-65.242,19.212,-15.928
1747607355.25,0.027,0.003,-0.002,-1.194,-0.052,-0.249,-65.923,19.421,-15.693
1747607355.26,-0.017,0.047,-0.036,-1.186,-0.192,-0.295,-66.617,19.536,-15.492
1747607355.27,-0.048,0.076,-0.035,-1.157,-0.301,-0.329,-67.308,19.523,-15.349
1747607355.28,-0.056,0.071,-0.004,-1.116,-0.280,-0.351,-67.986,19.436,-15.260
1747607355.29,-0.042,0.042,0.039,-1.029,-0.206,-0.373,-68.635,19.320,-15.237
1747607355.30,-0.043,0.005,0.014,-0.935,-0.198,-0.390,-69.236,19.148,-15.300
1747607355.31,-0.058,-0.048,-0.020,-0.890,-0.234,-0.366,-69.797,18.929,-15.404
1747607355.32,-0.062,-0.095,-0.038,-0.910,-0.268,-0.308,-70.343,18.737,-15.452
1747607355.33,-0.066,-0.118,-0.048,-0.975,-0.213,-0.259,-70.902,18.652,-15.393
1747607355.34,-0.071,-0.116,-0.039,-1.052,-0.088,-0.236,-71.496,18.716,-15.231
1747607355.35,-0.051,-0.097,-0.035,-1.090,0.056,-0.243,-72.120,18.916,-15.013
1747607355.36,-0.010,-0.062,-0.015,-1.110,0.134,-0.246,-72.760,19.204,-14.769
1747607355.37,0.041,-0.013,0.011,-1.085,0.187,-0.247,-73.400,19.548,-14.506
1747607355.38,0.073,0.035,0.046,-1.032,0.204,-0.241,-74.016,19.914,-14.245
1747607355.39,0.078,0.069,0.067,-0.974,0.099,-0.229,-74.601,20.256,-13.984
1747607355.40,0.060,0.074,0.039,-0.920,-0.107,-0.202,-75.150,20.525,-13.705
1747607355.41,0.038,0.041,-0.008,-0.907,-0.323,-0.180,-75.675,20.718,-13.376
1747607355.42,0.022,-0.010,-0.051,-0.934,-0.422,-0.186,-76.202,20.856,-13.010
1747607355.43,0.022,-0.061,-0.050,-0.971,-0.399,-0.220,-76.751,20.977,-12.640
1747607355.44,0.020,-0.082,-0.038,-0.963,-0.383,-0.256,-77.318,21.069,-12.318
1747607355.45,-0.006,-0.067,-0.055,-0.913,-0.375,-0.288,-77.874,21.064,-12.101
1747607355.46,-0.049,-0.027,-0.047,-0.878,-0.372,-0.297,-78.411,20.977,-11.972
1747607355.47,-0.097,0.022,-0.018,-0.847,-0.347,-0.311,-78.932,20.841,-11.900
1747607355.48,-0.124,0.060,-0.004,-0.847,-0.269,-0.344,-79.449,20.644,-11.920
1747607355.49,-0.117,0.081,0.017,-0.875,-0.167,-0.361,-79.980,20.420,-12.019
1747607355.50,-0.083,0.079,0.013,-0.897,-0.026,-0.343,-80.526,20.290,-12.095
1747607355.51,-0.046,0.048,0.025,-0.867,0.091,-0.287,-81.063,20.348,-12.056
1747607355.52,-0.028,-0.001,0.025,-0.818,0.164,-0.204,-81.562,20.666,-11.810
1747607355.53,-0.020,-0.046,0.019,-0.770,0.232,-0.146,-82.021,21.261,-11.322
1747607355.54,-0.018,-0.071,0.017,-0.728,0.237,-0.130,-82.447,22.028,-10.687
1747607355.55,-0.025,-0.065,0.002,-0.701,0.141,-0.126,-82.850,22.814,-10.006
1747607355.56,-0.040,-0.034,0.003,-0.721,0.020,-0.129,-83.251,23.619,-9.239
1747607355.57,-0.054,-0.001,0.045,-0.772,-0.012,-0.128,-83.670,24.556,-8.295
1747607355.58,-0.053,0.012,0.067,-0.781,0.018,-0.143,-84.107,25.665,-7.180
1747607355.59,-0.032,0.004,0.049,-0.735,0.098,-0.175,-84.536,26.812,-6.059
1747607355.60,0.004,-0.027,0.037,-0.685,0.203,-0.208,-84.946,27.856,-5.096
1747607355.61,0.057,-0.060,0.049,-0.659,0.262,-0.226,-85.342,28.836,-4.250
1747607355.62,0.087,-0.055,0.063,-0.646,0.191,-0.228,-85.731,29.862,-3.356
1747607355.63,0.071,-0.014,0.015,-0.582,0.057,-0.230,-86.102,30.862,-2.425
1747607355.64,0.036,0.044,-0.060,-0.476,-0.012,-0.237,-86.429,31.503,-1.790
1747607355.65,0.018,0.088,-0.090,-0.431,0.071,-0.232,-86.718,31.840,-1.465
1747607355.66,0.014,0.093,-0.058,-0.439,0.178,-0.200,-86.993,32.382,-0.994
1747607355.67,-0.012,0.065,-0.030,-0.454,0.228,-0.137,-87.260,33.659,0.166
1747607355.68,-0.056,0.012,-0.024,-0.465,0.242,-0.074,-87.509,36.006,2.382
1747607355.69,-0.096,-0.059,-0.017,-0.508,0.275,-0.045,-87.748,39.649,5.880
1747607355.70,-0.114,-0.110,0.001,-0.519,0.328,-0.069,-87.988,44.499,10.562
1747607355.71,-0.097,-0.115,-0.006,-0.521,0.440,-0.104,-88.225,50.264,16.113
1747607355.72,-0.051,-0.073,0.023,-0.537,0.522,-0.132,-88.459,57.574,23.145
1747607355.73,-0.019,-0.017,0.045,-0.512,0.452,-0.116,-88.665,67.218,32.511
1747607355.74,0.001,0.022,0.000,-0.423,0.412,-0.092,-88.801,78.234,43.287
1747607355.75,0.018,0.043,-0.003,-0.364,0.435,-0.093,-88.877,89.100,53.914
1747607355.76,0.036,0.041,0.028,-0.349,0.403,-0.100,-88.916,100.089,64.662
1747607355.77,0.047,0.029,0.010,-0.295,0.359,-0.116,-88.926,110.699,75.058
1747607355.78,0.060,0.024,-0.040,-0.229,0.338,-0.128,-88.926,119.671,83.834
1747607355.79,0.074,0.032,-0.054,-0.232,0.265,-0.103,-88.910,127.545,91.534
1747607355.80,0.068,0.025,-0.017,-0.238,0.071,-0.079,-88.860,134.674,98.563
1747607355.81,0.040,-0.007,-0.027,-0.211,-0.195,-0.046,-88.789,140.075,104.004
1747607355.82,0.007,-0.051,-0.074,-0.207,-0.292,-0.069,-88.714,144.366,108.444
1747607355.83,-0.003,-0.075,-0.038,-0.253,-0.219,-0.117,-88.634,149.214,113.440
1747607355.84,0.021,-0.070,0.020,-0.282,-0.143,-0.129,-88.531,154.604,118.933
1747607355.85,0.042,-0.037,0.023,-0.241,-0.111,-0.122,-88.420,159.248,123.651
1747607355.86,0.052,0.022,-0.011,-0.157,-0.089,-0.098,-88.333,162.615,127.078
1747607355.87,0.065,0.073,-0.038,-0.090,-0.007,-0.059,-88.279,164.712,129.205
1747607355.88,0.065,0.080,-0.024,-0.074,0.068,-0.014,-88.241,165.724,130.199
1747607355.89,0.045,0.033,-0.007,-0.086,0.077,0.021,-88.196,166.018,130.449
1747607355.90,0.008,-0.026,-0.015,-0.087,-0.000,0.037,-88.144,165.883,130.290
1747607355.91,-0.040,-0.056,-0.042,-0.061,-0.100,0.029,-88.097,165.586,130.022
1747607355.92,-0.076,-0.053,-0.043,-0.014,-0.128,0.005,-88.074,165.403,129.908
1747607355.93,-0.088,-0.021,-0.026,0.019,-0.063,-0.013,-88.074,165.298,129.861
1747607355.94,-0.082,0.019,-0.006,0.058,0.053,-0.026,-88.097,165.369,129.935
1747607355.95,-0.071,0.039,0.009,0.078,0.120,-0.020,-88.141,165.439,129.953
1747607355.96,-0.057,0.028,0.002,0.055,0.127,0.015,-88.181,165.096,129.539
1747607355.97,-0.036,0.008,-0.018,0.009,0.113,0.032,-88.193,164.507,128.880
1747607355.98,-0.011,-0.010,-0.029,0.014,0.105,0.022,-88.194,164.012,128.323
1747607355.99,0.018,-0.023,-0.011,0.022,0.123,0.017,-88.206,163.737,127.980
1747607356.00,0.062,-0.027,0.057,-0.030,0.120,0.034,-88.205,163.548,127.721
1747607356.01,0.083,-0.021,0.116,-0.056,0.088,0.052,-88.174,163.257,127.369
1747607356.02,0.072,-0.025,0.132,-0.024,0.006,0.070,-88.143,162.599,126.684
1747607356.03,0.039,-0.027,0.095,0.001,-0.085,0.053,-88.127,161.681,125.789
1747607356.04,0.008,-0.027,0.065,0.022,-0.143,0.013,-88.127,161.097,125.271
1747607356.05,0.004,-0.017,0.046,0.045,-0.170,-0.015,-88.147,160.902,125.166
1747607356.06,0.015,0.012,0.026,0.065,-0.169,-0.030,-88.183,160.888,125.249
1747607356.07,0.020,0.054,0.019,0.069,-0.193,-0.045,-88.228,161.023,125.485
1747607356.08,-0.006,0.076,0.013,0.075,-0.292,-0.041,-88.269,161.168,125.768
1747607356.09,-0.053,0.062,-0.009,0.073,-0.343,-0.048,-88.307,161.204,125.989
1747607356.10,-0.084,0.026,0.006,0.041,-0.290,-0.051,-88.336,161.533,126.502
1747607356.11,-0.089,-0.015,0.046,0.022,-0.195,-0.022,-88.351,161.913,127.022
1747607356.12,-0.083,-0.049,0.056,0.029,-0.093,0.012,-88.361,161.793,126.984
1747607356.13,-0.081,-0.065,0.053,0.037,0.006,0.030,-88.371,161.196,126.411
1747607356.14,-0.067,-0.052,0.044,0.057,0.070,0.047,-88.387,160.175,125.365
1747607356.15,-0.047,-0.016,0.003,0.093,0.094,0.047,-88.416,158.751,123.893
1747607356.16,-0.028,0.030,-0.018,0.119,0.095,0.042,-88.462,157.133,122.220
1747607356.17,-0.017,0.055,-0.010,0.125,0.103,0.023,-88.521,155.600,120.631
1747607356.18,-0.000,0.048,0.010,0.112,0.124,0.022,-88.581,154.389,119.353
1747607356.19,0.014,0.022,0.021,0.109,0.111,0.026,-88.630,153.316,118.213
1747607356.20,0.020,-0.003,0.018,0.115,0.066,0.020,-88.680,152.119,116.962
1747607356.21,0.023,-0.015,0.014,0.119,0.000,0.026,-88.730,150.728,115.552
1747607356.22,0.034,-0.015,0.019,0.134,-0.048,0.038,-88.783,148.774,113.611
1747607356.23,0.046,-0.019,0.020,0.197,-0.080,0.055,-88.848,145.378,110.252
1747607356.24,0.048,-0.020,0.010,0.261,-0.084,0.064,-88.935,139.803,104.724
1747607356.25,0.043,-0.009,0.008,0.275,-0.092,0.071,-89.020,132.252,97.222
1747607356.26,0.027,0.002,0.025,0.280,-0.112,0.075,-89.083,123.194,88.220
1747607356.27,0.005,0.012,0.026,0.304,-0.156,0.075,-89.121,112.609,77.709
1747607356.28,-0.015,0.018,-0.002,0.328,-0.174,0.060,-89.132,100.541,65.736
1747607356.29,-0.020,0.015,-0.000,0.339,-0.137,0.050,-89.112,88.227,53.511
1747607356.30,-0.011,0.006,0.028,0.377,-0.094,0.053,-89.049,76.521,41.869
1747607356.31,-0.004,-0.001,0.033,0.428,-0.072,0.054,-88.938,65.734,31.126
1747607356.32,-0.004,-0.006,0.028,0.447,-0.100,0.082,-88.774,56.569,22.006
1747607356.33,-0.008,-0.011,0.023,0.448,-0.156,0.117,-88.574,49.162,14.670
1747607356.34,-0.028,-0.009,0.025,0.457,-0.212,0.125,-88.345,43.901,9.514
1747607356.35,-0.056,-0.007,0.028,0.476,-0.189,0.107,-88.103,39.684,5.412
1747607356.36,-0.060,-0.014,0.031,0.506,-0.112,0.099,-87.846,36.019,1.833
1747607356.37,-0.042,-0.023,0.035,0.551,-0.027,0.108,-87.565,32.927,-1.222
1747607356.38,-0.018,-0.020,0.035,0.595,0.048,0.120,-87.251,30.335,-3.824
1747607356.39,-0.006,0.000,0.039,0.573,0.077,0.136,-86.922,28.404,-5.796
1747607356.40,-0.011,0.030,0.062,0.567,0.043,0.146,-86.598,27.037,-7.201
1747607356.41,-0.034,0.048,0.067,0.592,-0.056,0.161,-86.262,25.915,-8.322
1747607356.42,-0.059,0.040,0.067,0.575,-0.169,0.179,-85.919,25.039,-9.135
1747607356.43,-0.070,0.019,0.068,0.569,-0.221,0.176,-85.581,24.343,-9.717
1747607356.44,-0.062,-0.005,0.043,0.590,-0.134,0.170,-85.239,23.676,-10.280
1747607356.45,-0.040,-0.032,0.044,0.595,0.003,0.182,-84.887,23.143,-10.778
1747607356.46,-0.014,-0.049,0.064,0.649,0.052,0.187,-84.522,22.738,-11.205
1747607356.47,0.002,-0.031,0.007,0.743,0.070,0.173,-84.114,22.208,-11.772
1747607356.48,0.013,0.010,-0.026,0.772,0.149,0.154,-83.674,21.566,-12.481
1747607356.49,0.034,0.047,0.053,0.727,0.168,0.166,-83.240,21.028,-13.117
1747607356.50,0.035,0.056,0.084,0.706,0.141,0.203,-82.822,20.732,-13.504
1747607356.51,0.018,0.033,0.048,0.718,0.100,0.222,-82.399,20.576,-13.731
1747607356.52,-0.013,-0.006,0.014,0.727,0.074,0.226,-81.967,20.438,-13.918
1747607356.53,-0.030,-0.047,0.015,0.736,0.166,0.233,-81.528,20.347,-14.076
1747607356.54,-0.032,-0.068,0.048,0.687,0.287,0.221,-81.100,20.358,-14.199
1747607356.55,-0.051,-0.052,0.056,0.677,0.281,0.211,-80.697,20.413,-14.312
1747607356.56,-0.069,-0.004,0.006,0.775,0.240,0.197,-80.267,20.350,-14.526
1747607356.57,-0.057,0.055,-0.016,0.743,0.254,0.177,-79.818,20.195,-14.824
1747607356.58,-0.037,0.080,0.004,0.711,0.327,0.162,-79.398,20.084,-15.105
1747607356.59,-0.011,0.050,0.001,0.748,0.322,0.150,-78.977,19.968,-15.445
1747607356.60,-0.002,-0.000,0.009,0.771,0.236,0.142,-78.540,19.772,-15.807
1747607356.61,0.015,-0.042,0.019,0.809,0.169,0.178,-78.085,19.564,-16.205
1747607356.62,0.056,-0.072,0.003,0.852,0.077,0.244,-77.597,19.426,-16.479
1747607356.63,0.075,-0.086,-0.038,0.861,0.037,0.301,-77.083,19.387,-16.550
1747607356.64,0.070,-0.074,-0.074,0.889,0.040,0.321,-76.553,19.423,-16.602
1747607356.65,0.051,-0.038,-0.113,0.877,0.072,0.299,-76.016,19.448,-16.606
1747607356.66,0.029,0.005,-0.095,0.824,0.167,0.267,-75.505,19.481,-16.710
1747607356.67,0.014,0.027,-0.026,0.822,0.223,0.231,-75.015,19.512,-16.797
1747607356.68,-0.006,0.028,-0.011,0.800,0.188,0.195,-74.537,19.482,-17.018
1747607356.69,-0.023,0.007,-0.002,0.797,0.131,0.208,-74.071,19.413,-17.184
1747607356.70,0.000,-0.033,-0.004,0.813,0.112,0.262,-73.592,19.387,-17.346
1747607356.71,0.036,-0.060,-0.033,0.796,0.102,0.316,-73.104,19.461,-17.335
1747607356.72,0.055,-0.066,-0.056,0.813,0.058,0.346,-72.609,19.592,-17.312
1747607356.73,0.046,-0.067,-0.082,0.859,0.055,0.346,-72.093,19.704,-17.225
1747607356.74,0.027,-0.068,-0.074,0.907,0.119,0.335,-71.552,19.790,-17.246
1747607356.75,-0.008,-0.061,-0.042,0.922,0.151,0.323,-70.994,19.865,-17.250
1747607356.76,-0.055,-0.045,-0.041,0.878,0.173,0.300,-70.448,19.936,-17.334
1747607356.77,-0.092,-0.018,-0.031,0.808,0.242,0.260,-69.940,20.012,-17.376
1747607356.78,-0.094,0.009,-0.021,0.699,0.352,0.238,-69.487,20.140,-17.485
1747607356.79,-0.056,0.024,-0.001,0.628,0.448,0.239,-69.085,20.362,-17.495
1747607356.80,-0.019,0.022,0.016,0.602,0.389,0.255,-68.708,20.632,-17.530
1747607356.81,0.006,0.011,0.018,0.632,0.308,0.288,-68.325,20.881,-17.476
1747607356.82,0.048,0.001,0.018,0.721,0.259,0.319,-67.904,21.104,-17.472
1747607356.83,0.076,-0.001,0.002,0.847,0.197,0.318,-67.419,21.256,-17.449
1747607356.84,0.067,0.005,-0.012,0.896,0.097,0.275,-66.890,21.285,-17.567
1747607356.85,0.039,0.003,0.000,0.901,0.008,0.225,-66.358,21.190,-17.702
1747607356.86,0.012,-0.006,-0.029,0.839,0.038,0.200,-65.848,21.044,-17.922
1747607356.87,-0.026,-0.013,-0.022,0.724,0.177,0.211,-65.386,20.985,-18.048
1747607356.88,-0.093,-0.022,0.042,0.544,0.284,0.229,-65.005,21.095,-18.134
1747607356.89,-0.148,-0.016,0.068,0.457,0.223,0.289,-64.688,21.317,-18.052
1747607356.90,-0.135,-0.013,0.023,0.452,0.174,0.350,-64.381,21.586,-17.931
1747607356.91,-0.035,0.005,0.045,0.474,0.180,0.390,-64.060,21.894,-17.699
1747607356.92,0.073,0.029,0.067,0.595,0.149,0.372,-63.697,22.176,-17.554
1747607356.93,0.140,0.054,0.004,0.714,0.037,0.309,-63.274,22.307,-17.468
1747607356.94,0.164,0.078,-0.057,0.751,-0.088,0.222,-62.828,22.254,-17.573
1747607356.95,0.157,0.079,-0.062,0.795,-0.157,0.154,-62.380,22.053,-17.719
1747607356.96,0.110,0.058,-0.057,0.831,-0.164,0.114,-61.920,21.765,-17.977
1747607356.97,0.014,0.025,-0.033,0.811,-0.109,0.102,-61.461,21.469,-18.224
1747607356.98,-0.067,-0.015,-0.009,0.757,-0.006,0.115,-61.019,21.241,-18.445
1747607356.99,-0.092,-0.056,0.027,0.635,0.119,0.140,-60.620,21.135,-18.603
1747607357.00,-0.071,-0.091,0.053,0.535,0.144,0.201,-60.277,21.163,-18.664
1747607357.01,-0.014,-0.128,0.005,0.505,0.073,0.270,-59.952,21.260,-18.625
1747607357.02,0.080,-0.134,-0.041,0.519,0.007,0.318,-59.621,21.372,-18.521
1747607357.03,0.183,-0.106,-0.028,0.596,-0.062,0.335,-59.257,21.459,-18.404
1747607357.04,0.222,-0.056,-0.024,0.676,-0.173,0.311,-58.850,21.458,-18.328
1747607357.05,0.189,0.006,-0.043,0.703,-0.269,0.260,-58.423,21.343,-18.312
1747607357.06,0.112,0.051,-0.035,0.722,-0.242,0.215,-57.994,21.159,-18.351
1747607357.07,0.030,0.070,-0.016,0.714,-0.157,0.187,-57.569,20.979,-18.429
1747607357.08,-0.045,0.063,0.014,0.684,-0.079,0.189,-57.159,20.845,-18.508
1747607357.09,-0.089,0.033,0.021,0.691,-0.058,0.217,-56.752,20.759,-18.564
1747607357.10,-0.105,0.011,-0.033,0.684,-0.054,0.236,-56.337,20.701,-18.596
1747607357.11,-0.115,0.011,-0.038,0.668,-0.069,0.208,-55.933,20.644,-18.624
1747607357.12,-0.130,0.016,-0.019,0.712,-0.050,0.154,-55.529,20.549,-18.696
1747607357.13,-0.136,0.026,-0.012,0.774,-0.005,0.090,-55.107,20.412,-18.845
1747607357.14,-0.136,0.042,-0.016,0.796,0.008,0.021,-54.674,20.235,-19.064
1747607357.15,-0.125,0.053,-0.050,0.729,0.057,-0.021,-54.262,20.036,-19.328
1747607357.16,-0.074,0.051,-0.008,0.646,0.157,-0.021,-53.899,19.894,-19.578
1747607357.16,-0.020,0.035,0.069,0.609,0.220,0.012,-53.564,19.835,-19.791
1747607357.17,0.022,0.018,0.079,0.555,0.151,0.079,-53.242,19.826,-19.941
1747607357.19,0.067,0.005,0.035,0.494,0.054,0.167,-52.936,19.835,-20.000
1747607357.20,0.137,-0.005,0.027,0.461,0.006,0.234,-52.642,19.876,-19.970
1747607357.20,0.192,-0.006,0.040,0.503,-0.080,0.247,-52.337,19.906,-19.908
1747607357.21,0.196,0.003,0.018,0.579,-0.204,0.231,-52.001,19.856,-19.869
1747607357.22,0.158,0.017,-0.008,0.656,-0.309,0.189,-51.629,19.702,-19.878
1747607357.23,0.101,0.031,-0.027,0.728,-0.392,0.137,-51.224,19.444,-19.950
1747607357.25,0.048,0.036,-0.044,0.738,-0.377,0.094,-50.806,19.125,-20.071
1747607357.25,0.009,0.025,-0.011,0.692,-0.287,0.069,-50.403,18.825,-20.212
1747607357.26,-0.022,-0.005,0.013,0.632,-0.194,0.069,-50.033,18.587,-20.344
1747607357.27,-0.045,-0.041,0.019,0.565,-0.159,0.103,-49.694,18.415,-20.442
1747607357.28,-0.049,-0.066,0.001,0.487,-0.163,0.152,-49.385,18.292,-20.482
1747607357.29,-0.033,-0.063,-0.010,0.412,-0.154,0.196,-49.112,18.219,-20.459
1747607357.30,-0.024,-0.034,0.022,0.419,-0.166,0.227,-48.852,18.177,-20.395
1747607357.31,-0.029,0.004,0.037,0.472,-0.180,0.243,-48.568,18.134,-20.321
1747607357.32,-0.041,0.042,0.026,0.533,-0.210,0.218,-48.254,18.065,-20.265
1747607357.33,-0.054,0.073,-0.009,0.604,-0.204,0.178,-47.909,17.954,-20.254
1747607357.34,-0.050,0.103,-0.047,0.667,-0.198,0.109,-47.537,17.802,-20.304
1747607357.35,-0.046,0.110,-0.044,0.690,-0.175,0.052,-47.152,17.613,-20.414
1747607357.36,-0.039,0.098,-0.006,0.674,-0.144,0.008,-46.773,17.412,-20.565
1747607357.37,-0.026,0.074,0.001,0.629,-0.076,0.009,-46.416,17.237,-20.721
1747607357.38,-0.013,0.038,0.004,0.603,-0.072,0.036,-46.078,17.103,-20.853
1747607357.39,-0.016,-0.011,-0.015,0.588,-0.137,0.076,-45.743,16.969,-20.954
1747607357.40,-0.005,-0.047,-0.017,0.602,-0.116,0.119,-45.403,16.847,-21.017
1747607357.41,0.014,-0.064,0.017,0.661,-0.094,0.127,-45.038,16.756,-21.066
1747607357.42,-0.021,-0.062,-0.003,0.735,-0.131,0.099,-44.637,16.638,-21.141
1747607357.43,-0.066,-0.055,-0.055,0.772,-0.126,0.070,-44.209,16.488,-21.249
1747607357.44,-0.085,-0.050,-0.057,0.808,-0.140,0.033,-43.768,16.317,-21.386
1747607357.45,-0.094,-0.052,-0.047,0.838,-0.119,-0.012,-43.314,16.121,-21.559
1747607357.46,-0.079,-0.053,-0.003,0.851,-0.057,-0.055,-42.855,15.930,-21.766
1747607357.47,-0.066,-0.063,0.034,0.842,-0.012,-0.064,-42.399,15.761,-21.990
1747607357.48,-0.056,-0.074,0.019,0.787,0.041,-0.047,-41.958,15.626,-22.203
1747607357.49,-0.032,-0.086,-0.023,0.712,0.083,-0.021,-41.551,15.540,-22.383
1747607357.50,-0.006,-0.095,-0.054,0.649,0.108,0.022,-41.176,15.506,-22.521
1747607357.51,0.013,-0.105,-0.028,0.629,0.099,0.101,-40.817,15.510,-22.607
1747607357.52,0.030,-0.072,0.006,0.652,0.075,0.158,-40.444,15.545,-22.642
1747607357.53,0.030,-0.008,0.020,0.687,0.057,0.188,-40.051,15.575,-22.649
1747607357.54,0.033,0.051,0.015,0.730,0.043,0.180,-39.632,15.600,-22.656
1747607357.55,0.025,0.074,-0.007,0.776,-0.013,0.137,-39.194,15.587,-22.693
1747607357.56,0.017,0.080,-0.015,0.844,-0.105,0.092,-38.731,15.504,-22.771
1747607357.57,0.020,0.066,0.049,0.896,-0.175,0.055,-38.240,15.353,-22.888
1747607357.58,0.015,0.035,0.079,0.921,-0.173,0.026,-37.731,15.160,-23.033
1747607357.59,0.017,-0.014,0.018,0.896,-0.168,0.004,-37.227,14.964,-23.192
1747607357.60,0.006,-0.062,-0.029,0.833,-0.199,0.020,-36.748,14.765,-23.345
1747607357.61,0.010,-0.110,-0.028,0.776,-0.109,0.096,-36.294,14.609,-23.450
1747607357.62,0.050,-0.132,0.023,0.714,-0.013,0.152,-35.865,14.549,-23.499
1747607357.63,0.056,-0.093,0.021,0.689,0.016,0.240,-35.451,14.560,-23.488
1747607357.64,0.036,-0.025,0.000,0.686,-0.019,0.294,-35.032,14.593,-23.427
1747607357.65,0.001,0.041,-0.007,0.687,-0.055,0.309,-34.608,14.621,-23.343
1747607357.66,-0.017,0.099,0.015,0.691,-0.048,0.298,-34.184,14.637,-23.259
1747607357.67,-0.015,0.121,0.050,0.720,-0.029,0.268,-33.755,14.655,-23.192
1747607357.68,-0.020,0.123,0.038,0.771,-0.043,0.208,-33.308,14.652,-23.161
1747607357.69,-0.031,0.096,-0.029,0.765,-0.084,0.137,-32.856,14.607,-23.182
1747607357.70,-0.032,0.048,-0.058,0.748,-0.152,0.095,-32.422,14.513,-23.253
1747607357.71,-0.017,-0.036,-0.032,0.740,-0.181,0.090,-31.998,14.377,-23.321
1747607357.72,-0.007,-0.080,0.023,0.729,-0.161,0.127,-31.576,14.253,-23.372
1747607357.73,0.004,-0.063,0.033,0.710,-0.129,0.163,-31.157,14.158,-23.396
1747607357.74,0.006,-0.036,0.032,0.691,-0.107,0.182,-30.744,14.088,-23.397
1747607357.75,0.008,0.006,0.023,0.698,-0.079,0.185,-30.335,14.038,-23.391
1747607357.76,0.019,0.041,-0.008,0.744,-0.084,0.197,-29.909,13.998,-23.382
1747607357.77,0.014,0.075,-0.039,0.753,-0.094,0.180,-29.465,13.948,-23.381
1747607357.78,-0.009,0.101,-0.057,0.733,-0.107,0.140,-29.030,13.880,-23.397
1747607357.79,-0.049,0.104,-0.056,0.721,-0.049,0.094,-28.613,13.813,-23.431
1747607357.80,-0.113,0.098,-0.012,0.670,-0.061,0.053,-28.218,13.747,-23.493
1747607357.81,-0.108,0.072,0.015,0.645,-0.033,0.080,-27.844,13.689,-23.553
1747607357.82,-0.047,0.035,-0.013,0.643,-0.020,0.109,-27.474,13.663,-23.591
1747607357.83,-0.012,0.014,-0.032,0.663,-0.046,0.103,-27.098,13.627,-23.624
1747607357.84,0.009,-0.010,-0.033,0.694,-0.071,0.078,-26.709,13.574,-23.668
1747607357.85,0.019,-0.001,-0.021,0.720,-0.096,0.043,-26.308,13.499,-23.735
1747607357.86,-0.002,0.024,0.002,0.733,-0.118,-0.021,-25.903,13.391,-23.839
1747607357.87,-0.022,0.021,0.038,0.749,-0.111,-0.030,-25.495,13.270,-23.964
1747607357.88,-0.013,0.013,0.041,0.765,-0.094,-0.024,-25.078,13.156,-24.090
1747607357.89,0.013,-0.004,0.036,0.784,-0.055,-0.000,-24.647,13.065,-24.207
1747607357.90,0.038,-0.013,0.028,0.737,-0.024,0.029,-24.218,13.003,-24.306
1747607357.91,0.062,-0.014,0.000,0.667,-0.039,0.072,-23.821,12.957,-24.376
1747607357.92,0.081,-0.008,-0.026,0.619,-0.067,0.120,-23.452,12.912,-24.409
1747607357.93,0.089,-0.015,-0.001,0.611,-0.054,0.185,-23.092,12.878,-24.400
1747607357.94,0.115,-0.013,0.017,0.633,-0.009,0.230,-22.720,12.877,-24.361
1747607357.95,0.131,0.006,0.012,0.679,-0.049,0.199,-22.327,12.880,-24.318
1747607357.96,0.103,0.006,-0.017,0.716,-0.098,0.163,-21.915,12.841,-24.307
1747607357.97,0.081,-0.008,-0.025,0.736,-0.155,0.140,-21.491,12.765,-24.317
1747607357.98,0.035,0.002,-0.034,0.769,-0.202,0.111,-21.056,12.651,-24.345
1747607357.99,-0.012,0.009,-0.024,0.772,-0.234,0.123,-20.610,12.514,-24.377
1747607358.00,-0.039,0.017,0.001,0.734,-0.233,0.152,-20.172,12.372,-24.404
1747607358.01,-0.030,0.010,0.029,0.704,-0.210,0.198,-19.750,12.250,-24.392
1747607358.02,-0.006,0.003,0.042,0.685,-0.165,0.234,-19.336,12.155,-24.381
1747607358.03,0.030,-0.004,0.004,0.686,-0.138,0.235,-18.929,12.088,-24.327
1747607358.04,0.061,-0.021,-0.039,0.692,-0.179,0.233,-18.516,12.014,-24.295
1747607358.05,0.058,-0.032,-0.014,0.703,-0.156,0.218,-18.100,11.931,-24.248
1747607358.06,0.035,-0.004,0.036,0.724,-0.110,0.200,-17.678,11.866,-24.231
1747607358.07,0.016,0.008,0.053,0.743,-0.099,0.181,-17.246,11.813,-24.211
1747607358.08,-0.008,0.022,0.027,0.759,-0.117,0.190,-16.803,11.757,-24.194
1747607358.09,-0.020,0.037,-0.025,0.754,-0.109,0.204,-16.356,11.697,-24.171
1747607358.10,-0.024,0.058,-0.049,0.754,-0.111,0.195,-15.912,11.640,-24.151
1747607358.11,-0.022,0.066,-0.044,0.747,-0.107,0.191,-15.469,11.586,-24.128
1747607358.12,-0.025,0.052,-0.043,0.738,-0.146,0.161,-15.034,11.518,-24.129
1747607358.13,-0.026,0.019,-0.026,0.732,-0.209,0.133,-14.607,11.415,-24.132
1747607358.14,0.003,-0.016,0.002,0.730,-0.267,0.105,-14.184,11.273,-24.148
1747607358.15,0.036,-0.040,0.015,0.729,-0.267,0.073,-13.766,11.112,-24.179
1747607358.16,0.035,-0.055,0.026,0.744,-0.256,0.041,-13.348,10.949,-24.230
1747607358.17,-0.011,-0.052,0.039,0.843,-0.179,0.040,-12.900,10.809,-24.295
1747607358.18,-0.049,-0.027,0.038,0.878,-0.107,0.046,-12.411,10.712,-24.374
1747607358.19,-0.056,-0.005,-0.007,0.889,-0.034,0.056,-11.909,10.657,-24.443
1747607358.20,-0.044,0.007,-0.028,0.871,0.036,0.092,-11.405,10.648,-24.506
1747607358.21,-0.014,0.018,-0.027,0.812,0.043,0.132,-10.920,10.672,-24.532
1747607358.22,0.031,0.032,-0.040,0.788,-0.035,0.139,-10.458,10.673,-24.533
1747607358.23,0.057,0.048,-0.030,0.780,-0.113,0.118,-10.003,10.628,-24.544
1747607358.24,0.058,0.053,-0.013,0.782,-0.166,0.087,-9.554,10.544,-24.570
1747607358.25,0.033,0.040,0.013,0.795,-0.190,-0.022,-9.098,10.442,-24.648
1747607358.26,0.013,0.008,0.048,0.783,-0.197,-0.006,-8.660,10.318,-24.733
1747607358.27,0.007,-0.011,0.015,0.811,-0.197,-0.035,-8.216,10.191,-24.826
1747607358.28,-0.043,-0.024,-0.031,0.799,-0.193,-0.039,-7.764,10.063,-24.932
1747607358.29,-0.068,-0.026,-0.049,0.759,-0.138,-0.025,-7.331,9.955,-25.027
1747607358.30,-0.079,-0.005,-0.046,0.760,-0.047,-0.011,-6.906,9.890,-25.119
1747607358.31,-0.083,0.026,-0.015,0.737,0.020,0.033,-6.483,9.877,-25.190
1747607358.32,-0.064,0.051,-0.037,0.712,0.018,0.004,-6.074,9.882,-25.256
1747607358.33,-0.005,0.064,-0.056,0.698,-0.030,-0.015,-5.679,9.874,-25.330
1747607358.34,0.056,0.047,-0.036,0.703,-0.108,-0.022,-5.286,9.828,-25.413
1747607358.35,0.089,0.021,-0.027,0.716,-0.199,-0.047,-4.891,9.732,-25.503
1747607358.36,0.091,0.008,-0.014,0.743,-0.268,-0.062,-4.486,9.590,-25.597
1747607358.37,0.074,-0.008,0.034,0.769,-0.275,-0.074,-4.066,9.424,-25.707
1747607358.38,0.060,-0.038,0.075,0.796,-0.249,-0.058,-3.631,9.267,-25.802
1747607358.39,0.063,-0.071,0.062,0.789,-0.226,-0.025,-3.187,9.125,-25.898
1747607358.40,0.057,-0.076,0.025,0.784,-0.173,0.016,-2.745,9.004,-25.951
1747607358.41,0.044,-0.029,0.011,0.784,-0.087,0.057,-2.298,8.928,-26.001
1747607358.42,0.007,0.029,-0.008,0.755,-0.034,0.097,-1.857,8.892,-26.004
1747607358.43,-0.030,0.049,-0.028,0.737,-0.010,0.118,-1.426,8.879,-26.009
1747607358.44,-0.040,0.042,-0.047,0.735,0.013,0.113,-1.001,8.879,-25.998
1747607358.45,-0.001,0.004,-0.049,0.731,-0.014,0.082,-0.579,8.882,-26.007
1747607358.46,0.041,-0.034,-0.034,0.719,-0.111,0.052,-0.162,8.846,-26.024
1747607358.47,0.053,-0.072,-0.021,0.693,-0.205,0.021,0.239,8.756,-26.055
1747607358.48,0.053,-0.114,-0.029,0.693,-0.276,0.009,0.632,8.618,-26.107
1747607358.49,0.042,-0.126,-0.036,0.686,-0.273,0.021,1.022,8.458,-26.125
1747607358.50,0.020,-0.083,-0.006,0.701,-0.198,0.031,1.415,8.323,-26.168
1747607358.51,-0.029,-0.010,0.002,0.710,-0.104,0.047,1.819,8.239,-26.172
1747607358.52,-0.083,0.049,-0.020,0.701,-0.025,0.064,2.223,8.205,-26.198
1747607358.53,-0.107,0.074,-0.050,0.664,0.039,0.085,2.617,8.210,-26.165
1747607358.54,-0.093,0.057,-0.061,0.631,0.076,0.093,2.988,8.244,-26.166
1747607358.55,-0.067,0.037,-0.055,0.620,0.053,0.075,3.348,8.283,-26.130
1747607358.56,-0.027,0.027,-0.055,0.603,-0.005,0.035,3.699,8.298,-26.149
1747607358.57,0.035,0.015,-0.071,0.579,-0.102,-0.007,4.035,8.273,-26.147
1747607358.58,0.067,0.018,-0.070,0.600,-0.207,-0.019,4.368,8.187,-26.207
1747607358.59,0.070,-0.032,-0.053,0.587,-0.254,-0.009,4.702,8.057,-26.220
1747607358.60,0.040,-0.022,-0.015,0.587,-0.205,-0.030,5.031,7.920,-26.276
1747607358.61,-0.036,0.019,-0.019,0.635,-0.196,-0.041,5.396,7.813,-26.328
1747607358.62,-0.032,0.061,-0.008,0.587,-0.147,0.020,5.738,7.718,-26.375
1747607358.63,-0.035,0.077,-0.039,0.565,-0.073,0.026,6.065,7.658,-26.367
1747607358.64,-0.063,0.062,-0.039,0.566,0.020,0.020,6.387,7.644,-26.396
1747607358.65,-0.054,0.047,-0.028,0.528,0.094,0.013,6.700,7.684,-26.409
1747607358.66,-0.030,0.024,-0.057,0.532,0.098,0.002,6.999,7.745,-26.444
1747607358.67,-0.013,0.013,-0.085,0.514,0.055,-0.016,7.297,7.795,-26.462
1747607358.68,0.004,0.007,-0.089,0.481,-0.017,-0.035,7.576,7.812,-26.516
1747607358.69,0.020,0.013,-0.101,0.468,-0.101,-0.056,7.839,7.786,-26.552
1747607358.70,0.013,0.025,-0.093,0.448,-0.178,-0.074,8.094,7.716,-26.624
1747607358.71,-0.011,0.023,-0.080,0.421,-0.218,-0.085,8.333,7.612,-26.676
1747607358.72,-0.012,0.012,-0.054,0.422,-0.222,-0.105,8.564,7.497,-26.762
1747607358.73,0.001,0.010,-0.026,0.410,-0.195,-0.114,8.793,7.393,-26.841
1747607358.74,0.014,0.006,-0.022,0.392,-0.172,-0.098,9.012,7.301,-26.927
1747607358.75,0.010,0.011,-0.037,0.385,-0.163,-0.076,9.226,7.217,-26.973
1747607358.76,0.007,0.023,-0.025,0.357,-0.129,-0.020,9.433,7.142,-27.028
1747607358.77,0.011,0.025,-0.010,0.353,-0.093,0.026,9.634,7.083,-27.023
1747607358.78,0.027,0.023,-0.019,0.341,-0.085,0.043,9.833,7.034,-27.027
1747607358.79,0.042,0.004,-0.038,0.329,-0.091,0.067,10.027,6.982,-26.998
1747607358.80,0.061,-0.041,-0.058,0.406,-0.241,0.271,10.244,6.843,-26.938
1747607358.81,0.089,-0.132,-0.094,0.268,-0.126,0.104,10.434,6.732,-26.832
1747607358.82,0.035,0.050,0.039,0.315,-0.126,0.103,10.610,6.654,-26.798
1747607358.83,0.015,0.027,-0.069,0.281,-0.132,0.105,10.785,6.572,-26.738
1747607358.84,-0.035,-0.002,-0.024,0.281,-0.101,0.111,10.950,6.497,-26.693
1747607358.85,-0.044,0.005,-0.028,0.276,-0.090,0.061,11.113,6.435,-26.632
1747607358.86,-0.025,0.012,-0.056,0.258,-0.088,0.034,11.268,6.383,-26.623
1747607358.87,-0.035,-0.003,-0.057,0.256,-0.100,0.012,11.415,6.330,-26.599
1747607358.88,-0.054,-0.004,-0.033,0.266,-0.103,-0.014,11.564,6.275,-26.617
1747607358.89,-0.040,0.014,-0.013,0.273,-0.102,-0.041,11.713,6.223,-26.622
1747607358.90,-0.016,0.015,-0.006,0.270,-0.095,-0.045,11.865,6.175,-26.666
1747607358.91,0.008,0.005,-0.002,0.263,-0.100,-0.041,12.014,6.128,-26.666
1747607358.92,0.034,-0.003,-0.011,0.240,-0.147,-0.030,12.156,6.066,-26.702
1747607358.93,0.053,-0.013,-0.040,0.231,-0.202,-0.002,12.289,5.970,-26.690
1747607358.94,0.048,-0.017,-0.040,0.229,-0.217,0.029,12.421,5.850,-26.696
1747607358.95,0.028,-0.002,-0.007,0.234,-0.163,0.030,12.554,5.739,-26.647
1747607358.96,0.020,0.009,0.024,0.241,-0.117,0.044,12.692,5.659,-26.640
1747607358.97,0.006,-0.009,0.022,0.248,-0.058,0.054,12.834,5.604,-26.583
1747607358.98,0.004,-0.017,0.007,0.236,-0.006,0.049,12.976,5.582,-26.566
1747607358.99,0.020,-0.017,0.001,0.231,0.004,0.059,13.112,5.581,-26.519
1747607359.00,0.032,-0.019,-0.036,0.220,-0.050,0.086,13.244,5.562,-26.488
1747607359.01,0.029,-0.015,-0.056,0.218,-0.113,0.089,13.373,5.507,-26.419
1747607359.02,0.020,-0.004,-0.044,0.213,-0.160,0.077,13.500,5.421,-26.383
1747607359.03,0.017,0.004,-0.030,0.205,-0.181,0.046,13.620,5.315,-26.330
1747607359.04,0.010,0.008,-0.018,0.207,-0.133,0.076,13.741,5.219,-26.306
1747607359.05,0.025,-0.045,0.001,0.187,-0.093,0.097,13.859,5.147,-26.228
1747607359.06,0.001,-0.031,-0.022,0.173,-0.067,0.116,13.968,5.078,-26.161
1747607359.07,-0.005,-0.012,-0.023,0.224,0.043,0.039,14.081,5.053,-26.091
1747607359.08,-0.001,0.001,-0.004,0.179,0.011,0.088,14.202,5.055,-26.060
1747607359.09,0.019,0.008,0.024,0.195,0.015,0.088,14.307,5.064,-25.993
1747607359.10,0.009,-0.005,-0.003,0.186,-0.001,0.079,14.411,5.069,-25.955
1747607359.11,0.008,-0.008,0.000,0.195,0.006,0.060,14.510,5.069,-25.900
1747607359.12,0.006,0.003,0.002,0.205,0.023,0.052,14.616,5.076,-25.880
1747607359.13,-0.001,0.002,-0.013,0.209,0.034,0.046,14.747,5.097,-25.843
1747607359.14,-0.003,0.007,-0.039,0.209,0.032,0.048,14.870,5.112,-25.826
1747607359.15,0.001,0.009,-0.046,0.212,0.034,0.052,14.991,5.124,-25.780
1747607359.16,0.002,0.008,-0.041,0.193,0.015,0.048,15.105,5.133,-25.762
1747607359.17,-0.008,0.017,-0.037,0.191,-0.006,0.028,15.213,5.139,-25.720
1747607359.18,-0.006,0.013,-0.024,0.189,-0.022,0.021,15.318,5.132,-25.716
1747607359.19,0.009,-0.003,-0.013,0.188,-0.027,0.015,15.425,5.122,-25.691
1747607359.20,0.016,-0.009,-0.017,0.179,-0.041,0.009,15.523,5.106,-25.695
1747607359.21,0.014,-0.001,-0.018,0.180,-0.032,0.008,15.618,5.085,-25.667
1747607359.22,0.008,0.007,-0.017,0.183,-0.022,0.020,15.712,5.069,-25.668
1747607359.23,0.001,0.015,-0.025,0.191,-0.009,0.029,15.807,5.058,-25.628
1747607359.24,0.007,0.020,-0.031,0.179,-0.012,0.023,15.905,5.051,-25.622
1747607359.25,0.017,0.019,-0.049,0.164,-0.020,0.016,15.994,5.037,-25.581
1747607359.26,0.019,0.001,-0.037,0.152,-0.002,0.012,16.078,5.028,-25.580
1747607359.27,0.016,-0.015,-0.010,0.143,0.018,0.010,16.159,5.036,-25.547
1747607359.28,0.022,-0.016,-0.020,0.128,0.024,0.012,16.234,5.051,-25.547
1747607359.29,0.024,-0.007,-0.036,0.119,0.029,0.024,16.302,5.067,-25.511
1747607359.30,0.025,0.004,-0.036,0.123,0.026,0.033,16.367,5.082,-25.503
1747607359.31,0.023,-0.004,-0.042,0.120,0.038,0.058,16.432,5.094,-25.436
1747607359.32,0.017,-0.002,-0.029,0.118,0.047,0.044,16.497,5.111,-25.412
1747607359.33,0.016,0.023,-0.033,0.088,0.056,0.045,16.551,5.136,-25.342
1747607359.34,0.013,0.001,-0.028,0.076,0.092,0.057,16.597,5.173,-25.317
1747607359.35,0.008,-0.012,-0.032,0.059,0.102,0.061,16.639,5.223,-25.229
1747607359.36,0.006,-0.007,-0.048,0.049,0.098,0.055,16.673,5.273,-25.197
1747607359.37,0.010,-0.006,-0.048,0.043,0.089,0.050,16.701,5.320,-25.119
1747607359.38,0.014,-0.008,-0.027,0.043,0.100,0.039,16.725,5.370,-25.095
1747607359.39,0.018,0.000,-0.011,0.042,0.097,0.022,16.749,5.424,-25.046
1747607359.40,0.013,0.009,-0.018,0.044,0.076,0.015,16.774,5.473,-25.037
1747607359.41,0.002,0.017,-0.039,0.035,0.038,0.012,16.794,5.505,-24.989
1747607359.42,-0.003,0.019,-0.052,0.026,0.028,0.011,16.810,5.523,-24.936
1747607359.43,0.000,0.007,-0.036,0.020,0.024,0.009,16.823,5.536,-24.930
1747607359.44,0.001,0.010,-0.023,0.026,0.019,0.004,16.836,5.546,-24.888
1747607359.45,-0.004,0.021,-0.014,0.037,0.005,-0.002,16.853,5.554,-24.890
1747607359.46,-0.015,0.024,-0.011,0.047,-0.016,-0.007,16.877,5.553,-24.865
1747607359.47,-0.013,0.018,-0.009,0.066,-0.027,-0.018,16.908,5.546,-24.876
1747607359.48,-0.004,0.021,-0.002,0.094,-0.025,-0.030,16.949,5.537,-24.857
1747607359.49,-0.002,0.018,0.005,0.111,-0.010,-0.036,16.999,5.534,-24.883
1747607359.50,-0.006,0.012,0.010,0.127,0.009,-0.039,17.056,5.540,-24.875
1747607359.51,-0.008,0.008,0.016,0.138,0.014,-0.032,17.122,5.554,-24.902
1747607359.52,-0.008,0.003,0.020,0.142,0.006,-0.032,17.189,5.568,-24.884
1747607359.53,0.006,0.004,0.008,0.147,-0.023,-0.029,17.253,5.569,-24.910
1747607359.54,0.015,0.007,-0.012,0.153,-0.074,-0.032,17.319,5.541,-24.899
1747607359.55,0.008,0.013,-0.013,0.165,-0.113,-0.035,17.393,5.489,-24.927
1747607359.56,0.001,0.007,0.001,0.175,-0.122,-0.032,17.473,5.428,-24.906
1747607359.57,-0.000,0.004,0.015,0.191,-0.097,-0.030,17.562,5.374,-24.935
1747607359.58,-0.000,0.006,0.021,0.191,-0.062,-0.018,17.660,5.335,-24.915
1747607359.59,-0.011,-0.004,0.013,0.193,-0.029,-0.002,17.763,5.314,-24.931
1747607359.60,-0.008,-0.013,-0.000,0.200,-0.015,0.008,17.871,5.306,-24.895
1747607359.61,0.009,-0.015,-0.020,0.203,-0.003,0.010,17.979,5.308,-24.903
1747607359.62,0.020,-0.015,-0.029,0.209,0.016,0.019,18.087,5.321,-24.867
1747607359.63,0.027,-0.006,-0.035,0.196,-0.006,0.030,18.190,5.329,-24.866
1747607359.64,0.025,0.008,-0.057,0.166,0.002,0.016,18.285,5.328,-24.830
1747607359.65,0.013,0.005,-0.062,0.143,0.041,-0.013,18.369,5.343,-24.840
1747607359.66,0.002,-0.004,-0.059,0.102,0.070,-0.016,18.434,5.381,-24.816
1747607359.67,0.006,-0.006,-0.094,0.048,0.091,-0.023,18.476,5.428,-24.831
1747607359.68,0.010,-0.012,-0.121,-0.011,0.134,-0.017,18.485,5.492,-24.813
1747607359.69,0.017,-0.024,-0.116,-0.061,0.221,0.003,18.465,5.596,-24.815
1747607359.70,0.021,-0.021,-0.131,-0.128,0.272,0.015,18.412,5.735,-24.771
1747607359.71,0.015,-0.034,-0.175,-0.199,0.264,0.018,18.320,5.885,-24.751
1747607359.72,0.020,-0.076,-0.181,-0.272,0.260,0.014,18.186,6.026,-24.711
1747607359.73,0.037,-0.099,-0.146,-0.348,0.321,-0.015,18.011,6.185,-24.691
1747607359.74,0.030,-0.091,-0.097,-0.422,0.395,-0.043,17.789,6.386,-24.645
1747607359.75,-0.002,-0.087,-0.077,-0.490,0.446,-0.049,17.526,6.626,-24.640
1747607359.76,-0.032,-0.079,-0.089,-0.547,0.506,-0.067,17.228,6.895,-24.601
1747607359.77,-0.053,-0.056,-0.111,-0.620,0.476,-0.087,16.892,7.178,-24.604
1747607359.78,-0.055,-0.043,-0.149,-0.696,0.425,-0.110,16.512,7.437,-24.575
1747607359.79,-0.050,-0.057,-0.163,-0.777,0.411,-0.128,16.087,7.679,-24.589
1747607359.80,-0.044,-0.084,-0.150,-0.857,0.406,-0.126,15.615,7.917,-24.556
1747607359.81,-0.034,-0.109,-0.141,-0.916,0.382,-0.125,15.104,8.139,-24.556
1747607359.82,-0.015,-0.110,-0.122,-0.978,0.373,-0.117,14.559,8.353,-24.507
1747607359.83,0.009,-0.093,-0.100,-1.013,0.325,-0.109,13.988,8.548,-24.487
1747607359.84,0.024,-0.077,-0.115,-1.062,0.237,-0.098,13.392,8.703,-24.419
1747607359.85,0.029,-0.081,-0.113,-1.096,0.146,-0.085,12.775,8.802,-24.375
1747607359.86,0.028,-0.073,-0.089,-1.127,0.106,-0.090,12.141,8.861,-24.279
1747607359.87,0.021,-0.045,-0.068,-1.129,0.109,-0.099,11.494,8.911,-24.231
1747607359.88,-0.004,-0.020,-0.063,-1.109,0.149,-0.125,10.853,8.976,-24.157
1747607359.89,-0.025,-0.006,-0.061,-1.153,0.171,-0.157,10.204,9.066,-24.136
1747607359.90,-0.040,-0.019,-0.058,-1.189,0.171,-0.134,9.529,9.161,-24.092
1747607359.91,-0.035,-0.053,-0.045,-1.224,0.187,-0.075,8.839,9.254,-24.040
1747607359.92,0.011,-0.074,-0.057,-1.256,0.179,-0.036,8.135,9.348,-23.928
1747607359.93,0.062,-0.062,-0.076,-1.274,0.151,-0.036,7.419,9.428,-23.827
1747607359.94,0.080,-0.028,-0.061,-1.283,0.121,-0.067,6.695,9.494,-23.703
1747607359.95,0.049,-0.014,-0.053,-1.303,0.042,-0.104,5.958,9.531,-23.630
1747607359.96,0.002,-0.046,-0.046,-1.331,0.026,-0.114,5.208,9.541,-23.546
1747607359.97,-0.007,-0.079,-0.033,-1.345,0.087,-0.106,4.443,9.567,-23.481
1747607359.98,0.021,-0.089,-0.031,-1.353,0.116,-0.079,3.674,9.623,-23.385
1747607359.99,0.042,-0.075,-0.038,-1.362,0.101,-0.038,2.904,9.680,-23.287
1747607360.00,0.050,-0.052,-0.044,-1.344,0.091,-0.029,2.138,9.729,-23.151
1747607360.01,0.043,-0.024,0.005,-1.322,0.167,-0.050,1.383,9.797,-23.043
1747607360.02,0.022,-0.010,0.069,-1.273,0.232,-0.082,0.646,9.911,-22.931
1747607360.03,-0.025,-0.011,0.047,-1.258,0.269,-0.117,-0.075,10.052,-22.862
1747607360.04,-0.060,-0.024,0.008,-1.273,0.302,-0.139,-0.798,10.218,-22.790
1747607360.05,-0.063,-0.044,-0.045,-1.309,0.279,-0.114,-1.537,10.387,-22.731
1747607360.06,-0.032,-0.074,-0.088,-1.362,0.271,-0.051,-2.295,10.545,-22.619
1747607360.07,0.036,-0.087,-0.073,-1.388,0.312,-0.009,-3.072,10.716,-22.489
1747607360.08,0.076,-0.068,-0.021,-1.374,0.372,-0.024,-3.848,10.920,-22.334
1747607360.09,0.064,-0.027,0.063,-1.365,0.431,-0.084,-4.622,11.158,-22.214
1747607360.10,0.026,-0.004,0.068,-1.334,0.414,-0.159,-5.392,11.411,-22.123
1747607360.11,-0.017,-0.006,0.001,-1.356,0.327,-0.212,-6.163,11.627,-22.076
1747607360.12,-0.033,-0.031,-0.037,-1.390,0.264,-0.223,-6.958,11.799,-22.034
1747607360.13,-0.015,-0.061,-0.037,-1.399,0.231,-0.198,-7.762,11.944,-21.989
1747607360.14,0.011,-0.074,-0.038,-1.413,0.236,-0.161,-8.569,12.087,-21.923
1747607360.15,0.020,-0.062,-0.033,-1.434,0.233,-0.147,-9.382,12.234,-21.835
1747607360.16,-0.008,-0.033,-0.013,-1.423,0.260,-0.157,-10.199,12.390,-21.738
1747607360.17,-0.056,-0.020,-0.001,-1.403,0.346,-0.200,-11.009,12.576,-21.660
1747607360.18,-0.103,-0.030,-0.002,-1.396,0.418,-0.253,-11.815,12.804,-21.618
1747607360.19,-0.112,-0.060,-0.003,-1.395,0.485,-0.303,-12.628,13.067,-21.595
1747607360.20,-0.081,-0.094,0.025,-1.401,0.576,-0.326,-13.445,13.373,-21.593
1747607360.21,-0.020,-0.113,0.027,-1.438,0.576,-0.312,-14.275,13.709,-21.582
1747607360.22,0.035,-0.108,-0.018,-1.469,0.478,-0.275,-15.122,14.021,-21.548
1747607360.23,0.082,-0.079,-0.018,-1.490,0.425,-0.221,-15.976,14.295,-21.476
1747607360.23,0.125,-0.032,0.035,-1.516,0.431,-0.169,-16.835,14.571,-21.383
1747607360.25,0.138,0.018,0.057,-1.508,0.400,-0.149,-17.694,14.850,-21.243
1747607360.25,0.103,0.057,0.047,-1.492,0.376,-0.153,-18.543,15.118,-21.116
1747607360.27,0.060,0.068,0.031,-1.444,0.379,-0.167,-19.377,15.377,-20.976
1747607360.27,0.025,0.041,0.005,-1.397,0.384,-0.163,-20.183,15.640,-20.856
1747607360.29,-0.004,-0.008,0.011,-1.399,0.408,-0.176,-20.977,15.912,-20.723
1747607360.29,-0.020,-0.054,0.042,-1.414,0.442,-0.195,-21.779,16.203,-20.609
1747607360.30,-0.021,-0.088,0.030,-1.456,0.451,-0.194,-22.596,16.509,-20.477
1747607360.31,-0.007,-0.106,0.004,-1.493,0.455,-0.183,-23.434,16.827,-20.353
1747607360.32,0.020,-0.096,-0.014,-1.513,0.427,-0.162,-24.284,17.150,-20.222
1747607360.33,0.029,-0.062,-0.004,-1.516,0.369,-0.148,-25.137,17.458,-20.031
1747607360.34,0.023,-0.020,-0.005,-1.494,0.289,-0.154,-25.982,17.734,-19.874
1747607360.35,0.011,0.016,-0.015,-1.470,0.186,-0.186,-26.817,17.952,-19.687
1747607360.36,0.004,0.031,0.002,-1.470,0.157,-0.213,-27.649,18.125,-19.559
1747607360.37,0.031,0.021,0.036,-1.469,0.185,-0.215,-28.485,18.299,-19.394
1747607360.38,0.072,-0.006,0.002,-1.468,0.195,-0.207,-29.318,18.494,-19.276
1747607360.39,0.076,-0.035,-0.081,-1.497,0.089,-0.204,-30.157,18.668,-19.094
1747607360.40,0.034,-0.066,-0.091,-1.538,0.029,-0.199,-31.015,18.797,-18.942
1747607360.41,-0.014,-0.098,-0.014,-1.544,0.046,-0.189,-31.885,18.928,-18.731
1747607360.42,-0.043,-0.116,0.023,-1.521,0.033,-0.173,-32.745,19.070,-18.556
1747607360.43,-0.058,-0.114,-0.009,-1.544,0.024,-0.203,-33.605,19.208,-18.331
1747607360.44,-0.069,-0.090,-0.012,-1.548,0.008,-0.277,-34.485,19.329,-18.178
1747607360.45,-0.076,-0.057,-0.018,-1.525,-0.073,-0.335,-35.371,19.397,-18.026
1747607360.46,-0.064,-0.024,-0.017,-1.522,-0.146,-0.357,-36.256,19.405,-17.947
1747607360.47,-0.041,-0.002,-0.009,-1.533,-0.170,-0.338,-37.146,19.389,-17.820
1747607360.48,-0.007,0.005,-0.022,-1.540,-0.143,-0.303,-38.035,19.389,-17.710
1747607360.49,0.030,-0.002,-0.022,-1.528,-0.095,-0.281,-38.917,19.427,-17.538
1747607360.50,0.058,-0.025,-0.012,-1.513,-0.066,-0.282,-39.790,19.493,-17.400
1747607360.51,0.079,-0.063,-0.022,-1.519,-0.056,-0.291,-40.660,19.574,-17.223
1747607360.52,0.082,-0.097,-0.028,-1.536,-0.082,-0.288,-41.537,19.656,-17.091
1747607360.53,0.067,-0.117,-0.020,-1.548,-0.069,-0.281,-42.420,19.742,-16.897
1747607360.54,0.041,-0.124,0.009,-1.558,-0.060,-0.293,-43.310,19.842,-16.745
1747607360.55,0.006,-0.119,0.044,-1.534,-0.081,-0.320,-44.201,19.933,-16.556
1747607360.56,-0.021,-0.097,0.038,-1.487,-0.125,-0.329,-45.076,19.992,-16.438
1747607360.57,-0.040,-0.069,0.010,-1.481,-0.175,-0.322,-45.934,20.025,-16.273
1747607360.58,-0.052,-0.033,-0.002,-1.483,-0.231,-0.328,-46.793,20.033,-16.149
1747607360.59,-0.035,0.000,-0.029,-1.491,-0.274,-0.341,-47.657,20.009,-15.984
1747607360.60,-0.017,0.026,-0.053,-1.472,-0.318,-0.368,-48.521,19.951,-15.845
1747607360.61,-0.012,0.048,-0.062,-1.456,-0.336,-0.399,-49.382,19.854,-15.725
1747607360.62,-0.012,0.050,-0.050,-1.421,-0.299,-0.423,-50.234,19.737,-15.638
1747607360.63,-0.014,0.041,-0.027,-1.400,-0.251,-0.432,-51.074,19.631,-15.573
1747607360.64,-0.029,0.028,-0.016,-1.429,-0.225,-0.435,-51.918,19.541,-15.513
1747607360.65,-0.038,0.007,0.013,-1.438,-0.144,-0.412,-52.771,19.492,-15.441
1747607360.66,-0.024,-0.017,0.064,-1.414,-0.076,-0.375,-53.614,19.509,-15.342
1747607360.67,-0.013,-0.027,0.097,-1.388,-0.058,-0.349,-54.438,19.575,-15.215
1747607360.68,-0.008,-0.030,0.096,-1.356,-0.050,-0.339,-55.241,19.657,-15.079
1747607360.69,0.008,-0.030,0.053,-1.338,-0.088,-0.338,-56.030,19.733,-14.941
1747607360.70,0.024,-0.027,0.000,-1.330,-0.146,-0.347,-56.812,19.777,-14.807
1747607360.71,0.038,-0.019,-0.042,-1.363,-0.192,-0.357,-57.601,19.791,-14.676
1747607360.72,0.042,-0.018,-0.044,-1.394,-0.247,-0.384,-58.415,19.775,-14.547
1747607360.73,0.030,-0.020,-0.040,-1.370,-0.250,-0.416,-59.236,19.715,-14.447
1747607360.74,0.022,-0.021,-0.028,-1.369,-0.195,-0.433,-60.053,19.647,-14.379
1747607360.75,0.008,-0.020,0.022,-1.384,-0.154,-0.440,-60.878,19.600,-14.321
1747607360.76,-0.010,-0.028,0.047,-1.383,-0.170,-0.430,-61.706,19.562,-14.258
1747607360.77,0.002,-0.041,0.023,-1.389,-0.161,-0.388,-62.530,19.549,-14.164
1747607360.78,0.047,-0.046,0.015,-1.398,-0.155,-0.350,-63.351,19.593,-14.014
1747607360.79,0.072,-0.043,0.012,-1.380,-0.168,-0.321,-64.162,19.677,-13.818
1747607360.80,0.067,-0.032,0.015,-1.364,-0.166,-0.308,-64.959,19.782,-13.594
1747607360.81,0.037,-0.021,0.037,-1.354,-0.137,-0.307,-65.749,19.909,-13.359
1747607360.82,0.002,-0.008,0.017,-1.333,-0.113,-0.317,-66.531,20.052,-13.126
1747607360.83,-0.043,0.007,-0.035,-1.314,-0.126,-0.331,-67.305,20.187,-12.905
1747607360.84,-0.097,0.008,-0.061,-1.295,-0.114,-0.359,-68.072,20.298,-12.710
1747607360.85,-0.126,-0.004,-0.042,-1.277,-0.088,-0.391,-68.836,20.378,-12.562
1747607360.86,-0.127,-0.018,-0.009,-1.230,-0.062,-0.419,-69.590,20.421,-12.471
1747607360.87,-0.105,-0.030,-0.011,-1.148,-0.039,-0.439,-70.312,20.412,-12.449
1747607360.88,-0.076,-0.036,-0.024,-1.111,-0.006,-0.448,-71.001,20.358,-12.492
1747607360.89,-0.042,-0.038,-0.006,-1.133,0.060,-0.437,-71.690,20.329,-12.538
1747607360.90,-0.009,-0.038,0.004,-1.109,0.127,-0.420,-72.377,20.365,-12.557
1747607360.91,0.011,-0.023,-0.030,-1.067,0.156,-0.424,-73.041,20.414,-12.593
1747607360.92,0.016,-0.012,-0.042,-1.100,0.191,-0.420,-73.703,20.471,-12.634
1747607360.93,0.024,-0.020,0.011,-1.151,0.277,-0.388,-74.389,20.635,-12.603
1747607360.94,0.026,-0.030,0.058,-1.099,0.247,-0.339,-75.066,20.917,-12.470
1747607360.95,0.003,-0.035,0.026,-1.035,0.150,-0.313,-75.698,21.204,-12.290
1747607360.96,-0.009,-0.038,-0.008,-1.048,0.106,-0.311,-76.314,21.475,-12.082
1747607360.97,0.004,-0.040,-0.002,-1.068,0.104,-0.312,-76.942,21.777,-11.832
1747607360.98,0.021,-0.034,-0.026,-1.068,0.142,-0.322,-77.575,22.113,-11.558
1747607360.99,0.028,-0.021,-0.041,-1.049,0.208,-0.307,-78.204,22.499,-11.264
1747607361.00,0.023,-0.009,-0.012,-1.019,0.265,-0.264,-78.811,23.015,-10.878
1747607361.01,0.006,0.013,0.012,-1.006,0.258,-0.233,-79.397,23.691,-10.344
1747607361.02,-0.016,0.036,0.018,-0.977,0.214,-0.252,-79.972,24.411,-9.750
1747607361.03,-0.024,0.050,0.013,-0.954,0.165,-0.292,-80.536,25.040,-9.223
1747607361.04,-0.006,0.031,0.032,-0.962,0.095,-0.313,-81.104,25.588,-8.743
1747607361.05,0.016,-0.009,0.057,-0.948,-0.011,-0.281,-81.672,26.174,-8.176
1747607361.06,0.024,-0.059,0.043,-0.860,-0.111,-0.207,-82.198,26.890,-7.416
1747607361.07,0.009,-0.100,-0.009,-0.771,-0.105,-0.164,-82.657,27.725,-6.507
1747607361.08,-0.027,-0.108,-0.034,-0.768,-0.074,-0.172,-83.086,28.660,-5.514
1747607361.09,-0.069,-0.083,-0.056,-0.780,-0.063,-0.211,-83.526,29.639,-4.489
1747607361.10,-0.090,-0.035,-0.096,-0.787,-0.045,-0.245,-83.979,30.627,-3.463
1747607361.11,-0.082,0.015,-0.093,-0.763,0.039,-0.267,-84.437,31.654,-2.426
1747607361.12,-0.064,0.046,-0.054,-0.689,0.215,-0.277,-84.870,32.665,-1.481
1747607361.13,-0.052,0.070,0.018,-0.676,0.338,-0.275,-85.280,33.748,-0.558
1747607361.14,-0.071,0.077,0.082,-0.717,0.206,-0.267,-85.697,35.138,0.672
1747607361.15,-0.108,0.053,0.044,-0.672,0.013,-0.258,-86.109,36.783,2.263
1747607361.16,-0.102,-0.007,-0.017,-0.553,-0.019,-0.252,-86.475,38.289,3.783
1747607361.17,-0.063,-0.086,-0.020,-0.514,0.191,-0.234,-86.795,39.680,5.133
1747607361.18,-0.005,-0.139,0.037,-0.597,0.457,-0.196,-87.115,41.988,7.256
1747607361.19,0.042,-0.151,0.048,-0.644,0.548,-0.160,-87.442,45.958,10.936
1747607361.20,0.048,-0.103,-0.037,-0.643,0.531,-0.161,-87.754,51.434,16.106
1747607361.21,0.049,-0.010,-0.076,-0.627,0.418,-0.179,-88.043,58.280,22.682
1747607361.22,0.058,0.083,-0.065,-0.613,0.305,-0.210,-88.306,66.726,30.929
1747607361.23,0.076,0.136,-0.047,-0.571,0.259,-0.211,-88.528,77.217,41.262
1747607361.24,0.111,0.128,-0.018,-0.495,0.173,-0.182,-88.678,89.186,53.110
1747607361.25,0.134,0.067,-0.028,-0.425,0.083,-0.135,-88.745,101.235,65.089
1747607361.26,0.144,-0.012,-0.042,-0.366,0.005,-0.089,-88.741,111.928,75.761
1747607361.27,0.126,-0.064,-0.024,-0.343,-0.069,-0.063,-88.690,120.727,84.577
1747607361.28,0.069,-0.086,0.011,-0.370,-0.170,-0.062,-88.604,128.600,92.521
1747607361.29,-0.001,-0.081,0.014,-0.415,-0.255,-0.088,-88.484,136.138,100.183
1747607361.30,-0.070,-0.057,0.016,-0.427,-0.298,-0.122,-88.338,143.268,107.476
1747607361.31,-0.122,-0.028,0.026,-0.431,-0.267,-0.161,-88.177,149.808,114.183
1747607361.32,-0.129,0.009,-0.027,-0.290,-0.216,-0.184,-88.034,155.296,119.813
1747607361.33,-0.085,0.017,-0.130,-0.128,-0.172,-0.161,-87.967,159.081,123.709
1747607361.34,-0.040,0.021,-0.121,-0.038,-0.152,-0.106,-87.948,161.463,126.186
1747607361.35,-0.001,0.058,-0.110,0.079,-0.069,-0.057,-87.973,162.516,127.304
1747607361.36,0.034,0.077,-0.146,0.146,0.101,-0.029,-88.044,162.608,127.390
1747607361.37,0.044,0.058,-0.100,0.125,0.281,-0.001,-88.124,162.291,126.959
1747607361.38,0.024,0.013,-0.032,0.054,0.286,0.030,-88.171,161.739,126.238
1747607361.39,-0.034,-0.026,-0.014,0.001,0.150,0.049,-88.176,161.027,125.398
1747607361.40,-0.086,-0.038,-0.015,-0.018,0.091,0.051,-88.162,160.275,124.583
1747607361.41,-0.094,-0.039,0.013,-0.038,0.171,0.041,-88.139,159.747,123.983
1747607361.42,-0.068,-0.039,0.071,-0.036,0.268,0.045,-88.109,159.435,123.544
1747607361.43,-0.039,-0.032,0.084,0.023,0.344,0.042,-88.096,158.944,122.876
1747607361.44,-0.028,-0.008,0.044,0.112,0.350,0.012,-88.125,158.257,121.987
1747607361.45,-0.031,0.033,-0.019,0.173,0.288,-0.025,-88.205,157.594,121.138
1747607361.46,-0.028,0.054,-0.063,0.182,0.145,-0.049,-88.308,157.067,120.487
1747607361.47,-0.018,0.043,-0.043,0.179,0.036,-0.056,-88.415,156.712,120.082
1747607361.48,0.012,0.011,0.011,0.184,-0.050,-0.043,-88.525,156.318,119.693
1747607361.49,0.047,-0.021,0.038,0.159,-0.104,-0.020,-88.625,155.550,118.969
1747607361.50,0.073,-0.039,0.104,0.112,-0.118,0.029,-88.692,154.242,117.723
1747607361.51,0.074,-0.044,0.133,0.084,-0.168,0.065,-88.725,152.074,115.633
1747607361.52,0.029,-0.032,0.102,0.076,-0.253,0.049,-88.745,149.716,113.394
1747607361.53,-0.021,-0.015,0.080,0.065,-0.299,-0.001,-88.775,148.140,111.979
1747607361.54,-0.031,-0.000,0.072,0.079,-0.308,-0.043,-88.820,147.434,111.446
1747607361.55,-0.014,0.004,0.052,0.111,-0.295,-0.059,-88.884,147.072,111.258
1747607361.56,0.009,0.017,0.022,0.144,-0.276,-0.045,-88.961,146.068,110.415
1747607361.57,0.010,0.036,0.008,0.150,-0.334,-0.016,-89.040,143.969,108.490
1747607361.58,-0.018,0.047,-0.020,0.167,-0.339,0.001,-89.113,140.520,105.235
1747607361.59,-0.056,0.042,-0.024,0.173,-0.309,0.011,-89.184,135.728,100.630
1747607361.60,-0.081,0.013,-0.024,0.156,-0.229,0.020,-89.243,130.053,95.109
1747607361.61,-0.081,-0.018,-0.008,0.148,-0.113,0.029,-89.283,123.954,89.108
1747607361.62,-0.063,-0.035,0.012,0.168,0.001,0.038,-89.312,116.765,81.949
1747607361.63,-0.040,-0.029,0.010,0.182,0.067,0.041,-89.329,108.192,73.353
1747607361.64,-0.024,-0.008,-0.000,0.211,0.078,0.045,-89.332,98.585,63.702
1747607361.65,-0.009,0.007,0.004,0.262,0.034,0.057,-89.308,87.062,52.145
1747607361.66,0.004,0.007,0.012,0.295,0.021,0.055,-89.252,74.964,40.033
1747607361.67,0.020,0.001,0.033,0.314,0.011,0.053,-89.161,63.991,29.049
1747607361.68,0.032,-0.011,0.022,0.340,-0.000,0.040,-89.042,54.653,19.708
1747607361.69,0.035,-0.016,0.016,0.376,-0.003,0.034,-88.894,46.575,11.628
1747607361.70,0.032,-0.006,0.029,0.389,-0.044,0.054,-88.719,40.123,5.187
1747607361.71,0.013,0.004,0.037,0.414,-0.119,0.089,-88.513,35.598,0.707
1747607361.72,-0.022,0.016,0.033,0.465,-0.208,0.097,-88.274,32.105,-2.694
1747607361.73,-0.055,0.022,0.030,0.513,-0.257,0.085,-88.006,28.959,-5.706
1747607361.74,-0.055,0.011,0.024,0.548,-0.248,0.075,-87.715,26.157,-8.365
1747607361.75,-0.037,-0.005,0.014,0.612,-0.192,0.059,-87.399,23.584,-10.813
1747607361.76,-0.033,-0.018,0.009,0.662,-0.140,0.060,-87.049,21.234,-13.072
1747607361.77,-0.031,-0.018,0.002,0.671,-0.061,0.091,-86.676,19.470,-14.776
1747607361.78,-0.032,-0.007,-0.007,0.684,0.107,0.108,-86.291,18.336,-15.924
1747607361.79,-0.046,0.011,0.009,0.666,0.271,0.117,-85.903,17.591,-16.784
1747607361.80,-0.058,0.029,0.030,0.657,0.281,0.132,-85.522,17.160,-17.379
1747607361.81,-0.065,0.031,0.019,0.660,0.175,0.150,-85.137,16.877,-17.794
1747607361.82,-0.062,0.014,0.004,0.639,0.098,0.172,-84.755,16.729,-18.018
1747607361.83,-0.044,-0.015,0.033,0.651,0.120,0.202,-84.373,16.757,-18.050
1747607361.84,-0.021,-0.044,0.065,0.694,0.155,0.240,-83.970,16.918,-17.969
1747607361.85,-0.011,-0.055,0.055,0.707,0.194,0.270,-83.543,17.223,-17.761
1747607361.86,0.007,-0.044,0.040,0.692,0.197,0.260,-83.116,17.556,-17.542
1747607361.87,0.039,-0.016,0.016,0.686,0.100,0.227,-82.700,17.755,-17.429
1747607361.88,0.059,0.015,-0.023,0.723,0.013,0.197,-82.282,17.727,-17.487
1747607361.89,0.056,0.029,-0.017,0.764,-0.029,0.182,-81.843,17.529,-17.680
1747607361.90,0.026,0.026,0.007,0.772,-0.042,0.181,-81.392,17.278,-17.912
1747607361.91,-0.012,0.014,0.036,0.781,-0.054,0.194,-80.937,17.065,-18.100
1747607361.92,-0.040,0.000,0.054,0.814,-0.065,0.219,-80.469,16.906,-18.226
1747607361.93,-0.048,-0.011,0.025,0.882,-0.043,0.251,-79.967,16.806,-18.296
1747607361.94,-0.041,-0.013,-0.014,0.930,0.001,0.252,-79.427,16.729,-18.361
1747607361.95,-0.033,-0.004,-0.009,0.880,0.061,0.225,-78.890,16.647,-18.499
1747607361.96,-0.020,-0.002,0.051,0.844,0.121,0.221,-78.383,16.606,-18.595
1747607361.97,-0.014,-0.009,0.039,0.869,0.118,0.242,-77.879,16.615,-18.743
1747607361.98,-0.019,-0.021,-0.037,0.915,0.050,0.266,-77.348,16.633,-18.773
1747607361.99,-0.019,-0.029,-0.072,0.921,0.088,0.279,-76.800,16.663,-18.861
1747607362.00,-0.009,-0.033,-0.004,0.902,0.261,0.301,-76.254,16.795,-18.827
1747607362.01,0.003,-0.032,0.089,0.910,0.349,0.340,-75.708,17.077,-18.809
1747607362.02,-0.029,-0.019,0.056,0.915,0.294,0.363,-75.147,17.409,-18.658
1747607362.03,-0.083,0.003,-0.043,0.826,0.243,0.363,-74.608,17.736,-18.563
1747607362.04,-0.082,0.005,-0.043,0.774,0.338,0.359,-74.113,18.094,-18.359
1747607362.05,-0.015,-0.023,0.003,0.788,0.509,0.375,-73.625,18.539,-18.224
1747607362.06,0.067,-0.052,0.035,0.829,0.511,0.386,-73.118,19.033,-18.023
1747607362.07,0.118,-0.045,0.010,0.820,0.353,0.394,-72.598,19.456,-17.928
1747607362.08,0.153,-0.013,0.006,0.758,0.212,0.398,-72.097,19.808,-17.724
1747607362.09,0.165,0.026,0.031,0.707,0.178,0.385,-71.628,20.126,-17.580
1747607362.10,0.119,0.041,0.030,0.746,0.167,0.329,-71.171,20.377,-17.422
1747607362.11,0.012,0.029,-0.040,0.817,0.012,0.269,-70.691,20.441,-17.491
1747607362.12,-0.097,0.001,-0.118,0.846,-0.115,0.233,-70.195,20.317,-17.585
1747607362.13,-0.129,-0.029,-0.122,0.879,-0.083,0.196,-69.690,20.105,-17.818
1747607362.14,-0.096,-0.050,-0.095,0.934,0.024,0.156,-69.169,19.871,-18.050
1747607362.15,-0.065,-0.048,-0.072,1.004,0.046,0.107,-68.621,19.594,-18.452
1747607362.16,-0.079,-0.022,-0.084,0.988,0.039,0.052,-68.065,19.239,-18.857
1747607362.17,-0.094,-0.002,-0.056,0.879,0.189,0.037,-67.552,18.925,-19.332
1747607362.18,-0.069,-0.009,0.033,0.803,0.376,0.097,-67.089,18.798,-19.720
1747607362.19,-0.042,-0.037,0.052,0.766,0.426,0.228,-66.635,18.894,-19.871
1747607362.20,-0.023,-0.064,0.047,0.724,0.340,0.381,-66.176,19.178,-19.883
1747607362.21,0.011,-0.068,0.033,0.712,0.254,0.462,-65.709,19.557,-19.652
1747607362.22,0.070,-0.049,0.007,0.729,0.212,0.471,-65.232,19.939,-19.450
1747607362.23,0.122,-0.032,-0.009,0.811,0.139,0.415,-64.733,20.231,-19.240
1747607362.24,0.122,-0.016,-0.070,0.913,0.037,0.335,-64.196,20.343,-19.247
1747607362.25,0.081,-0.005,-0.122,0.974,-0.010,0.234,-63.631,20.276,-19.328
1747607362.26,0.032,0.007,-0.119,0.968,-0.004,0.143,-63.071,20.089,-19.598
1747607362.27,-0.012,0.007,-0.070,0.922,0.032,0.111,-62.539,19.862,-19.859
1747607362.28,-0.043,-0.001,-0.015,0.848,0.126,0.127,-62.039,19.701,-20.166
1747607362.29,-0.068,-0.007,0.029,0.780,0.158,0.163,-61.577,19.642,-20.332
1747607362.30,-0.071,-0.031,0.036,0.745,0.157,0.207,-61.131,19.643,-20.496
1747607362.31,-0.005,-0.054,0.036,0.715,0.201,0.281,-60.692,19.730,-20.515
1747607362.32,0.109,-0.057,0.051,0.748,0.159,0.346,-60.243,19.890,-20.513
1747607362.33,0.183,-0.038,0.019,0.842,0.015,0.366,-59.746,20.008,-20.437
1747607362.34,0.200,-0.001,-0.032,0.920,-0.124,0.351,-59.201,20.005,-20.459
1747607362.35,0.157,0.027,-0.051,0.956,-0.160,0.293,-58.632,19.906,-20.477
1747607362.36,0.059,0.041,-0.046,0.895,-0.213,0.225,-58.081,19.733,-20.591
1747607362.37,-0.050,0.055,-0.022,0.805,-0.194,0.198,-57.584,19.532,-20.686
1747607362.38,-0.129,0.044,0.020,0.723,-0.086,0.208,-57.134,19.391,-20.757
1747607362.39,-0.162,0.013,0.042,0.648,-0.019,0.251,-56.723,19.353,-20.770
1747607362.40,-0.143,-0.024,0.031,0.601,-0.002,0.312,-56.334,19.398,-20.709
1747607362.41,-0.076,-0.053,0.033,0.596,-0.008,0.353,-55.949,19.496,-20.590
1747607362.42,0.005,-0.058,0.045,0.641,-0.043,0.353,-55.551,19.590,-20.461
1747607362.43,0.074,-0.031,0.050,0.748,-0.115,0.324,-55.114,19.623,-20.371
1747607362.44,0.101,0.017,0.007,0.898,-0.225,0.270,-54.612,19.532,-20.366
1747607362.45,0.075,0.079,-0.063,0.985,-0.259,0.192,-54.057,19.317,-20.460
1747607362.46,0.049,0.131,-0.094,1.026,-0.232,0.113,-53.486,19.027,-20.641
1747607362.47,0.001,0.135,-0.065,1.025,-0.168,0.069,-52.914,18.724,-20.879
1747607362.48,-0.051,0.103,-0.032,0.909,-0.070,0.063,-52.373,18.466,-21.115
1747607362.49,-0.075,0.030,0.034,0.739,0.051,0.106,-51.913,18.330,-21.284
1747607362.50,-0.069,-0.073,0.040,0.644,0.080,0.190,-51.515,18.315,-21.355
1747607362.51,-0.034,-0.156,0.009,0.604,0.058,0.291,-51.135,18.376,-21.326
1747607362.52,0.020,-0.184,0.044,0.599,0.084,0.367,-50.750,18.504,-21.211
1747607362.53,0.069,-0.143,0.085,0.668,0.064,0.344,-50.344,18.649,-21.083
1747607362.54,0.068,-0.048,0.045,0.747,-0.064,0.276,-49.904,18.700,-21.024
1747607362.55,0.043,0.054,-0.022,0.820,-0.200,0.216,-49.434,18.610,-21.041
1747607362.56,0.019,0.146,-0.026,0.902,-0.277,0.140,-48.935,18.402,-21.131
1747607362.57,-0.015,0.216,-0.025,0.954,-0.270,0.047,-48.412,18.115,-21.308
1747607362.58,-0.062,0.229,-0.004,0.940,-0.232,-0.010,-47.893,17.796,-21.546
1747607362.59,-0.092,0.176,0.025,0.877,-0.243,-0.021,-47.403,17.477,-21.795
1747607362.60,-0.089,0.086,0.005,0.789,-0.245,0.016,-46.949,17.179,-22.010
1747607362.61,-0.036,-0.006,0.013,0.744,-0.185,0.104,-46.523,16.952,-22.150
1747607362.62,0.032,-0.097,0.023,0.722,-0.121,0.194,-46.097,16.828,-22.204
1747607362.63,0.057,-0.137,0.042,0.718,-0.142,0.226,-45.667,16.752,-22.208
1747607362.64,0.058,-0.115,0.027,0.708,-0.143,0.233,-45.240,16.680,-22.194
1747607362.65,0.066,-0.050,0.022,0.732,-0.153,0.224,-44.810,16.605,-22.182
1747607362.66,0.055,0.029,0.021,0.814,-0.155,0.202,-44.353,16.508,-22.193
1747607362.67,0.035,0.096,0.022,0.863,-0.133,0.164,-43.862,16.391,-22.242
1747607362.68,0.018,0.130,0.004,0.833,-0.116,0.130,-43.372,16.267,-22.321
1747607362.69,-0.007,0.118,-0.022,0.774,-0.120,0.144,-42.910,16.149,-22.396
1747607362.70,-0.027,0.064,-0.022,0.725,-0.159,0.186,-42.471,16.043,-22.435
1747607362.71,-0.020,-0.006,-0.034,0.700,-0.175,0.236,-42.049,15.950,-22.430
1747607362.72,0.025,-0.081,-0.026,0.735,-0.179,0.261,-41.618,15.873,-22.394
1747607362.73,0.067,-0.128,0.006,0.766,-0.150,0.235,-41.165,15.797,-22.366
1747607362.74,0.071,-0.106,0.017,0.789,-0.157,0.189,-40.706,15.710,-22.372
1747607362.75,0.043,-0.071,0.004,0.805,-0.210,0.157,-40.239,15.578,-22.410
1747607362.76,0.013,-0.044,0.009,0.785,-0.198,0.162,-39.777,15.431,-22.456
1747607362.77,0.009,-0.006,0.014,0.785,-0.125,0.179,-39.320,15.317,-22.487
1747607362.78,0.009,0.014,-0.011,0.781,-0.061,0.182,-38.860,15.251,-22.510
1747607362.79,-0.025,0.039,-0.042,0.775,-0.065,0.148,-38.406,15.197,-22.542
1747607362.80,-0.078,0.016,-0.062,0.775,-0.109,0.144,-37.958,15.117,-22.589
1747607362.81,-0.093,0.002,-0.044,0.792,-0.131,0.153,-37.505,15.022,-22.632
1747607362.82,-0.098,0.014,-0.012,0.818,-0.125,0.133,-37.041,14.918,-22.679
1747607362.83,-0.093,0.018,-0.002,0.820,-0.122,0.113,-36.572,14.807,-22.743
1747607362.84,-0.045,0.029,0.037,0.852,-0.115,0.106,-36.096,14.695,-22.818
1747607362.85,-0.000,0.028,0.074,0.905,-0.113,0.083,-35.596,14.578,-22.908
1747607362.86,0.029,0.013,0.107,0.949,-0.101,0.066,-35.073,14.451,-23.022
1747607362.87,0.044,-0.002,0.060,0.954,-0.117,0.044,-34.537,14.317,-23.150
1747607362.88,0.051,-0.007,-0.012,0.885,-0.149,0.040,-34.019,14.164,-23.283
1747607362.89,0.050,-0.009,-0.059,0.782,-0.133,0.069,-33.552,14.021,-23.389
1747607362.90,0.041,0.006,-0.062,0.755,-0.142,0.131,-33.113,13.915,-23.446
1747607362.91,-0.019,0.048,-0.010,0.750,-0.142,0.157,-32.677,13.813,-23.476
1747607362.92,-0.064,0.065,0.045,0.752,-0.125,0.169,-32.239,13.731,-23.489
1747607362.93,-0.055,0.059,0.059,0.780,-0.116,0.199,-31.789,13.662,-23.489
1747607362.94,-0.019,0.060,0.056,0.829,-0.077,0.214,-31.316,13.610,-23.483
1747607362.95,0.038,0.062,0.026,0.866,-0.087,0.177,-30.818,13.563,-23.488
1747607362.96,0.075,0.070,0.008,0.932,-0.183,0.067,-30.301,13.455,-23.550
1747607362.97,0.080,0.016,0.029,0.931,-0.271,0.022,-29.774,13.263,-23.670
1747607362.98,0.071,-0.006,0.026,0.889,-0.276,0.049,-29.263,13.048,-23.782
1747607362.99,0.063,-0.004,-0.049,0.893,-0.224,0.052,-28.761,12.862,-23.877
1747607363.00,-0.001,-0.016,-0.077,0.878,-0.249,0.071,-28.260,12.681,-23.968
1747607363.01,-0.062,-0.025,-0.036,0.850,-0.210,0.139,-27.766,12.522,-24.026
1747607363.02,-0.061,-0.021,0.020,0.831,-0.119,0.208,-27.276,12.425,-24.032
1747607363.03,-0.056,0.030,0.050,0.850,-0.053,0.178,-26.784,12.378,-24.023
1747607363.04,-0.015,0.068,0.073,0.898,0.002,0.134,-26.279,12.357,-24.046
1747607363.05,0.052,0.072,0.059,0.967,-0.060,0.105,-25.744,12.321,-24.100
1747607363.06,0.075,0.052,0.030,1.000,-0.171,0.125,-25.177,12.227,-24.163
1747607363.07,0.061,0.033,0.019,0.985,-0.231,0.123,-24.605,12.086,-24.215
1747607363.08,0.068,-0.022,-0.017,0.966,-0.169,0.062,-24.050,11.941,-24.284
1747607363.09,0.065,-0.057,-0.050,0.961,-0.106,-0.006,-23.507,11.820,-24.394
1747607363.10,0.017,-0.060,-0.085,0.919,-0.085,-0.018,-22.982,11.716,-24.523
1747607363.11,-0.033,-0.089,-0.054,0.846,-0.078,0.035,-22.487,11.628,-24.631
1747607363.12,-0.056,-0.103,-0.017,0.808,-0.083,0.089,-22.019,11.558,-24.695
1747607363.13,-0.040,-0.062,-0.005,0.813,-0.107,0.116,-21.554,11.492,-24.731
1747607363.14,0.003,0.008,-0.006,0.823,-0.155,0.112,-21.083,11.407,-24.760
1747607363.15,0.052,0.057,0.001,0.839,-0.236,0.088,-20.608,11.282,-24.800
1747607363.16,0.094,0.062,0.009,0.869,-0.305,0.071,-20.121,11.107,-24.854
1747607363.17,0.103,0.033,0.011,0.888,-0.364,0.061,-19.619,10.892,-24.917
1747607363.18,0.070,-0.018,0.024,0.872,-0.321,0.074,-19.117,10.676,-24.975
1747607363.19,0.026,-0.077,0.028,0.867,-0.226,0.085,-18.621,10.502,-25.026
1747607363.20,-0.022,-0.119,0.015,0.875,-0.125,0.133,-18.119,10.392,-25.058
1747607363.21,-0.045,-0.139,-0.002,0.834,0.005,0.190,-17.621,10.356,-25.055
1747607363.22,-0.024,-0.128,-0.013,0.783,0.109,0.214,-17.145,10.403,-25.022
1747607363.23,-0.009,-0.065,-0.034,0.740,0.079,0.229,-16.694,10.471,-24.975
1747607363.24,-0.002,-0.010,-0.047,0.722,0.036,0.271,-16.258,10.523,-24.906
1747607363.25,-0.012,0.028,-0.004,0.755,0.001,0.253,-15.819,10.554,-24.831
1747607363.26,-0.012,0.047,0.001,0.837,-0.027,0.197,-15.348,10.559,-24.785
1747607363.27,-0.015,0.029,-0.023,0.885,-0.067,0.125,-14.846,10.530,-24.785
1747607363.28,-0.015,-0.020,-0.032,0.908,-0.065,0.057,-14.334,10.479,-24.830
1747607363.29,-0.008,-0.065,-0.017,0.937,-0.081,0.036,-13.810,10.424,-24.902
1747607363.30,-0.019,-0.082,-0.003,0.927,-0.127,0.042,-13.282,10.344,-24.981
1747607363.31,0.004,-0.099,-0.013,0.862,-0.142,0.086,-12.770,10.255,-25.038
1747607363.32,0.019,-0.058,-0.038,0.802,-0.191,0.128,-12.293,10.153,-25.063
1747607363.33,0.042,0.014,-0.076,0.755,-0.213,0.196,-11.838,10.042,-25.049
1747607363.34,0.063,0.026,-0.103,0.787,-0.165,0.159,-11.395,9.930,-25.011
1747607363.35,0.039,0.008,-0.096,0.718,-0.212,0.203,-10.956,9.819,-24.987
1747607363.36,0.051,0.016,-0.017,0.754,-0.185,0.213,-10.523,9.714,-24.936
1747607363.37,-0.011,0.026,0.028,0.787,-0.161,0.167,-10.070,9.619,-24.903
1747607363.38,-0.066,0.029,0.073,0.787,-0.102,0.199,-9.609,9.547,-24.876
1747607363.39,-0.082,0.043,0.072,0.785,-0.066,0.243,-9.146,9.509,-24.825
1747607363.39,-0.085,0.057,0.041,0.794,-0.051,0.261,-8.678,9.487,-24.755
1747607363.41,-0.054,0.057,-0.004,0.810,-0.056,0.219,-8.203,9.467,-24.691
1747607363.41,-0.022,0.036,-0.038,0.835,-0.099,0.172,-7.720,9.429,-24.658
1747607363.42,-0.001,0.008,-0.060,0.838,-0.118,0.118,-7.234,9.366,-24.655
1747607363.43,0.012,-0.018,-0.071,0.810,-0.138,0.057,-6.761,9.290,-24.684
1747607363.44,-0.007,-0.050,-0.077,0.772,-0.133,0.042,-6.312,9.205,-24.730
1747607363.45,-0.052,-0.071,-0.039,0.768,-0.115,0.065,-5.874,9.128,-24.770
1747607363.47,-0.094,-0.042,0.024,0.781,-0.055,0.085,-5.430,9.076,-24.796
1747607363.47,-0.085,0.023,0.047,0.822,-0.009,0.080,-4.972,9.056,-24.822
1747607363.48,-0.058,0.081,0.049,0.865,-0.012,0.052,-4.488,9.047,-24.859
1747607363.49,-0.038,0.106,0.032,0.881,0.006,0.003,-3.993,9.040,-24.922
1747607363.50,-0.030,0.099,-0.004,0.916,0.011,-0.043,-3.489,9.038,-25.016
1747607363.51,-0.047,0.058,-0.029,0.906,0.007,-0.046,-2.976,9.038,-25.123
1747607363.52,-0.083,0.010,-0.060,0.837,0.011,-0.036,-2.488,9.035,-25.210
1747607363.53,-0.075,-0.019,-0.071,0.840,0.032,-0.036,-2.016,9.047,-25.305
1747607363.54,-0.070,-0.104,-0.045,0.820,0.057,-0.030,-1.553,9.069,-25.374
1747607363.55,-0.038,-0.095,0.013,0.827,0.049,-0.029,-1.090,9.101,-25.464
1747607363.56,0.024,-0.050,0.009,0.814,-0.022,-0.029,-0.629,9.108,-25.519
1747607363.57,0.083,-0.005,-0.002,0.821,-0.103,-0.058,-0.175,9.070,-25.617
1747607363.58,0.131,0.047,0.019,0.864,-0.193,-0.055,0.295,8.987,-25.699
1747607363.59,0.121,0.081,0.024,0.863,-0.266,-0.031,0.781,8.853,-25.800
1747607363.60,0.069,0.068,0.006,0.856,-0.271,0.005,1.265,8.701,-25.853
1747607363.61,0.015,0.033,-0.003,0.870,-0.195,0.011,1.752,8.567,-25.921
1747607363.62,-0.035,0.007,0.008,0.889,-0.083,-0.005,2.251,8.489,-25.975
1747607363.63,-0.066,-0.029,0.002,0.848,0.027,-0.005,2.742,8.474,-26.053
1747607363.64,-0.068,-0.076,-0.036,0.824,0.085,0.026,3.215,8.513,-26.081
1747607363.65,-0.038,-0.095,-0.068,0.793,0.063,0.070,3.678,8.559,-26.123
1747607363.66,0.028,-0.062,-0.073,0.751,0.016,0.089,4.121,8.585,-26.098
1747607363.67,0.088,0.003,-0.066,0.761,-0.097,0.072,4.552,8.565,-26.117
1747607363.68,0.108,0.046,-0.053,0.778,-0.213,0.051,4.991,8.479,-26.100
1747607363.69,0.104,0.080,-0.030,0.773,-0.276,0.036,5.432,8.345,-26.139
1747607363.70,0.065,0.110,-0.017,0.792,-0.325,0.018,5.878,8.176,-26.153
1747607363.71,-0.007,0.096,-0.031,0.786,-0.269,0.017,6.327,8.008,-26.205
1747607363.72,-0.069,0.053,-0.037,0.768,-0.139,0.007,6.766,7.896,-26.220
1747607363.73,-0.117,0.016,-0.041,0.748,0.020,-0.006,7.196,7.872,-26.280
1747607363.74,-0.124,-0.027,-0.045,0.712,0.083,-0.022,7.610,7.909,-26.315
1747607363.75,-0.070,-0.059,-0.051,0.657,0.071,-0.043,7.990,7.968,-26.385
1747607363.76,0.024,-0.028,-0.058,0.682,-0.049,-0.043,8.368,7.987,-26.431
1747607363.77,0.117,-0.042,-0.061,0.678,-0.145,-0.061,8.750,7.941,-26.513
1747607363.78,0.157,0.028,-0.063,0.698,-0.259,-0.078,9.130,7.840,-26.580
1747607363.79,0.143,0.055,-0.088,0.696,-0.336,-0.047,9.522,7.683,-26.672
1747607363.80,0.079,0.060,-0.087,0.709,-0.296,-0.069,9.908,7.505,-26.715
1747607363.81,-0.022,0.050,-0.090,0.582,-0.261,0.045,10.268,7.350,-26.768
1747607363.82,-0.041,0.033,-0.048,0.564,-0.145,0.089,10.598,7.232,-26.738
1747607363.83,-0.080,-0.014,-0.059,0.525,-0.029,0.099,10.914,7.183,-26.722
1747607363.84,-0.038,-0.043,-0.032,0.491,-0.010,0.086,11.208,7.173,-26.667
1747607363.85,0.043,-0.056,-0.049,0.467,-0.080,0.075,11.485,7.147,-26.655
1747607363.86,0.124,-0.044,-0.067,0.470,-0.199,0.069,11.757,7.067,-26.628
1747607363.87,0.142,-0.007,-0.075,0.476,-0.309,0.081,12.029,6.916,-26.619
1747607363.88,0.085,0.024,-0.071,0.463,-0.322,0.087,12.303,6.728,-26.581
1747607363.89,0.001,0.037,-0.061,0.421,-0.253,0.089,12.559,6.557,-26.559
1747607363.90,-0.056,0.022,-0.074,0.412,-0.180,0.147,12.810,6.392,-26.486
1747607363.91,-0.097,-0.005,-0.043,0.363,-0.006,0.078,13.031,6.334,-26.446
1747607363.92,-0.092,0.052,0.003,0.367,0.041,0.054,13.244,6.344,-26.389
1747607363.93,-0.027,0.004,-0.060,0.350,-0.007,0.024,13.450,6.356,-26.390
1747607363.94,0.008,-0.037,-0.075,0.339,-0.051,-0.006,13.646,6.342,-26.362
1747607363.95,0.040,-0.055,-0.070,0.331,-0.074,-0.039,13.835,6.313,-26.396
1747607363.96,0.052,-0.045,-0.043,0.320,-0.073,-0.047,14.017,6.281,-26.401
1747607363.97,0.036,-0.027,-0.029,0.296,-0.044,-0.067,14.188,6.261,-26.454
1747607363.98,-0.017,0.005,-0.040,0.260,0.000,-0.024,14.345,6.259,-26.458
1747607363.99,-0.014,-0.041,-0.046,0.228,0.027,0.016,14.483,6.274,-26.475
1747607364.00,-0.001,0.003,-0.060,0.194,-0.012,0.033,14.604,6.279,-26.433
1747607364.01,0.012,0.018,-0.066,0.179,-0.059,0.031,14.712,6.256,-26.382
1747607364.02,0.027,-0.009,-0.041,0.169,-0.075,0.024,14.812,6.216,-26.378
1747607364.03,0.036,-0.048,-0.029,0.175,-0.034,0.028,14.912,6.183,-26.316
1747607364.04,0.039,-0.064,-0.011,0.156,0.010,0.043,15.009,6.174,-26.306
1747607364.05,0.015,-0.064,-0.007,0.136,0.018,0.077,15.095,6.175,-26.228
1747607364.06,-0.005,-0.054,-0.021,0.118,0.028,0.100,15.173,6.177,-26.183
1747607364.07,-0.004,-0.020,-0.031,0.095,0.029,0.093,15.241,6.178,-26.085
1747607364.08,0.008,0.000,-0.046,0.077,0.006,0.087,15.293,6.178,-26.038
1747607364.09,0.006,-0.008,-0.066,0.074,-0.059,0.089,15.337,6.150,-25.954
1747607364.10,0.009,-0.018,-0.061,0.071,-0.102,0.077,15.383,6.093,-25.909
1747607364.11,0.010,-0.020,-0.026,0.080,-0.101,0.056,15.432,6.028,-25.843
1747607364.12,-0.019,-0.020,0.006,0.103,-0.055,0.030,15.491,5.981,-25.825
1747607364.13,-0.045,-0.018,0.020,0.119,0.021,0.012,15.562,5.972,-25.785
1747607364.14,-0.056,-0.016,0.025,0.101,0.071,-0.009,15.630,6.001,-25.791
1747607364.15,-0.062,-0.015,0.011,0.101,0.098,-0.020,15.685,6.053,-25.777
1747607364.16,-0.048,-0.014,-0.002,0.114,0.091,-0.019,15.741,6.114,-25.795
1747607364.17,-0.005,0.008,-0.009,0.122,0.037,-0.037,15.802,6.157,-25.779
1747607364.18,0.026,0.027,-0.031,0.120,-0.035,-0.048,15.866,6.167,-25.812
1747607364.19,0.011,-0.007,-0.034,0.109,-0.081,-0.051,15.929,6.144,-25.817
1747607364.20,-0.003,-0.031,-0.016,0.106,-0.084,-0.047,15.991,6.098,-25.851
1747607364.21,0.004,-0.019,0.008,0.113,-0.048,-0.047,16.054,6.054,-25.851
1747607364.22,-0.004,-0.003,0.019,0.126,-0.008,-0.042,16.125,6.028,-25.880
1747607364.23,-0.022,0.001,0.017,0.122,0.024,-0.024,16.198,6.021,-25.859
1747607364.24,-0.008,-0.002,0.005,0.107,0.014,-0.005,16.264,6.020,-25.870
1747607364.25,0.021,-0.001,-0.017,0.113,-0.006,0.009,16.319,6.022,-25.831
1747607364.26,0.027,-0.005,-0.018,0.111,-0.010,0.007,16.370,6.026,-25.835
1747607364.27,0.019,-0.022,-0.008,0.101,-0.007,0.010,16.427,6.025,-25.791
1747607364.28,0.013,-0.040,-0.011,0.096,0.009,0.011,16.489,6.024,-25.790
1747607364.29,0.003,-0.040,-0.018,0.092,0.027,0.025,16.547,6.036,-25.741
1747607364.30,-0.002,-0.025,-0.024,0.083,0.020,0.038,16.599,6.045,-25.728
1747607364.31,0.000,-0.005,-0.022,0.085,-0.003,0.039,16.648,6.035,-25.665
1747607364.32,0.013,0.008,-0.022,0.081,-0.032,0.038,16.697,6.018,-25.646
1747607364.33,0.015,0.015,-0.026,0.079,-0.067,0.030,16.738,5.992,-25.593
1747607364.34,0.014,0.006,-0.015,0.091,-0.066,0.026,16.786,5.961,-25.586
1747607364.35,0.013,-0.011,0.002,0.091,-0.034,0.017,16.845,5.941,-25.536
1747607364.36,-0.000,-0.021,-0.015,0.083,0.004,0.014,16.910,5.939,-25.535
1747607364.37,-0.016,-0.027,-0.033,0.073,0.019,0.011,16.965,5.946,-25.490
1747607364.38,-0.022,-0.026,-0.046,0.063,0.029,0.012,17.007,5.958,-25.486
1747607364.39,-0.013,-0.008,-0.048,0.062,0.012,0.007,17.042,5.969,-25.451
1747607364.40,-0.003,0.009,-0.038,0.062,-0.009,-0.002,17.073,5.974,-25.455
1747607364.41,0.011,0.015,-0.023,0.056,-0.049,-0.007,17.101,5.964,-25.437
1747607364.42,0.020,0.011,-0.013,0.048,-0.070,-0.014,17.126,5.934,-25.447
1747607364.43,0.022,0.005,-0.007,0.046,-0.075,-0.012,17.153,5.899,-25.422
1747607364.44,0.029,-0.004,-0.018,0.035,-0.076,-0.005,17.177,5.858,-25.430
1747607364.45,0.025,-0.016,-0.030,0.035,-0.063,0.015,17.199,5.813,-25.393
1747607364.46,0.024,-0.018,-0.024,0.022,-0.030,0.030,17.219,5.777,-25.379
1747607364.47,0.028,-0.014,-0.014,0.011,0.002,0.055,17.229,5.759,-25.328
1747607364.48,0.015,-0.012,-0.018,0.010,0.009,0.073,17.234,5.750,-25.290
1747607364.49,0.010,-0.008,-0.023,0.006,0.015,0.083,17.239,5.746,-25.213
1747607364.50,0.037,0.003,-0.020,0.004,0.015,0.087,17.243,5.744,-25.165
1747607364.51,0.053,0.004,-0.017,0.002,0.017,0.082,17.248,5.744,-25.078
1747607364.52,0.041,0.001,-0.012,0.003,0.009,0.081,17.254,5.741,-25.031
1747607364.53,0.013,-0.005,-0.010,0.002,0.016,0.082,17.261,5.737,-24.948
1747607364.54,0.004,0.003,-0.008,-0.002,0.042,0.083,17.268,5.745,-24.901
1747607364.55,0.007,-0.001,-0.016,-0.008,0.051,0.092,17.272,5.764,-24.814
1747607364.56,0.002,-0.009,-0.031,-0.017,0.046,0.105,17.273,5.779,-24.756
1747607364.57,0.010,-0.014,-0.037,-0.019,0.024,0.122,17.268,5.780,-24.652
1747607364.58,0.021,-0.008,-0.040,-0.020,-0.007,0.108,17.262,5.769,-24.584
1747607364.59,0.029,0.010,-0.019,0.003,-0.007,0.075,17.260,5.759,-24.502
1747607364.60,0.025,0.027,0.014,0.023,0.002,0.050,17.269,5.758,-24.469
1747607364.61,-0.004,0.028,0.022,0.043,-0.006,0.042,17.291,5.754,-24.418
1747607364.62,-0.021,0.024,0.006,0.064,0.004,0.030,17.321,5.748,-24.399
1747607364.63,-0.015,0.038,-0.011,0.060,-0.008,0.009,17.356,5.749,-24.365
1747607364.64,-0.027,0.028,-0.034,0.055,-0.035,-0.003,17.386,5.736,-24.367
1747607364.65,-0.042,0.003,-0.035,0.067,-0.050,-0.033,17.419,5.719,-24.352
1747607364.66,-0.028,0.004,-0.024,0.074,-0.060,-0.064,17.454,5.703,-24.387
1747607364.67,-0.013,0.005,-0.018,0.080,-0.055,-0.081,17.485,5.696,-24.412
1747607364.68,-0.008,-0.003,-0.004,0.072,-0.056,-0.096,17.512,5.695,-24.474
1747607364.69,0.010,0.004,-0.016,0.044,-0.058,-0.094,17.529,5.681,-24.511
1747607364.70,0.020,0.011,-0.036,0.041,-0.030,-0.083,17.537,5.663,-24.563
1747607364.71,0.001,-0.008,-0.043,0.008,-0.010,-0.080,17.534,5.662,-24.588
1747607364.72,0.004,-0.022,-0.075,-0.051,0.007,-0.077,17.507,5.666,-24.632
1747607364.73,0.019,-0.046,-0.102,-0.104,0.012,-0.050,17.457,5.671,-24.628
1747607364.74,0.024,-0.075,-0.082,-0.160,0.042,-0.020,17.379,5.684,-24.640
1747607364.75,0.039,-0.096,-0.069,-0.230,0.091,-0.023,17.267,5.721,-24.613
1747607364.76,0.070,-0.103,-0.080,-0.294,0.142,-0.034,17.117,5.786,-24.614
1747607364.77,0.082,-0.109,-0.087,-0.369,0.195,-0.029,16.927,5.882,-24.590
1747607364.78,0.061,-0.123,-0.099,-0.453,0.283,-0.000,16.692,6.014,-24.574
1747607364.79,0.050,-0.106,-0.119,-0.539,0.343,0.040,16.411,6.183,-24.495
1747607364.80,0.034,-0.062,-0.173,-0.608,0.361,0.092,16.090,6.362,-24.420
1747607364.81,0.017,-0.036,-0.188,-0.683,0.369,0.140,15.732,6.540,-24.280
1747607364.82,0.023,-0.030,-0.155,-0.767,0.366,0.173,15.332,6.714,-24.137
1747607364.83,0.037,-0.047,-0.134,-0.834,0.344,0.184,14.889,6.876,-23.940
1747607364.84,0.035,-0.080,-0.108,-0.871,0.314,0.176,14.417,7.021,-23.773
1747607364.85,0.020,-0.095,-0.074,-0.909,0.313,0.148,13.925,7.160,-23.581
1747607364.86,0.005,-0.098,-0.055,-0.956,0.295,0.108,13.405,7.300,-23.438
1747607364.87,-0.013,-0.096,-0.082,-0.986,0.282,0.089,12.862,7.435,-23.270
1747607364.88,-0.034,-0.079,-0.116,-1.015,0.303,0.080,12.302,7.573,-23.145
1747607364.89,-0.067,-0.053,-0.101,-1.048,0.332,0.065,11.724,7.730,-22.984
1747607364.90,-0.094,-0.038,-0.113,-1.091,0.349,0.054,11.123,7.901,-22.864
1747607364.91,-0.106,-0.052,-0.127,-1.115,0.330,0.030,10.503,8.076,-22.707
1747607364.92,-0.108,-0.077,-0.106,-1.173,0.296,0.003,9.859,8.237,-22.604
1747607364.93,-0.072,-0.103,-0.091,-1.216,0.280,-0.039,9.182,8.384,-22.473
1747607364.94,-0.005,-0.103,-0.091,-1.201,0.289,-0.096,8.490,8.538,-22.379
1747607364.95,0.031,-0.072,-0.074,-1.164,0.295,-0.152,7.812,8.701,-22.349
1747607364.96,0.022,-0.034,-0.041,-1.147,0.281,-0.197,7.147,8.867,-22.325
1747607364.97,0.008,-0.021,-0.047,-1.189,0.227,-0.221,6.470,9.016,-22.341
1747607364.98,-0.006,-0.026,-0.058,-1.219,0.163,-0.219,5.770,9.128,-22.351
1747607364.99,-0.006,-0.033,-0.036,-1.244,0.176,-0.193,5.057,9.222,-22.356
1747607365.00,0.027,-0.030,-0.024,-1.277,0.211,-0.145,4.331,9.332,-22.324
1747607365.01,0.058,-0.015,-0.055,-1.343,0.224,-0.089,3.583,9.451,-22.268
1747607365.02,0.082,-0.003,-0.049,-1.377,0.297,-0.026,2.811,9.592,-22.159
1747607365.03,0.107,-0.003,-0.033,-1.376,0.389,0.007,2.034,9.784,-22.029
1747607365.04,0.103,-0.011,-0.048,-1.334,0.451,-0.005,1.273,10.020,-21.890
1747607365.05,0.082,-0.024,-0.039,-1.381,0.496,-0.019,0.511,10.289,-21.760
1747607365.06,0.048,-0.040,-0.012,-1.404,0.518,-0.047,-0.277,10.579,-21.634
1747607365.07,-0.001,-0.051,-0.035,-1.422,0.501,-0.067,-1.075,10.873,-21.517
1747607365.08,-0.036,-0.051,-0.064,-1.475,0.458,-0.068,-1.895,11.152,-21.390
1747607365.09,-0.038,-0.023,-0.097,-1.538,0.392,-0.056,-2.745,11.401,-21.257
1747607365.10,-0.012,0.027,-0.102,-1.584,0.340,-0.021,-3.626,11.616,-21.098
1747607365.11,0.036,0.068,-0.071,-1.601,0.327,0.015,-4.518,11.823,-20.913
1747607365.12,0.072,0.098,-0.044,-1.602,0.272,0.002,-5.413,12.010,-20.714
1747607365.13,0.051,0.108,0.009,-1.583,0.252,-0.057,-6.305,12.176,-20.537
1747607365.14,0.014,0.079,0.066,-1.573,0.289,-0.114,-7.198,12.347,-20.397
1747607365.15,-0.009,0.003,0.020,-1.537,0.339,-0.142,-8.080,12.541,-20.277
1747607365.16,-0.017,-0.086,-0.058,-1.526,0.378,-0.122,-8.948,12.764,-20.155
1747607365.17,-0.026,-0.145,-0.061,-1.563,0.433,-0.111,-9.823,13.017,-20.020
1747607365.18,-0.049,-0.161,-0.028,-1.559,0.444,-0.120,-10.707,13.295,-19.880
1747607365.19,-0.086,-0.142,-0.006,-1.573,0.406,-0.155,-11.594,13.563,-19.745
1747607365.20,-0.122,-0.102,0.044,-1.583,0.427,-0.213,-12.496,13.822,-19.640
1747607365.21,-0.114,-0.057,0.044,-1.579,0.452,-0.260,-13.404,14.094,-19.552
1747607365.22,-0.075,-0.022,0.006,-1.567,0.453,-0.283,-14.314,14.369,-19.490
1747607365.23,-0.024,-0.003,0.006,-1.544,0.460,-0.289,-15.215,14.647,-19.423
1747607365.24,0.031,0.004,-0.005,-1.550,0.444,-0.280,-16.110,14.926,-19.374
1747607365.25,0.044,-0.002,-0.025,-1.553,0.386,-0.269,-17.008,15.188,-19.291
1747607365.26,0.034,-0.016,-0.000,-1.544,0.385,-0.271,-17.901,15.433,-19.220
1747607365.27,0.030,-0.040,0.024,-1.555,0.397,-0.280,-18.795,15.686,-19.130
1747607365.28,0.023,-0.069,0.024,-1.540,0.407,-0.286,-19.691,15.946,-19.070
1747607365.29,0.015,-0.091,0.022,-1.512,0.401,-0.281,-20.571,16.209,-18.978
1747607365.30,0.014,-0.099,0.042,-1.512,0.393,-0.276,-21.444,16.470,-18.910
1747607365.31,0.028,-0.100,0.041,-1.551,0.358,-0.275,-22.327,16.727,-18.805
1747607365.32,0.037,-0.086,0.012,-1.556,0.319,-0.266,-23.223,16.963,-18.718
1747607365.33,0.038,-0.070,0.029,-1.516,0.337,-0.258,-24.105,17.198,-18.594
1747607365.34,0.053,-0.054,0.047,-1.517,0.356,-0.242,-24.972,17.454,-18.492
1747607365.35,0.062,-0.042,0.003,-1.517,0.320,-0.226,-25.841,17.712,-18.341
1747607365.36,0.062,-0.028,-0.040,-1.494,0.273,-0.224,-26.698,17.951,-18.207
1747607365.37,0.052,-0.013,-0.039,-1.502,0.194,-0.246,-27.553,18.155,-18.053
1747607365.38,0.024,-0.012,-0.042,-1.497,0.087,-0.270,-28.413,18.305,-17.938
1747607365.39,-0.020,-0.018,-0.006,-1.494,0.058,-0.294,-29.274,18.405,-17.807
1747607365.40,-0.053,-0.036,0.046,-1.490,0.082,-0.313,-30.138,18.507,-17.717
1747607365.41,-0.082,-0.058,0.040,-1.492,0.049,-0.343,-31.002,18.602,-17.610
1747607365.42,-0.103,-0.079,-0.007,-1.521,0.012,-0.352,-31.882,18.671,-17.559
1747607365.43,-0.095,-0.100,-0.037,-1.510,-0.056,-0.329,-32.765,18.718,-17.448
1747607365.44,-0.054,-0.108,-0.023,-1.534,-0.075,-0.313,-33.645,18.745,-17.366
1747607365.45,0.002,-0.113,0.023,-1.547,-0.048,-0.316,-34.539,18.787,-17.227
1747607365.46,0.041,-0.105,0.004,-1.506,-0.019,-0.338,-35.424,18.841,-17.148
