Time,AccX,AccY,AccZ,GyroX,GyroY,GyroZ,MagX,MagY,MagZ,Pitch,Roll,Yaw
1743395397.73,0.053,-0.008,-0.000,-0.359,-0.098,-0.136,16.036,3.312,-59.932,-2.699,-2.640,-0.153
1743395397.75,0.065,0.008,-0.058,-0.196,-0.178,-0.064,15.889,3.794,-59.748,-3.031,-2.810,-0.284
1743395397.77,0.095,0.009,-0.047,0.184,0.063,0.123,15.791,4.119,-59.857,-3.053,-2.924,-0.275
1743395397.79,0.145,0.104,0.017,0.470,0.281,0.176,15.700,3.709,-59.815,-2.664,-2.639,-0.054
1743395397.81,0.037,0.142,0.066,0.498,-0.213,0.203,15.742,3.138,-59.914,-2.108,-2.585,0.163
1743395397.83,0.005,0.045,0.048,0.576,-0.323,0.526,15.636,2.549,-59.804,-1.533,-2.937,0.592
1743395397.85,0.008,0.013,-0.001,0.759,0.358,0.829,15.372,1.560,-59.952,-0.808,-2.950,1.426
1743395397.87,0.002,0.070,-0.039,0.739,0.907,0.868,15.603,0.401,-60.077,0.030,-2.162,2.449
1743395397.89,-0.012,0.046,-0.082,0.439,0.799,0.868,16.570,-0.620,-59.567,0.695,-1.162,3.452
1743395397.91,-0.066,-0.053,0.003,-0.018,1.089,1.087,17.271,-1.492,-59.515,0.918,-0.160,4.554
1743395397.93,-0.066,0.052,0.039,-0.350,1.436,1.346,18.370,-2.006,-59.119,0.716,1.291,5.926
1743395397.95,0.010,0.055,-0.061,-0.645,1.695,1.798,19.786,-2.150,-58.544,0.210,3.016,7.730
1743395397.97,0.272,-0.156,-0.016,-0.849,2.452,2.204,21.439,-2.335,-57.715,-0.484,5.390,10.084
1743395397.99,0.171,-0.090,0.007,-0.821,2.295,2.389,23.853,-2.360,-56.711,-1.136,8.216,12.820
1743395398.01,0.014,0.047,-0.007,-0.640,1.957,2.410,25.993,-2.566,-55.354,-1.510,10.709,15.675
1743395398.03,0.070,0.121,0.047,-0.876,1.902,2.108,28.075,-3.362,-54.304,-1.765,12.908,18.384
1743395398.05,-0.007,0.093,0.194,-1.634,2.936,1.863,29.530,-3.941,-53.396,-2.553,15.678,20.954
1743395398.07,-0.174,0.091,0.155,-2.387,3.826,1.042,31.959,-3.338,-51.716,-4.278,19.756,23.297
1743395398.09,-0.369,0.105,0.122,-2.025,2.025,0.154,35.312,-2.234,-49.133,-6.533,23.872,24.907
1743395398.11,-0.293,0.313,0.539,-1.571,-0.307,0.487,37.642,-0.289,-47.210,-8.022,24.105,25.903
1743395398.13,0.079,0.295,0.492,-2.885,-0.186,1.023,37.454,0.946,-47.225,-10.024,24.340,27.746
1743395398.15,-0.041,0.409,0.467,-3.605,0.114,1.323,37.314,2.331,-47.491,-12.859,24.710,30.625
1743395398.17,-0.074,0.361,0.185,-3.753,0.786,1.151,37.421,4.686,-47.213,-16.096,26.097,33.836
1743395398.19,-0.248,0.208,-0.020,-3.411,0.649,0.922,37.894,7.020,-46.390,-19.231,27.822,36.955
1743395398.21,-0.374,0.271,0.086,-3.099,1.385,0.098,38.500,9.296,-45.326,-22.140,29.798,39.386
1743395398.23,0.006,0.312,0.129,-3.688,2.256,-0.270,39.534,11.773,-43.721,-25.497,32.697,41.400
1743395398.25,0.344,0.297,-0.144,-4.027,2.992,-0.172,40.913,15.051,-41.207,-29.349,36.941,44.026
1743395398.27,0.468,0.225,-0.479,-3.626,2.730,0.220,42.702,18.493,-37.252,-32.733,42.066,47.280
1743395398.29,0.393,-0.024,-0.688,-2.753,1.751,0.851,44.708,20.763,-33.226,-34.924,46.574,50.961
1743395398.31,0.083,-0.077,-0.556,-1.943,2.002,0.500,45.959,22.270,-30.249,-36.032,50.420,54.032
1743395398.33,0.310,-0.068,-0.411,-2.119,2.483,0.184,47.329,23.020,-27.528,-37.157,54.468,56.526
1743395398.35,0.699,-0.080,-0.476,-2.181,2.693,0.706,48.796,23.811,-23.941,-38.157,59.261,59.461
1743395398.37,0.768,-0.114,-0.505,-1.973,2.734,1.586,50.009,24.377,-20.360,-38.121,64.502,62.916
1743395398.39,0.445,-0.218,-0.529,-1.531,2.627,1.992,51.581,23.688,-16.742,-36.959,69.630,66.305
1743395398.41,0.048,-0.184,-0.407,-1.196,2.533,1.701,53.193,22.283,-13.362,-35.390,74.148,68.906
1743395398.43,-0.084,-0.221,-0.316,-1.335,1.554,1.417,54.352,20.481,-10.038,-34.040,77.792,71.105
1743395398.45,-0.106,-0.275,-0.483,-0.986,0.799,1.385,55.293,19.093,-7.750,-32.726,80.169,73.178
1743395398.47,-0.224,-0.297,-0.615,0.262,1.162,0.971,55.934,17.723,-6.191,-31.448,81.655,73.887
1743395398.49,-0.192,-0.251,-0.380,0.716,1.405,0.859,56.418,16.563,-4.971,-30.357,82.834,73.316
1743395398.51,-0.352,-0.076,-0.080,0.546,1.034,0.558,56.826,15.306,-3.387,-29.449,83.924,72.589
1743395398.53,-0.413,-0.146,-0.122,0.945,0.672,0.430,57.342,14.575,-2.423,-28.833,84.497,71.785
1743395398.55,-0.424,-0.153,0.055,0.562,-0.126,-0.120,57.304,13.928,-1.798,-28.505,84.248,70.563
1743395398.57,-0.339,0.044,0.363,-0.967,-0.702,-0.568,57.291,13.945,-1.634,-28.998,83.985,70.918
1743395398.59,-0.072,-0.134,-0.116,-0.508,-1.148,-0.411,57.234,14.351,-1.870,-29.676,83.386,71.963
1743395398.61,-0.006,-0.037,-0.088,0.135,-1.078,-0.526,57.165,15.004,-3.292,-30.187,82.110,72.034
1743395398.63,0.085,0.052,0.159,-0.102,-0.712,-0.721,57.041,15.555,-4.343,-30.895,81.005,71.837
1743395398.65,0.095,0.063,0.156,-0.294,-1.026,-0.762,56.912,16.297,-5.485,-31.784,80.163,71.975
1743395398.67,-0.124,0.131,0.126,-0.162,-1.123,-0.723,56.540,17.062,-6.333,-32.668,78.815,72.113
1743395398.69,0.014,0.248,-0.067,-0.285,-0.883,-0.751,56.261,18.179,-7.697,-33.523,77.601,72.175
1743395398.71,0.172,0.369,-0.080,-0.770,-0.457,-0.739,55.954,18.816,-8.719,-34.483,77.100,72.660
1743395398.73,0.024,0.329,0.092,-1.264,0.078,-0.808,55.379,19.696,-9.317,-35.583,77.672,73.773
1743395398.75,-0.050,0.283,-0.113,-1.428,-0.159,-0.910,55.218,20.731,-8.965,-36.877,78.638,75.484
1743395398.77,-0.008,0.211,-0.074,-1.098,-0.283,-0.967,54.795,21.942,-8.489,-38.228,79.292,77.002
1743395398.79,-0.015,-0.047,0.019,-1.127,-0.138,-1.252,54.347,23.158,-8.242,-39.678,79.756,78.275
1743395398.81,0.005,-0.098,0.078,-1.200,0.637,-1.300,53.787,24.675,-8.022,-41.290,80.978,79.673
1743395398.83,0.056,0.085,-0.075,-1.071,0.290,-1.561,53.412,26.020,-7.160,-43.136,82.604,81.161
1743395398.85,0.075,0.148,-0.152,-0.550,-0.451,-1.568,52.602,27.784,-5.791,-45.013,83.191,82.144
1743395398.87,0.061,0.062,-0.064,-0.275,-0.790,-1.774,51.959,29.624,-5.450,-46.964,82.597,82.409
1743395398.89,0.059,0.015,0.037,-0.478,-0.581,-1.463,50.895,31.557,-5.926,-48.893,81.929,82.618
1743395398.91,-0.109,0.105,0.118,-0.811,-0.249,-0.930,49.901,33.258,-6.473,-50.338,82.117,83.483
1743395398.93,-0.197,0.157,0.143,-0.788,0.371,-0.627,49.041,34.663,-6.328,-51.324,83.180,84.795
1743395398.95,-0.139,0.098,0.045,-0.453,0.682,-0.678,48.649,35.516,-5.711,-52.095,84.654,85.832
1743395398.97,-0.066,0.080,-0.037,-0.156,0.521,-1.027,48.303,36.075,-4.832,-53.102,85.666,86.241
1743395398.99,-0.002,-0.025,-0.063,0.002,0.283,-1.074,47.702,36.901,-4.011,-54.334,86.135,86.236
1743395399.01,0.067,-0.113,-0.052,0.090,0.255,-0.776,46.748,38.080,-3.376,-55.411,86.213,86.002
1743395399.03,0.092,-0.113,-0.003,0.071,0.383,-0.325,46.152,39.049,-3.186,-56.030,86.372,85.746
1743395399.05,0.046,-0.061,0.020,0.011,0.363,0.015,45.708,39.663,-2.790,-56.194,86.762,85.674
1743395399.07,-0.135,-0.401,0.093,-0.180,0.650,-0.239,45.717,40.169,-2.121,-56.456,87.275,85.721
1743395399.09,-0.040,-0.269,0.071,-0.631,0.878,-0.280,45.500,40.235,-1.143,-56.719,88.855,86.529
1743395399.11,0.023,-0.170,-0.065,-0.817,0.185,-0.531,45.076,40.770,0.189,-57.190,90.897,88.120
1743395399.13,0.086,-0.195,-0.239,-0.614,-0.736,-0.633,44.604,41.065,0.447,-57.847,91.919,89.751
1743395399.15,0.115,-0.148,-0.125,0.012,-0.809,-0.616,43.973,41.829,-0.082,-58.566,91.533,90.485
1743395399.17,0.070,-0.100,0.159,0.676,-0.137,-1.056,43.573,42.485,-0.644,-59.396,90.376,89.738
1743395399.19,0.088,-0.199,0.155,0.725,0.472,-1.916,42.449,43.765,-1.150,-61.129,89.009,87.958
1743395399.21,0.057,-0.384,0.111,0.058,1.342,-2.102,40.617,45.422,-0.541,-63.534,88.872,86.684
1743395399.23,-0.043,-0.274,0.127,-1.921,1.617,-2.875,38.720,47.487,1.370,-66.142,92.900,89.149
1743395399.25,-0.152,-0.454,0.124,-2.777,0.715,-3.306,35.923,49.946,4.694,-69.355,102.280,97.753
1743395399.27,-0.204,-0.506,0.005,-2.898,-0.542,-3.600,32.733,51.993,7.343,-72.099,114.896,110.998
1743395399.29,-0.238,-0.463,0.045,-2.544,-1.076,-3.427,29.297,53.859,9.720,-73.831,129.810,127.741
1743395399.31,-0.010,0.386,0.113,-0.760,-0.704,-2.071,26.490,55.401,11.178,-74.668,142.170,141.548
1743395399.33,0.162,1.535,0.213,1.334,-1.429,0.006,25.571,55.845,10.593,-75.713,143.485,144.170
1743395399.35,0.086,1.724,0.264,1.444,-1.737,1.023,26.115,56.025,8.401,-76.575,134.581,136.977
1743395399.37,-0.155,0.413,-0.092,-1.271,-0.147,0.384,26.940,55.743,7.320,-76.002,130.681,134.085
1743395399.39,-0.174,-0.188,-0.171,-1.867,0.595,-0.424,27.136,55.499,8.854,-74.622,136.655,139.909
1743395399.41,-0.058,-0.363,-0.299,-0.914,-0.100,-0.846,26.236,55.481,10.779,-73.885,143.115,146.165
1743395399.43,0.057,-0.185,-0.270,0.256,-1.416,-0.351,25.908,55.879,10.849,-74.025,144.869,148.956
1743395399.45,0.070,0.086,-0.027,0.603,-1.473,-0.201,25.911,55.888,9.654,-74.654,142.650,148.495
1743395399.47,0.016,0.081,0.100,0.102,-0.299,-0.139,25.745,56.009,8.525,-75.117,141.184,148.141
1743395399.49,-0.010,0.122,0.051,-0.082,0.807,0.007,25.592,56.370,8.616,-75.149,141.831,148.379
1743395399.50,-0.143,0.102,-0.156,0.030,0.714,0.201,25.846,56.289,9.069,-75.016,142.479,148.094
1743395399.52,-0.164,0.039,-0.161,0.332,0.616,0.009,25.676,56.333,9.365,-75.097,142.335,147.187
1743395399.54,-0.076,0.013,-0.062,0.594,0.838,-0.093,25.401,56.179,9.409,-75.558,142.110,146.138
1743395399.56,0.021,-0.031,0.024,0.845,1.365,-0.022,25.312,56.393,9.123,-76.258,141.523,144.219
1743395399.58,0.044,0.010,-0.028,0.654,1.090,0.049,25.151,56.524,8.892,-76.947,140.591,141.730
1743395399.60,0.025,-0.019,-0.036,0.362,0.336,0.120,25.348,56.531,8.928,-77.315,139.481,139.743
1743395399.62,0.023,-0.008,-0.000,0.272,-0.329,0.086,25.189,56.607,8.891,-77.490,138.005,138.258
1743395399.64,0.054,-0.020,0.047,0.325,-0.570,0.026,25.211,56.594,8.121,-77.690,136.224,137.010
1743395399.66,0.116,-0.031,0.115,0.488,-0.264,0.017,25.518,56.723,7.469,-78.001,134.127,135.395
1743395399.68,0.176,-0.008,0.156,0.649,0.243,0.015,25.433,56.536,6.707,-78.431,131.740,132.960
1743395399.70,0.201,0.016,0.168,0.644,0.598,-0.006,25.478,56.824,6.260,-78.925,129.344,130.008
1743395399.72,0.186,-0.008,0.155,0.305,0.919,0.050,25.530,57.006,6.166,-79.274,127.760,127.548
1743395399.74,0.131,-0.062,0.086,-0.270,1.528,0.210,25.531,56.596,6.583,-79.163,128.768,127.136
1743395399.76,0.037,-0.041,-0.057,-0.317,1.696,0.283,25.473,56.615,7.694,-78.671,131.175,127.660
1743395399.78,-0.031,0.030,-0.256,0.252,1.167,0.190,25.540,56.452,8.624,-78.414,132.307,127.081
1743395399.80,-0.043,0.098,-0.265,0.962,0.423,0.216,25.481,56.571,8.766,-78.728,129.781,123.609
1743395399.82,-0.038,0.105,-0.089,1.169,0.315,0.267,25.680,56.281,7.903,-79.260,124.079,117.441
1743395399.84,-0.043,0.091,0.012,1.144,0.769,0.262,26.148,56.291,6.898,-79.679,117.722,110.376
1743395399.86,-0.052,0.076,-0.039,1.210,1.278,0.317,26.148,56.301,6.011,-79.944,111.444,102.787
1743395399.88,-0.046,0.043,-0.225,1.522,1.245,0.497,26.420,56.366,5.575,-79.972,103.913,93.605
1743395399.90,-0.030,0.031,-0.405,2.008,0.518,0.666,26.858,56.105,4.298,-79.609,93.274,81.744
1743395399.92,-0.055,0.127,-0.289,2.232,0.040,0.604,27.396,56.166,2.478,-78.735,80.858,68.842
1743395399.94,-0.107,0.272,-0.093,2.094,0.021,0.400,28.068,55.684,0.366,-77.547,70.098,57.818
1743395399.96,-0.151,0.312,-0.095,2.020,0.178,0.256,28.395,55.545,-1.837,-76.265,61.630,49.063
1743395399.98,-0.227,0.186,0.042,2.119,0.837,0.247,28.773,55.156,-4.069,-74.766,55.022,41.626
1743395400.00,-0.300,-0.009,0.284,1.573,1.040,0.141,29.159,54.816,-5.280,-73.251,50.472,35.758
1743395400.02,-0.272,-0.157,0.576,0.552,0.983,0.080,29.463,54.338,-6.071,-72.390,49.012,32.971
1743395400.04,-0.168,-0.286,0.631,0.186,0.296,-0.057,29.624,54.269,-6.037,-72.133,48.962,32.132
1743395400.06,-0.046,-0.405,0.503,0.030,0.128,-0.269,29.614,54.356,-6.184,-72.183,48.398,31.373
1743395400.08,0.032,-0.403,0.252,-0.344,0.611,-0.264,29.231,54.560,-6.071,-72.546,48.533,31.089
1743395400.10,-0.060,-0.285,-0.053,-0.659,0.603,-0.187,29.146,54.724,-5.223,-73.116,50.204,32.031
1743395400.12,-0.102,-0.214,-0.257,-0.737,0.019,-0.198,28.942,54.838,-4.328,-73.793,52.258,33.784
1743395400.14,-0.011,-0.204,-0.274,-0.844,-0.274,-0.150,28.688,55.042,-3.606,-74.494,54.133,35.949
1743395400.16,0.064,-0.268,-0.103,-1.046,0.045,-0.048,28.636,55.138,-2.742,-75.199,57.015,39.115
1743395400.18,0.034,-0.187,0.124,-1.125,0.709,0.051,28.342,54.959,-1.540,-75.846,61.632,43.446
1743395400.20,0.022,0.592,-0.564,-0.235,0.013,0.011,28.378,55.097,-0.029,-76.212,66.041,47.191
1743395400.22,0.467,1.669,-1.512,0.813,-2.639,-0.307,28.063,55.094,-0.276,-76.077,61.618,44.597
1743395400.24,0.292,0.655,0.528,0.288,0.232,-0.247,27.614,55.489,-2.204,-76.062,57.065,41.572
1743395400.26,-0.178,-0.507,1.042,-0.210,1.891,0.079,28.010,55.585,-2.187,-76.125,58.214,41.228
1743395400.28,-0.463,-0.978,0.013,-0.465,1.572,0.349,28.152,55.606,-0.941,-76.117,62.306,43.232
1743395400.30,-0.061,-0.604,-0.307,-0.264,0.420,-0.026,28.361,55.221,0.429,-76.086,65.558,45.461
1743395400.32,0.257,0.094,0.271,0.012,-0.534,-0.624,28.292,55.154,0.835,-76.500,65.220,45.153
1743395400.34,0.439,0.265,0.214,-0.162,-1.033,-0.593,27.707,55.556,0.718,-77.203,63.002,43.905
1743395400.36,0.538,0.186,-0.115,-0.296,-0.784,-0.057,26.887,56.021,0.315,-77.689,62.426,44.373
1743395400.38,0.169,0.028,0.059,-0.056,-0.589,0.233,26.981,55.981,0.068,-77.653,62.687,45.459
1743395400.40,-0.154,-0.019,0.198,-0.103,-0.369,0.225,27.170,55.823,-0.358,-77.443,63.008,46.344
1743395400.42,-0.353,0.032,0.044,-0.082,-0.250,0.132,27.434,55.809,-0.263,-77.312,63.597,47.296
1743395400.44,-0.384,0.063,-0.017,0.122,-0.136,-0.022,27.594,55.939,-0.494,-77.255,63.426,47.367
1743395400.46,-0.245,0.035,-0.006,0.379,0.158,-0.055,27.450,55.738,-0.645,-77.174,62.210,46.116
1743395400.48,-0.080,-0.015,-0.003,0.586,0.401,0.022,27.424,55.727,-1.082,-76.934,60.346,43.877
1743395400.50,0.042,-0.021,-0.048,0.796,0.544,0.180,27.599,55.824,-1.381,-76.440,58.290,41.190
1743395400.52,0.051,0.030,-0.043,0.997,0.504,0.319,27.568,55.602,-2.079,-75.634,56.039,38.250
1743395400.54,-0.079,0.075,0.067,1.077,0.502,0.356,27.915,54.907,-2.701,-74.628,53.772,35.310
1743395400.56,-0.197,0.059,0.031,1.063,0.338,0.383,28.364,54.933,-3.424,-73.547,51.755,32.673
1743395400.58,-0.274,0.027,-0.085,1.025,-0.208,0.403,28.593,54.592,-4.324,-72.444,49.754,30.509
1743395400.60,-0.216,0.051,0.046,1.116,-0.078,0.307,28.954,54.236,-5.660,-71.333,47.588,28.457
1743395400.62,-0.070,-0.017,-0.014,1.457,-0.380,0.303,29.271,53.996,-7.096,-70.114,45.127,26.017
1743395400.64,0.035,-0.055,-0.167,1.885,-0.647,0.418,29.217,53.142,-8.645,-68.400,41.620,23.051
1743395400.66,0.025,-0.055,0.102,1.542,0.120,0.434,29.606,52.573,-10.843,-66.555,39.096,20.659
1743395400.68,-0.020,-0.129,0.157,1.182,0.383,0.549,30.035,52.021,-12.295,-65.031,38.251,19.371
1743395400.70,0.003,-0.174,0.164,1.181,0.735,0.877,30.670,51.441,-13.340,-63.476,38.467,18.917
1743395400.72,0.078,-0.104,0.066,1.436,0.457,1.037,31.586,50.445,-14.121,-61.644,39.177,18.857
1743395400.74,0.219,-0.001,-0.075,1.811,-0.135,0.981,32.574,49.289,-15.057,-59.448,38.774,18.253
1743395400.76,0.182,-0.008,-0.006,1.882,-0.471,0.830,33.167,48.118,-16.969,-57.125,37.665,17.289
1743395400.78,0.058,-0.155,-0.157,1.728,-0.644,0.793,33.756,46.639,-18.916,-54.917,36.184,16.379
1743395400.80,-0.005,-0.077,0.301,1.479,0.222,0.541,34.451,45.399,-20.847,-52.977,35.343,15.641
1743395400.82,-0.067,-0.095,0.068,1.532,-0.369,0.588,34.890,44.446,-22.191,-51.262,34.773,14.860
1743395400.84,-0.029,0.042,0.051,1.764,-0.792,0.827,35.082,43.330,-23.571,-49.237,33.555,14.271
1743395400.86,-0.077,0.041,-0.029,1.729,-0.622,0.779,35.287,41.867,-25.555,-47.015,32.394,13.817
1743395400.88,-0.186,-0.064,-0.150,1.501,-0.266,0.666,35.372,40.404,-27.532,-45.029,31.522,13.392
1743395400.90,-0.110,-0.022,-0.007,1.228,0.386,0.629,35.704,39.016,-28.817,-43.307,31.489,13.161
1743395400.92,-0.028,0.094,0.009,1.204,-0.049,0.542,36.267,37.589,-29.467,-41.819,31.616,12.974
1743395400.94,-0.033,0.133,-0.025,1.340,-0.371,0.508,36.587,36.464,-30.417,-40.248,31.113,12.641
1743395400.96,-0.023,0.032,-0.025,1.369,-0.431,0.450,36.766,35.074,-31.746,-38.634,30.365,12.217
1743395400.98,-0.002,-0.111,-0.010,1.356,-0.461,0.433,36.779,33.939,-32.963,-37.025,29.585,11.790
1743395401.00,0.005,-0.171,0.038,1.315,-0.334,0.402,36.739,32.660,-34.231,-35.482,28.902,11.378
1743395401.02,0.108,-0.182,0.090,1.489,-0.305,0.435,36.540,31.340,-35.449,-33.854,28.303,10.954
1743395401.04,0.169,-0.138,0.091,1.604,-0.365,0.572,36.592,29.952,-36.456,-32.017,27.732,10.544
1743395401.06,0.115,-0.121,-0.060,1.360,-0.289,0.651,36.712,28.328,-37.656,-30.163,27.223,10.371
1743395401.08,0.090,-0.043,0.045,1.133,-0.269,0.646,36.658,26.790,-38.550,-28.590,26.945,10.384
1743395401.10,0.065,-0.094,0.061,1.298,-0.219,0.760,36.916,25.373,-39.583,-26.983,26.677,10.492
1743395401.12,-0.059,-0.209,0.063,1.304,0.005,0.788,36.941,23.772,-40.247,-25.249,26.648,10.634
1743395401.14,-0.010,-0.059,0.001,1.239,0.128,0.727,37.164,22.182,-40.683,-23.547,26.764,10.775
1743395401.16,0.106,0.169,-0.053,1.120,-0.100,0.705,37.330,20.657,-41.141,-21.996,26.865,10.902
1743395401.18,0.056,0.087,-0.027,1.167,-0.320,0.672,37.455,19.198,-41.672,-20.481,26.643,11.037
1743395401.20,-0.063,-0.070,0.079,1.220,-0.098,0.652,37.754,17.694,-42.443,-18.929,26.394,11.100
1743395401.22,-0.144,-0.230,0.044,1.213,0.263,0.758,37.713,16.050,-42.757,-17.306,26.539,11.190
1743395401.24,0.101,0.128,0.013,1.034,0.437,0.710,37.921,14.302,-43.061,-15.790,27.035,11.372
1743395401.26,0.251,0.163,-0.052,1.028,-0.323,0.856,38.452,12.994,-42.918,-14.346,27.206,11.636
1743395401.28,0.063,-0.058,-0.211,0.898,-0.377,0.783,38.386,11.367,-43.280,-12.912,26.788,12.003
1743395401.30,-0.221,-0.167,-0.150,0.797,0.084,0.608,38.112,9.970,-43.827,-11.717,26.697,12.272
1743395401.32,-0.247,-0.086,0.003,0.821,0.309,0.565,38.347,8.398,-44.097,-10.596,26.989,12.490
1743395401.34,-0.039,0.132,-0.062,0.935,0.199,0.479,38.482,7.189,-44.036,-9.432,27.297,12.536
1743395401.36,-0.002,0.099,-0.185,0.948,-0.106,0.401,38.934,6.294,-43.911,-8.237,27.358,12.489
1743395401.38,0.032,-0.021,-0.197,0.966,-0.288,0.218,38.684,4.903,-43.875,-7.099,27.095,12.310
1743395401.40,-0.042,-0.068,-0.033,0.933,-0.324,0.137,38.666,3.881,-44.193,-6.043,26.692,11.982
1743395401.42,-0.062,-0.056,-0.013,0.892,-0.211,0.125,38.129,3.150,-44.602,-5.039,26.329,11.658
1743395401.44,-0.056,0.074,0.031,0.846,-0.195,0.130,37.936,2.061,-44.777,-4.087,26.110,11.348
1743395401.46,0.055,0.030,-0.057,0.900,-0.290,0.130,37.793,1.219,-44.943,-3.132,25.802,11.049
1743395401.48,0.144,-0.048,-0.059,0.854,-0.424,0.100,37.653,0.188,-45.177,-2.165,25.380,10.730
1743395401.50,0.022,-0.087,-0.044,0.829,-0.373,0.080,37.294,-0.528,-45.312,-1.249,24.878,10.406
1743395401.52,0.003,-0.089,-0.042,0.714,-0.001,0.109,36.779,-1.350,-45.667,-0.409,24.677,10.144
1743395401.54,0.111,-0.020,-0.066,0.588,0.029,0.146,36.815,-2.237,-45.626,0.333,24.688,9.954
1743395401.56,0.185,-0.002,-0.124,0.436,0.000,0.178,36.689,-2.914,-45.629,0.939,24.727,9.887
1743395401.58,0.146,0.003,-0.188,0.277,-0.115,0.198,36.907,-3.357,-45.589,1.402,24.628,9.908
1743395401.60,0.106,-0.023,-0.212,0.105,-0.016,0.177,36.801,-3.764,-45.735,1.691,24.548,10.012
1743395401.62,0.028,-0.028,-0.203,-0.044,0.101,0.117,36.646,-4.254,-45.699,1.789,24.590,10.157
1743395401.64,0.044,-0.021,-0.303,-0.214,0.183,0.043,36.644,-4.400,-45.774,1.703,24.755,10.291
1743395401.66,0.080,0.059,-0.261,-0.410,0.138,-0.023,36.849,-4.475,-45.737,1.384,24.939,10.458
1743395401.68,0.058,0.005,-0.245,-0.556,0.128,-0.115,36.845,-4.063,-45.552,0.850,25.097,10.621
1743395401.70,0.068,0.031,-0.236,-0.700,0.062,-0.202,37.165,-3.367,-45.478,0.120,25.188,10.766
1743395401.72,0.057,0.029,-0.265,-0.837,0.059,-0.302,37.248,-2.821,-45.383,-0.790,25.261,10.875
1743395401.74,0.059,0.029,-0.217,-0.948,0.076,-0.359,37.346,-1.890,-45.359,-1.875,25.354,10.968
1743395401.76,0.103,0.017,-0.175,-1.073,0.027,-0.391,37.480,-0.817,-45.354,-3.111,25.410,11.081
1743395401.78,0.091,-0.023,-0.180,-1.127,0.005,-0.497,37.513,0.679,-45.225,-4.453,25.435,11.165
1743395401.80,0.036,-0.047,-0.119,-1.254,-0.003,-0.551,37.515,1.896,-45.067,-5.944,25.445,11.200
1743395401.82,0.040,-0.048,-0.095,-1.344,0.019,-0.534,37.798,3.170,-45.262,-7.550,25.456,11.281
1743395401.84,0.061,-0.012,-0.035,-1.439,-0.091,-0.559,37.839,4.994,-44.968,-9.252,25.451,11.403
1743395401.86,0.014,-0.074,-0.092,-1.469,-0.097,-0.587,37.813,6.561,-45.073,-11.031,25.339,11.525
1743395401.88,0.006,-0.083,-0.043,-1.561,0.117,-0.616,37.478,8.272,-44.913,-12.894,25.387,11.650
1743395401.90,-0.029,-0.088,0.004,-1.550,0.173,-0.667,37.445,9.884,-44.573,-14.819,25.580,11.763
1743395401.92,-0.030,-0.096,-0.017,-1.498,0.239,-0.722,37.435,11.838,-44.014,-16.732,25.837,11.793
1743395401.94,0.005,-0.113,-0.019,-1.492,0.175,-0.736,37.635,13.854,-43.544,-18.632,26.079,11.803
1743395401.96,-0.024,-0.128,-0.038,-1.384,0.098,-0.837,37.683,15.733,-42.822,-20.500,26.193,11.710
1743395401.98,-0.037,-0.151,-0.017,-1.387,0.252,-0.875,37.527,17.494,-42.271,-22.351,26.295,11.504
1743395402.00,-0.006,-0.150,0.009,-1.457,0.422,-0.854,37.430,19.182,-41.657,-24.247,26.613,11.331
1743395402.02,0.015,-0.175,-0.010,-1.450,0.438,-0.817,37.420,21.000,-40.728,-26.171,27.070,11.223
1743395402.04,0.059,-0.213,-0.034,-1.506,0.438,-0.787,37.467,22.921,-39.907,-28.077,27.536,11.166
1743395402.06,0.144,-0.215,0.002,-1.712,0.433,-0.670,37.483,24.821,-38.632,-30.095,28.101,11.298
1743395402.08,0.174,-0.208,0.021,-1.787,0.371,-0.601,37.752,26.535,-37.500,-32.202,28.778,11.687
1743395402.10,0.109,-0.185,-0.009,-1.798,0.200,-0.711,37.836,28.558,-36.162,-34.350,29.323,12.105
1743395402.12,0.006,-0.105,-0.005,-1.865,0.236,-0.863,37.640,30.069,-34.983,-36.616,29.736,12.403
1743395402.14,-0.064,-0.038,0.051,-1.866,0.260,-0.922,37.320,31.973,-33.712,-38.989,30.165,12.623
1743395402.16,-0.077,-0.009,0.055,-1.789,0.258,-0.868,36.645,36.084,-30.757,-41.304,30.589,12.841
1743395402.18,-0.059,0.008,0.059,-1.783,0.427,-0.789,36.224,37.803,-29.197,-43.541,31.172,13.153
1743395402.20,0.011,0.014,0.054,-1.923,0.617,-0.685,35.943,39.342,-27.380,-45.774,32.166,13.705
1743395402.22,0.068,-0.003,0.096,-2.033,0.716,-0.641,36.027,40.772,-25.347,-48.082,33.587,14.582
1743395402.24,0.043,0.003,0.112,-2.048,0.585,-0.709,35.963,42.637,-23.020,-50.447,35.152,15.641
1743395402.26,0.034,0.010,0.041,-1.989,0.258,-0.822,35.471,44.027,-21.026,-52.828,36.458,16.684
1743395402.28,0.018,0.009,0.022,-1.881,-0.001,-0.965,34.804,45.755,-19.220,-55.214,37.307,17.561
1743395402.30,-0.015,0.003,0.030,-1.754,-0.283,-1.082,33.710,47.086,-17.786,-57.570,37.650,18.162
1743395402.32,-0.034,-0.034,0.069,-1.676,-0.438,-1.127,32.729,48.413,-16.395,-59.898,37.533,18.524
1743395402.34,-0.047,-0.086,0.060,-1.616,-0.467,-1.054,31.630,49.992,-15.117,-62.151,37.265,18.819
1743395402.36,-0.054,-0.139,0.082,-1.593,-0.362,-0.871,30.589,50.983,-13.813,-64.277,37.232,19.318
1743395402.38,-0.058,-0.161,0.073,-1.610,-0.358,-0.642,30.145,52.007,-12.489,-66.254,37.767,20.337
1743395402.40,-0.055,-0.162,0.055,-1.669,-0.477,-0.455,29.474,52.804,-11.187,-68.101,38.896,22.070
1743395402.41,-0.047,-0.137,0.014,-1.695,-0.580,-0.351,28.924,53.507,-9.772,-69.879,40.606,24.546
1743395402.43,-0.067,-0.101,0.044,-1.526,-0.685,-0.402,28.508,54.015,-8.647,-71.548,42.531,27.357
1743395402.46,-0.065,-0.031,0.027,-1.159,-0.463,-0.571,27.959,54.493,-7.466,-73.043,43.840,29.469
1743395402.47,-0.012,0.059,-0.011,-1.050,0.077,-0.595,27.452,55.145,-6.299,-74.412,44.846,30.752
1743395402.50,0.038,0.090,-0.043,-1.123,0.405,-0.461,26.863,55.396,-5.194,-75.707,46.990,32.637
1743395402.51,0.016,0.060,-0.135,-0.991,0.182,-0.443,26.328,55.957,-3.882,-76.901,49.685,35.031
1743395402.53,0.015,-0.025,-0.077,-0.931,-0.289,-0.344,25.806,56.233,-2.753,-77.939,52.136,37.587
1743395402.55,-0.007,-0.084,-0.020,-0.913,-0.560,-0.261,25.699,56.564,-2.000,-78.844,54.734,40.791
1743395402.57,-0.010,-0.105,0.018,-0.844,-0.275,-0.231,25.375,56.946,-1.317,-79.628,57.801,44.431
1743395402.59,-0.001,-0.071,0.010,-0.879,0.162,-0.199,25.172,56.970,-0.215,-80.339,61.823,48.560
1743395402.61,-0.022,-0.040,-0.018,-0.808,0.130,-0.110,24.982,57.293,0.684,-80.927,66.944,53.541
1743395402.63,-0.056,0.001,-0.086,-0.680,0.007,-0.061,24.920,57.131,1.548,-81.307,71.879,58.460
1743395402.65,-0.067,-0.010,-0.069,-0.544,-0.154,-0.051,24.762,57.195,2.171,-81.563,76.169,62.881
1743395402.67,-0.053,0.007,-0.018,-0.452,-0.240,-0.020,25.025,57.332,2.588,-81.723,79.571,66.559
1743395402.69,-0.035,0.028,-0.005,-0.510,-0.206,0.015,24.733,57.313,3.105,-81.808,82.986,70.275
1743395402.71,-0.011,0.017,0.007,-0.538,-0.109,0.030,24.880,57.346,3.727,-81.830,87.069,74.585
1743395402.73,0.018,0.001,0.026,-0.415,-0.086,0.012,25.006,57.347,3.957,-81.816,90.818,78.477
1743395402.75,0.045,-0.034,0.053,-0.256,-0.139,0.052,25.077,57.272,4.549,-81.778,93.339,81.149
1743395402.77,0.028,-0.065,0.078,-0.166,-0.174,0.209,25.214,57.189,4.796,-81.622,94.676,82.689
1743395402.79,-0.026,-0.016,0.067,-0.171,-0.018,0.341,25.532,57.288,4.644,-81.287,95.559,83.718
1743395402.81,-0.128,0.079,-0.015,-0.259,0.297,0.384,25.809,56.992,4.944,-80.838,96.998,85.007
1743395402.83,-0.202,0.139,-0.103,-0.137,0.251,0.274,26.056,56.677,5.653,-80.417,98.595,86.266
1743395402.85,-0.190,0.118,-0.027,0.238,0.053,0.131,26.384,56.559,5.472,-80.208,98.266,85.772
1743395402.87,-0.174,0.038,0.096,0.454,0.105,0.144,26.654,56.510,5.114,-80.115,95.802,83.207
1743395402.89,-0.182,-0.016,0.157,0.353,0.393,0.151,26.774,56.326,4.829,-79.980,93.248,80.341
1743395402.91,-0.168,0.008,0.130,0.030,0.622,0.087,26.768,56.233,4.724,-79.845,92.498,78.969
1743395402.93,-0.106,0.062,-0.006,-0.262,0.571,-0.066,26.965,56.068,5.276,-79.822,94.082,79.853
1743395402.95,-0.004,0.043,-0.129,-0.181,0.295,-0.155,26.808,56.321,5.707,-79.930,96.244,81.542
1743395402.97,0.098,-0.016,-0.151,0.111,0.070,-0.140,26.585,56.152,5.838,-80.106,96.760,81.874
1743395402.99,0.152,-0.071,-0.085,0.272,0.056,-0.021,26.382,56.376,5.810,-80.227,95.542,80.583
1743395403.01,0.140,-0.077,-0.009,0.276,0.085,0.098,26.292,56.566,5.610,-80.205,93.709,78.640
1743395403.03,0.093,-0.008,0.019,0.105,0.108,0.118,26.491,56.600,5.456,-80.087,92.455,77.253
1743395403.05,0.008,0.028,-0.014,-0.041,0.012,0.109,26.780,56.316,5.509,-79.956,92.412,77.122
1743395403.07,-0.084,-0.002,-0.018,0.063,-0.190,0.083,26.789,56.417,5.629,-79.848,92.306,77.123
1743395403.09,-0.139,0.004,0.048,0.185,-0.186,0.052,26.926,56.428,5.346,-79.773,91.193,76.235
1743395403.11,-0.138,0.036,0.081,0.104,0.059,-0.033,27.082,56.459,4.885,-79.760,90.110,75.224
1743395403.13,-0.079,0.057,0.056,0.014,0.255,-0.126,26.858,56.429,5.039,-79.855,90.001,74.909
1743395403.15,-0.007,0.010,0.005,0.043,0.148,-0.112,26.564,56.357,5.245,-80.003,90.108,74.757
1743395403.17,0.017,-0.035,0.003,0.122,0.093,-0.071,26.596,56.576,5.077,-80.106,89.728,74.255
1743395403.19,0.020,-0.038,0.013,0.149,0.012,-0.025,26.380,56.447,4.961,-80.165,88.897,73.340
1743395403.21,0.009,-0.014,0.019,0.150,-0.087,0.004,26.439,56.544,4.806,-80.180,87.895,72.366
1743395403.23,-0.013,-0.012,0.026,0.143,-0.193,0.041,26.468,56.482,4.566,-80.147,86.779,71.396
1743395403.25,-0.038,0.002,-0.003,0.109,-0.273,0.046,26.532,56.376,4.247,-80.080,85.713,70.585
1743395403.27,-0.047,0.017,-0.062,0.140,-0.317,0.015,26.513,56.562,3.988,-80.029,84.705,69.907
1743395403.29,-0.029,0.016,-0.072,0.341,-0.309,-0.009,26.366,56.489,3.824,-79.998,82.880,68.422
1743395403.31,-0.030,0.009,-0.028,0.532,-0.273,0.027,26.332,56.412,3.346,-79.912,79.731,65.561
1743395403.33,-0.057,0.002,0.019,0.609,-0.210,0.043,26.473,56.377,2.405,-79.732,75.928,61.984
1743395403.35,-0.080,-0.029,0.089,0.684,-0.050,0.046,26.650,56.519,1.730,-79.480,71.987,58.136
1743395403.37,-0.077,-0.023,0.092,0.678,0.180,0.098,26.656,56.360,0.912,-79.136,68.244,54.259
1743395403.39,-0.056,0.010,-0.014,0.620,0.434,0.140,26.511,56.429,0.518,-78.722,65.464,51.063
1743395403.41,-0.062,0.013,-0.056,0.853,0.477,0.125,26.966,56.291,-0.322,-78.231,62.754,47.732
1743395403.43,-0.085,0.020,-0.068,1.163,0.265,0.126,26.848,56.214,-0.980,-77.535,58.752,43.205
1743395403.45,-0.088,0.050,-0.040,1.155,0.187,0.156,26.835,55.992,-1.822,-76.656,54.413,38.502
1743395403.47,-0.078,0.048,0.029,0.982,0.212,0.177,27.061,55.759,-2.987,-75.765,51.191,34.968
1743395403.49,-0.039,-0.011,0.022,1.035,0.316,0.177,27.421,55.507,-3.953,-74.879,48.660,32.030
1743395403.51,-0.002,-0.056,-0.012,1.076,0.396,0.253,27.597,55.342,-4.965,-73.885,46.450,29.319
1743395403.53,0.023,-0.047,-0.066,1.073,0.350,0.336,27.759,54.873,-5.791,-72.775,44.747,27.070
1743395403.55,0.015,-0.004,-0.068,1.025,-0.137,0.340,28.187,54.615,-6.705,-71.644,43.231,25.320
1743395403.57,-0.030,0.028,0.079,1.083,-0.034,0.183,28.524,54.153,-7.952,-70.553,41.333,23.528
1743395403.59,-0.036,-0.011,0.026,1.234,0.394,0.116,28.595,53.854,-9.090,-69.450,39.563,21.360
1743395403.61,-0.009,-0.027,-0.086,1.249,0.144,0.202,28.739,53.666,-10.170,-68.214,37.889,19.233
1743395403.63,0.053,0.001,0.063,0.949,0.344,0.304,28.976,53.107,-11.082,-67.022,36.793,17.802
1743395403.65,0.094,-0.021,0.091,0.714,0.521,0.363,29.408,52.819,-11.945,-66.058,36.789,17.190
1743395403.67,0.118,-0.073,-0.044,0.835,-0.024,0.439,29.700,52.407,-12.308,-65.101,36.781,16.831
1743395403.69,0.126,-0.060,0.019,1.169,-0.306,0.507,30.231,51.920,-13.082,-63.857,36.030,16.268
1743395403.71,0.066,-0.045,-0.019,1.370,-0.289,0.440,30.681,51.201,-14.684,-62.333,34.855,15.378
1743395403.73,-0.065,-0.070,0.012,1.188,0.378,0.341,30.917,50.394,-16.102,-60.852,34.008,14.359
1743395403.75,-0.155,-0.060,-0.094,0.836,0.471,0.342,31.315,49.881,-17.016,-59.677,33.955,13.702
1743395403.77,0.013,-0.013,0.148,0.600,0.538,0.466,31.721,49.283,-17.366,-58.767,34.420,13.530
1743395403.79,0.219,0.005,0.009,0.860,-0.220,0.727,32.204,48.734,-17.754,-57.743,34.862,13.761
1743395403.81,0.211,0.046,-0.027,1.228,-0.888,0.744,32.707,47.695,-18.798,-56.226,34.175,13.776
1743395403.83,0.033,0.015,-0.128,1.059,-0.720,0.538,32.962,46.820,-20.307,-54.712,33.035,13.569
1743395403.85,-0.038,-0.042,-0.059,0.903,-0.265,0.352,32.858,46.025,-21.662,-53.506,32.229,13.260
1743395403.87,-0.042,-0.124,-0.022,0.972,-0.371,0.376,33.033,45.365,-22.849,-52.419,31.643,12.915
1743395403.89,0.013,-0.145,0.073,1.214,-0.264,0.484,33.538,44.799,-24.145,-51.082,30.959,12.542
1743395403.91,-0.003,-0.138,-0.010,1.121,-0.329,0.614,33.721,43.901,-25.327,-49.592,30.451,12.280
1743395403.93,-0.002,-0.026,-0.024,0.775,-0.170,0.690,33.748,42.666,-26.166,-48.280,30.215,12.447
1743395403.95,0.035,0.095,0.134,0.552,0.156,0.682,34.292,41.718,-27.068,-47.240,30.647,12.892
1743395403.97,0.029,0.104,0.007,0.788,-0.408,0.688,34.712,40.858,-27.517,-46.227,30.792,13.343
1743395403.99,-0.005,0.097,0.035,1.079,-0.412,0.574,34.931,39.974,-28.313,-44.910,30.399,13.455
1743395404.01,-0.095,0.006,-0.029,1.167,-0.438,0.392,35.104,38.924,-29.493,-43.530,29.749,13.215
1743395404.03,-0.115,-0.076,-0.033,1.210,-0.349,0.343,35.085,37.674,-30.708,-42.129,28.986,12.779
1743395404.05,-0.042,-0.070,-0.029,1.044,-0.405,0.420,35.005,36.841,-31.890,-40.799,28.390,12.453
1743395404.07,0.055,-0.022,0.009,1.000,-0.380,0.469,35.169,35.661,-32.925,-39.532,27.841,12.344
1743395404.09,0.025,-0.031,0.001,1.008,-0.479,0.438,35.114,34.631,-33.848,-38.277,27.285,12.236
1743395404.11,0.028,-0.078,-0.017,1.002,-0.370,0.473,35.024,33.464,-34.835,-37.019,26.736,12.163
1743395404.13,-0.001,-0.056,-0.031,0.918,-0.189,0.488,35.326,32.646,-35.937,-35.789,26.447,12.168
1743395404.15,-0.114,0.006,-0.026,0.884,-0.104,0.381,35.332,31.707,-36.721,-34.659,26.263,12.155
1743395404.17,-0.128,0.008,-0.022,0.944,-0.161,0.375,35.539,30.805,-37.269,-33.544,26.086,12.065
1743395404.19,-0.028,-0.010,-0.009,1.023,-0.264,0.317,35.524,29.640,-38.020,-32.351,25.759,11.906
1743395404.21,0.024,-0.032,-0.025,1.054,-0.186,0.263,35.555,28.558,-38.820,-31.133,25.330,11.643
1743395404.23,-0.007,-0.009,-0.006,0.957,-0.172,0.309,35.464,27.587,-39.348,-29.947,25.029,11.417
1743395404.25,0.024,0.016,0.052,0.907,-0.168,0.412,35.454,26.564,-39.963,-28.831,24.778,11.333
1743395404.27,-0.010,-0.037,-0.019,0.984,-0.131,0.464,35.423,25.684,-40.589,-27.627,24.601,11.339
1743395404.29,-0.064,-0.108,-0.042,0.965,-0.084,0.441,35.478,24.263,-41.387,-26.397,24.476,11.341
1743395404.31,-0.031,-0.099,-0.036,0.884,-0.011,0.430,35.410,23.284,-41.669,-25.230,24.431,11.363
1743395404.33,0.016,-0.022,0.066,0.864,-0.017,0.406,35.499,22.008,-42.323,-24.132,24.433,11.382
1743395404.35,0.050,-0.087,0.062,0.973,-0.130,0.461,35.639,20.919,-42.630,-22.982,24.359,11.410
1743395404.37,0.077,-0.129,0.055,1.038,0.063,0.472,35.840,19.823,-43.045,-21.702,24.285,11.416
1743395404.39,0.044,-0.092,0.003,0.987,0.144,0.504,35.797,18.561,-43.376,-20.422,24.431,11.442
1743395404.41,0.001,0.058,0.002,0.898,0.171,0.605,36.046,17.361,-43.524,-19.175,24.673,11.572
1743395404.43,-0.019,0.101,0.035,0.889,0.124,0.639,36.520,16.007,-43.815,-17.956,24.919,11.814
1743395404.45,-0.031,0.048,0.060,1.007,0.045,0.558,36.829,14.836,-44.190,-16.694,25.076,11.994
1743395404.47,-0.049,-0.078,0.011,1.142,0.000,0.548,37.004,13.703,-44.195,-15.307,25.098,12.036
1743395404.49,-0.026,-0.054,-0.037,1.045,0.227,0.565,37.198,12.209,-44.432,-13.886,25.233,12.061
1743395404.51,-0.037,0.111,-0.077,0.859,0.389,0.620,37.160,10.783,-44.586,-12.622,25.617,12.228
1743395404.53,-0.089,0.185,-0.022,0.865,0.387,0.675,37.655,9.428,-44.531,-11.420,26.163,12.462
1743395404.55,0.025,0.041,-0.038,0.917,0.144,0.628,38.161,8.141,-44.273,-10.179,26.515,12.690
1743395404.57,0.132,0.040,0.016,0.995,-0.264,0.547,38.316,6.808,-44.155,-8.900,26.479,12.803
1743395404.59,-0.148,0.012,-0.035,1.096,-0.356,0.402,38.271,5.485,-44.447,-7.591,26.039,12.761
1743395404.61,-0.285,-0.109,-0.105,1.090,-0.018,0.387,37.934,4.254,-44.779,-6.264,25.820,12.609
1743395404.63,-0.081,-0.108,-0.086,1.089,0.125,0.266,37.970,3.023,-44.843,-4.984,25.889,12.412
1743395404.65,0.120,0.030,0.018,1.098,-0.151,0.203,38.120,1.740,-44.925,-3.741,25.866,12.093
1743395404.67,0.061,0.054,0.014,1.145,-0.424,0.239,37.929,0.517,-45.160,-2.482,25.513,11.762
1743395404.69,0.038,-0.026,0.001,1.149,-0.356,0.239,37.549,-0.526,-45.135,-1.180,25.015,11.438
1743395404.71,0.029,-0.072,0.035,1.083,-0.116,0.310,37.293,-2.054,-45.508,0.112,24.726,11.184
1743395404.73,0.074,-0.099,0.029,1.018,0.204,0.365,36.875,-3.197,-45.424,1.367,24.791,11.036
1743395404.75,0.078,0.105,0.016,0.991,0.165,0.400,37.047,-4.481,-45.181,2.593,25.050,10.945
1743395404.77,0.177,0.041,-0.068,0.962,-0.000,0.434,36.931,-5.723,-45.186,3.800,25.155,10.912
1743395404.79,0.112,0.010,-0.098,0.923,-0.191,0.386,37.042,-6.773,-44.994,4.980,25.027,10.887
1743395404.81,-0.031,-0.068,-0.100,0.877,-0.073,0.301,36.928,-7.933,-45.026,6.082,24.850,10.811
1743395404.83,-0.056,-0.039,-0.082,0.803,0.104,0.271,36.460,-9.030,-45.079,7.089,24.892,10.705
1743395404.85,-0.016,0.055,-0.110,0.767,0.099,0.211,36.648,-9.753,-44.759,8.021,25.054,10.574
1743395404.87,0.105,0.039,-0.152,0.716,-0.007,0.155,36.783,-10.730,-44.527,8.875,25.129,10.406
1743395404.89,0.063,0.040,-0.158,0.664,-0.070,0.063,36.686,-11.472,-44.333,9.637,25.108,10.182
1743395404.91,-0.056,-0.018,-0.155,0.598,0.005,-0.010,36.523,-12.201,-44.252,10.306,25.106,9.897
1743395404.93,0.004,0.003,-0.131,0.526,-0.005,-0.089,36.587,-12.663,-44.233,10.871,25.201,9.565
1743395404.95,0.106,-0.040,-0.130,0.416,-0.082,-0.109,36.397,-12.987,-43.830,11.302,25.209,9.221
1743395404.97,0.073,0.014,-0.154,0.307,-0.137,-0.114,36.560,-13.263,-43.689,11.628,25.130,8.929
1743395404.99,0.002,-0.076,-0.147,0.189,0.007,-0.139,36.271,-13.730,-43.789,11.827,25.119,8.675
1743395405.01,0.070,-0.111,-0.143,0.040,0.010,-0.144,36.301,-13.658,-43.687,11.876,25.167,8.469
1743395405.03,0.076,-0.130,-0.131,-0.115,0.024,-0.173,36.491,-13.889,-43.859,11.758,25.219,8.322
1743395405.05,0.045,-0.119,-0.162,-0.254,0.063,-0.197,36.653,-13.599,-43.937,11.475,25.276,8.217
1743395405.07,0.048,-0.086,-0.165,-0.414,0.092,-0.186,36.597,-13.177,-43.602,11.045,25.386,8.184
1743395405.09,0.091,-0.121,-0.150,-0.594,0.068,-0.218,36.823,-12.870,-43.794,10.423,25.474,8.231
1743395405.11,0.117,-0.127,-0.207,-0.775,0.044,-0.248,36.955,-12.288,-43.626,9.605,25.512,8.323
1743395405.13,0.112,-0.068,-0.248,-0.987,0.038,-0.255,36.987,-11.603,-44.185,8.573,25.521,8.503
1743395405.15,0.081,-0.049,-0.171,-1.126,0.104,-0.275,37.131,-10.583,-44.072,7.349,25.567,8.754
1743395405.17,0.083,-0.009,-0.126,-1.240,0.082,-0.266,37.209,-9.579,-44.314,5.999,25.655,9.065
1743395405.19,0.081,0.003,-0.179,-1.352,0.082,-0.305,37.438,-8.340,-44.478,4.526,25.706,9.418
1743395405.21,0.013,-0.001,-0.226,-1.455,0.123,-0.358,37.846,-7.021,-44.542,2.916,25.791,9.771
1743395405.23,0.078,-0.031,-0.124,-1.540,0.040,-0.437,38.008,-5.435,-44.700,1.172,25.884,10.120
1743395405.25,0.066,-0.037,-0.056,-1.516,-0.128,-0.512,38.021,-4.001,-44.842,-0.634,25.833,10.401
1743395405.27,-0.013,-0.080,-0.071,-1.562,-0.130,-0.611,38.159,-1.911,-44.937,-2.493,25.659,10.570
1743395405.29,-0.068,-0.032,-0.074,-1.618,-0.069,-0.606,37.976,-0.304,-44.984,-4.433,25.561,10.733
1743395405.31,-0.048,0.007,-0.025,-1.611,0.013,-0.646,38.057,1.635,-44.936,-6.411,25.546,10.887
1743395405.33,-0.017,-0.015,0.056,-1.546,-0.002,-0.621,37.918,3.411,-44.820,-8.356,25.583,11.010
1743395405.35,-0.000,-0.086,-0.041,-1.535,-0.055,-0.611,38.057,5.450,-44.802,-10.236,25.555,11.137
1743395405.37,-0.014,-0.110,0.015,-1.545,-0.204,-0.637,37.851,7.156,-44.697,-12.126,25.476,11.257
1743395405.38,-0.063,-0.167,0.049,-1.575,-0.480,-0.669,37.416,11.068,-44.547,-14.056,25.082,11.345
1743395405.40,-0.061,-0.199,-0.054,-1.517,-0.334,-0.625,37.024,12.869,-44.634,-15.968,24.584,11.417
1743395405.42,-0.067,-0.121,0.046,-1.577,0.082,-0.632,36.781,14.886,-44.356,-17.866,24.488,11.500
1743395405.44,-0.016,-0.106,0.082,-1.588,0.167,-0.545,36.850,16.545,-43.459,-19.805,24.701,11.648
1743395405.46,0.016,-0.098,0.002,-1.531,0.136,-0.501,36.736,18.084,-42.709,-21.659,24.950,11.874
1743395405.48,0.067,-0.058,0.055,-1.604,0.201,-0.463,36.825,19.989,-42.128,-23.518,25.240,12.149
1743395405.50,0.076,-0.043,0.025,-1.569,0.251,-0.408,36.668,21.703,-41.269,-25.371,25.645,12.523
1743395405.52,0.014,-0.050,0.067,-1.450,0.424,-0.472,36.595,23.142,-40.439,-27.138,26.192,12.871
1743395405.54,-0.051,-0.068,0.027,-1.366,0.305,-0.564,36.883,24.637,-39.444,-28.839,26.715,13.068
1743395405.56,-0.064,-0.069,-0.024,-1.346,0.258,-0.561,37.040,26.250,-38.648,-30.514,27.090,13.212
1743395405.58,-0.028,-0.058,-0.033,-1.363,0.380,-0.576,36.874,27.721,-37.489,-32.180,27.524,13.371
1743395405.60,0.040,-0.054,-0.014,-1.477,0.456,-0.618,37.019,29.259,-36.318,-33.924,28.115,13.551
1743395405.62,0.068,-0.058,0.004,-1.535,0.390,-0.671,36.756,30.900,-34.985,-35.802,28.738,13.768
1743395405.64,0.054,-0.074,-0.019,-1.476,0.231,-0.695,36.658,32.627,-33.992,-37.690,29.196,13.957
1743395405.66,0.029,-0.084,-0.019,-1.441,0.201,-0.700,36.267,33.935,-32.874,-39.530,29.528,14.109
1743395405.68,0.041,-0.094,0.002,-1.521,0.302,-0.662,36.232,35.453,-31.669,-41.376,29.938,14.310
1743395405.70,0.075,-0.092,0.046,-1.645,0.421,-0.593,35.903,37.026,-30.203,-43.305,30.633,14.717
1743395405.72,0.100,-0.087,0.057,-1.678,0.412,-0.571,35.831,38.308,-28.885,-45.274,31.518,15.297
1743395405.74,0.092,-0.069,0.057,-1.720,0.439,-0.601,35.723,39.865,-27.103,-47.267,32.482,15.960
1743395405.76,0.074,-0.039,0.065,-1.815,0.340,-0.668,35.546,41.220,-25.478,-49.354,33.501,16.712
1743395405.78,0.070,-0.020,-0.011,-1.811,0.015,-0.746,34.999,42.917,-23.806,-51.529,34.317,17.481
1743395405.80,0.047,-0.001,0.047,-1.802,-0.272,-0.792,34.284,44.315,-22.361,-53.723,34.732,18.211
1743395405.82,0.025,0.015,0.037,-1.730,-0.384,-0.765,33.688,45.626,-21.030,-55.900,34.939,18.941
1743395405.84,0.014,-0.006,-0.004,-1.615,-0.381,-0.676,32.930,46.953,-19.489,-57.934,35.146,19.709
1743395405.86,-0.020,-0.063,0.030,-1.659,-0.475,-0.579,32.396,48.014,-18.407,-59.860,35.487,20.658
1743395405.88,-0.065,-0.113,0.089,-1.715,-0.628,-0.524,31.981,49.078,-17.481,-61.796,35.957,21.936
1743395405.90,-0.081,-0.114,0.093,-1.726,-0.693,-0.516,31.219,49.820,-16.144,-63.725,36.551,23.443
1743395405.92,-0.092,-0.099,0.088,-1.673,-0.762,-0.511,30.280,50.760,-14.771,-65.635,37.176,25.076
1743395405.94,-0.103,-0.047,0.020,-1.558,-0.678,-0.550,29.539,51.761,-13.805,-67.464,37.832,26.705
1743395405.96,-0.101,0.000,-0.067,-1.489,-0.493,-0.670,29.067,52.637,-12.628,-69.249,38.470,28.116
1743395405.98,-0.105,-0.024,-0.026,-1.441,-0.296,-0.729,28.237,53.296,-11.184,-71.075,39.187,29.355
1743395406.00,-0.076,-0.027,-0.042,-1.174,-0.214,-0.564,27.294,54.030,-10.138,-72.720,40.077,30.577
1743395406.02,-0.079,-0.030,-0.028,-0.957,-0.211,-0.330,26.718,54.657,-9.045,-73.953,41.107,31.925
1743395406.04,-0.107,-0.038,-0.027,-1.058,0.101,-0.164,26.548,55.096,-8.267,-74.982,43.060,34.044
1743395406.06,-0.116,-0.063,-0.017,-1.076,0.561,-0.137,26.590,55.360,-7.058,-75.972,46.326,37.023
1743395406.08,-0.068,-0.049,-0.011,-1.051,0.929,-0.184,26.602,55.795,-5.502,-76.914,50.478,40.403
1743395406.10,0.024,-0.037,0.013,-0.876,1.027,-0.268,26.478,55.791,-3.754,-77.796,54.867,43.732
1743395406.12,0.084,0.002,-0.023,-0.610,0.882,-0.301,26.184,56.080,-2.582,-78.539,58.472,46.292
1743395406.14,0.073,0.021,-0.072,-0.461,0.675,-0.232,25.956,56.267,-1.400,-79.102,61.157,48.122
1743395406.16,0.035,-0.043,-0.094,-0.604,0.582,-0.163,25.648,56.521,-0.342,-79.566,64.094,50.397
1743395406.18,0.067,-0.065,-0.102,-0.786,0.572,-0.151,25.658,56.792,0.868,-80.057,68.470,54.168
1743395406.20,0.127,-0.043,-0.094,-0.697,0.251,-0.058,25.638,56.709,1.911,-80.464,73.552,58.807
1743395406.22,0.151,-0.033,-0.066,-0.446,-0.208,0.081,25.689,56.663,2.751,-80.613,77.431,62.714
1743395406.24,0.118,-0.080,0.032,-0.214,-0.630,0.199,25.835,56.549,2.815,-80.529,79.318,65.123
1743395406.26,0.041,-0.083,0.108,-0.151,-0.763,0.336,26.053,56.561,2.845,-80.270,79.870,66.528
1743395406.28,-0.088,-0.025,0.065,-0.366,-0.565,0.526,26.344,56.385,2.426,-79.826,81.157,68.625
1743395406.30,-0.206,0.054,-0.033,-0.496,-0.268,0.542,27.065,56.050,2.582,-79.267,83.922,71.921
1743395406.32,-0.240,0.110,-0.027,-0.179,-0.017,0.322,27.591,55.813,3.066,-78.803,86.180,74.382
1743395406.34,-0.194,0.116,0.088,0.338,0.267,0.194,27.944,55.588,3.085,-78.524,85.924,73.982
1743395406.36,-0.176,0.097,0.176,0.531,0.637,0.279,28.228,55.350,2.960,-78.214,83.930,71.429
1743395406.38,-0.199,0.077,0.183,0.313,0.842,0.210,28.543,55.420,2.880,-77.856,82.615,69.176
1743395406.40,-0.176,0.045,0.106,0.006,0.407,0.007,28.696,55.311,3.309,-77.708,82.651,68.429
1743395406.42,-0.086,0.021,0.040,-0.222,-0.311,-0.135,28.661,55.193,3.300,-77.805,83.247,68.986
1743395406.44,-0.025,0.009,-0.018,-0.358,-0.671,-0.166,28.535,55.306,3.210,-78.020,84.172,70.554
1743395406.46,-0.005,-0.006,-0.025,-0.222,-0.610,-0.116,28.502,55.345,3.174,-78.224,85.017,72.190
1743395406.48,-0.021,0.000,-0.013,0.006,-0.316,-0.012,28.336,55.506,3.120,-78.308,84.996,72.723
1743395406.50,-0.044,0.035,-0.013,0.137,0.046,0.078,28.315,55.536,2.756,-78.257,84.465,72.329
1743395406.52,-0.084,0.040,-0.014,0.285,0.167,0.085,28.335,55.523,2.738,-78.131,83.512,71.198
1743395406.54,-0.098,0.031,-0.016,0.375,0.036,0.033,28.425,55.463,2.433,-78.016,81.867,69.385
1743395406.56,-0.084,0.018,0.007,0.377,-0.117,-0.009,28.467,55.399,2.204,-77.935,79.817,67.339
1743395406.58,-0.074,0.001,0.020,0.377,-0.237,-0.033,28.586,55.401,1.740,-77.873,77.624,65.306
1743395406.60,-0.070,-0.008,0.019,0.365,-0.342,-0.016,28.613,55.362,1.021,-77.804,75.343,63.313
1743395406.62,-0.074,0.005,-0.003,0.374,-0.403,0.004,28.401,55.267,0.642,-77.693,73.042,61.400
1743395406.64,-0.049,0.023,-0.043,0.499,-0.338,-0.018,28.219,55.365,-0.071,-77.548,70.521,59.267
1743395406.66,-0.024,0.002,0.019,0.778,-0.080,-0.032,28.246,55.190,-0.867,-77.315,67.205,56.126
1743395406.68,-0.042,-0.045,0.108,1.074,0.120,0.029,28.233,55.291,-1.751,-76.871,62.981,51.755
1743395406.70,-0.060,-0.028,0.062,1.083,0.213,0.129,28.022,55.091,-2.709,-76.177,58.778,47.237
1743395406.72,-0.084,0.022,-0.023,1.007,0.251,0.137,28.281,55.106,-3.640,-75.401,55.475,43.537
1743395406.74,-0.119,0.038,-0.021,1.089,0.222,0.104,28.523,54.940,-4.696,-74.591,52.472,40.160
1743395406.76,-0.151,0.004,0.016,1.127,0.296,0.040,28.752,54.722,-5.721,-73.719,49.447,36.724
1743395406.78,-0.092,-0.026,-0.032,1.281,0.171,0.029,28.777,54.587,-6.869,-72.793,46.461,33.303
1743395406.80,-0.061,-0.030,-0.008,1.380,0.161,0.083,28.750,54.272,-7.871,-71.654,43.365,29.869
1743395406.82,-0.026,-0.019,-0.021,1.113,0.194,0.190,28.944,54.122,-9.374,-70.475,41.044,27.224
1743395406.84,0.027,0.011,0.059,0.953,0.445,0.223,29.115,53.784,-10.247,-69.446,39.877,25.585
1743395406.86,0.101,-0.003,0.067,1.100,0.261,0.275,29.301,53.169,-10.910,-68.372,38.992,24.146
1743395406.88,0.155,-0.032,0.014,1.355,-0.262,0.365,29.556,52.749,-12.167,-67.053,37.588,22.603
1743395406.90,0.125,-0.068,-0.138,1.321,-0.714,0.447,29.617,52.042,-13.480,-65.503,35.697,21.204
1743395406.92,0.044,-0.061,-0.116,1.152,-0.575,0.342,29.923,51.298,-15.237,-64.106,34.035,20.254
1743395406.94,0.001,-0.038,0.097,1.304,0.300,0.211,30.018,50.704,-16.600,-62.763,32.808,19.084
1743395406.96,-0.038,-0.079,0.009,1.179,0.447,0.374,30.371,50.079,-17.819,-61.378,32.335,17.977
1743395406.98,-0.003,-0.098,0.113,1.048,0.216,0.672,30.783,49.458,-18.700,-60.003,32.439,17.637
1743395407.00,0.010,-0.108,-0.024,1.189,-0.243,0.871,31.550,48.577,-19.887,-58.449,32.554,17.798
1743395407.02,-0.018,-0.027,-0.119,1.163,0.027,0.709,32.003,47.371,-20.866,-56.785,32.416,17.888
1743395407.04,-0.018,0.045,-0.011,0.966,0.356,0.421,32.582,46.456,-21.725,-55.424,32.555,17.688
1743395407.06,0.042,0.051,0.046,1.072,-0.046,0.336,33.046,45.763,-22.461,-54.248,32.383,17.244
1743395407.08,0.056,0.058,0.076,1.156,-0.386,0.378,33.340,44.926,-23.469,-52.926,31.634,16.652
1743395407.10,0.009,0.056,-0.107,1.100,-0.598,0.462,33.626,44.415,-24.759,-51.581,30.734,16.233
1743395407.12,-0.026,0.060,-0.006,0.913,-0.292,0.451,33.541,43.290,-25.979,-50.310,30.031,16.043
1743395407.14,-0.071,0.001,0.051,1.003,-0.330,0.398,33.635,42.551,-27.073,-49.163,29.606,15.876
1743395407.16,-0.088,-0.084,0.030,1.260,-0.224,0.466,33.566,41.453,-28.097,-47.780,28.991,15.551
1743395407.18,-0.008,-0.134,-0.101,1.260,0.120,0.505,33.834,40.221,-29.300,-46.232,28.723,15.246
1743395407.20,0.107,-0.082,-0.055,1.057,0.385,0.367,34.078,39.444,-30.171,-44.810,28.796,14.973
1743395407.22,0.179,-0.020,0.111,0.885,0.408,0.318,34.504,38.274,-30.721,-43.679,29.112,14.681
1743395407.24,0.158,0.032,0.135,0.873,0.078,0.429,35.081,37.672,-30.820,-42.600,29.274,14.533
1743395407.26,0.095,0.042,0.135,1.039,-0.098,0.599,35.294,36.929,-31.348,-41.382,29.272,14.521
1743395407.28,0.004,0.064,-0.104,1.119,-0.372,0.633,35.640,36.048,-32.319,-39.923,28.973,14.543
1743395407.30,-0.017,0.048,0.046,0.865,-0.116,0.604,35.802,34.483,-33.226,-38.591,28.747,14.633
1743395407.32,-0.107,-0.022,0.043,0.983,-0.194,0.539,36.079,33.301,-34.147,-37.384,28.683,14.753
1743395407.34,-0.131,-0.114,0.091,1.285,-0.434,0.480,36.318,32.268,-34.854,-35.973,28.220,14.602
1743395407.36,-0.049,-0.220,-0.022,1.524,-0.549,0.560,36.338,30.901,-35.906,-34.275,27.520,14.328
1743395407.38,0.040,-0.207,-0.122,1.484,-0.169,0.410,36.068,29.488,-37.017,-32.423,26.852,13.991
1743395407.40,0.019,-0.131,0.085,1.253,0.006,0.184,36.315,27.920,-38.136,-30.916,26.590,13.518
1743395407.42,-0.004,-0.025,0.004,1.423,-0.219,0.252,36.237,26.827,-39.063,-29.457,26.164,12.960
1743395407.44,0.072,0.085,0.072,1.334,-0.162,0.393,36.112,25.680,-39.690,-27.843,25.753,12.562
1743395407.46,0.105,0.039,0.107,1.319,-0.488,0.455,36.357,24.022,-40.454,-26.295,25.295,12.328
1743395407.48,0.099,-0.023,-0.034,1.307,-0.449,0.510,36.103,22.605,-41.537,-24.660,24.638,12.180
1743395407.50,-0.045,-0.035,0.043,1.172,-0.231,0.421,35.784,21.186,-42.458,-23.175,24.228,12.067
1743395407.52,-0.029,-0.087,0.113,1.270,-0.329,0.514,35.663,19.930,-43.104,-21.700,23.890,11.977
1743395407.54,0.086,-0.085,0.004,1.288,-0.231,0.578,35.543,18.385,-43.766,-20.086,23.573,11.956
1743395407.56,-0.010,0.042,-0.040,1.169,-0.162,0.582,35.572,16.852,-44.360,-18.540,23.340,12.008
1743395407.58,-0.132,0.081,0.029,1.150,-0.012,0.678,35.549,15.432,-44.855,-17.047,23.286,12.149
1743395407.60,0.008,-0.010,0.013,1.143,-0.027,0.754,35.613,13.831,-45.397,-15.508,23.360,12.403
1743395407.62,0.108,-0.065,0.073,1.179,-0.088,0.709,35.957,12.180,-45.774,-13.966,23.357,12.659
1743395407.64,-0.031,-0.060,0.111,1.258,0.042,0.731,35.840,10.542,-46.101,-12.373,23.375,12.849
1743395407.66,-0.118,0.035,-0.058,1.190,0.171,0.824,36.115,8.815,-46.141,-10.718,23.513,13.116
1743395407.68,-0.096,0.118,-0.020,1.089,0.207,0.865,36.298,7.006,-46.295,-9.150,23.861,13.494
1743395407.70,0.006,-0.134,-0.024,1.251,-0.086,0.716,36.588,5.537,-46.377,-7.562,23.973,13.794
1743395407.72,0.005,-0.179,0.090,1.333,-0.213,0.570,36.463,3.757,-46.434,-5.926,23.783,13.856
1743395407.74,-0.111,-0.145,-0.111,1.324,0.037,0.539,36.137,2.031,-46.642,-4.264,23.613,13.817
1743395407.76,-0.212,0.082,-0.048,1.234,0.365,0.496,35.966,0.457,-46.894,-2.686,23.905,13.764
1743395407.78,-0.098,0.249,-0.081,1.299,0.273,0.498,36.452,-1.330,-46.516,-1.157,24.287,13.700
1743395407.80,0.082,0.089,-0.137,1.290,-0.060,0.497,36.665,-2.356,-45.927,0.441,24.437,13.613
1743395407.82,0.122,-0.051,-0.098,1.285,-0.380,0.386,36.355,-4.236,-46.081,1.983,24.153,13.474
1743395407.84,-0.084,-0.020,-0.062,1.262,-0.244,0.298,36.115,-5.674,-46.094,3.476,23.784,13.225
1743395407.86,-0.173,0.041,-0.138,1.215,-0.021,0.313,35.781,-7.118,-46.100,4.900,23.656,12.984
1743395407.88,0.042,0.014,-0.161,1.153,0.030,0.181,35.690,-8.431,-46.056,6.267,23.716,12.691
1743395407.90,0.193,-0.084,-0.154,1.067,-0.248,0.096,35.496,-9.752,-45.855,7.487,23.668,12.319
1743395407.92,0.134,-0.092,-0.140,0.974,-0.422,0.095,35.287,-10.775,-45.604,8.600,23.307,11.944
1743395407.94,0.001,-0.138,-0.089,0.794,-0.142,0.073,34.996,-11.883,-45.692,9.561,23.007,11.630
1743395407.96,0.041,-0.013,-0.073,0.589,0.099,0.146,34.713,-12.819,-45.657,10.348,23.051,11.421
1743395407.98,0.186,-0.028,-0.183,0.409,0.206,0.216,34.719,-13.486,-45.567,10.948,23.235,11.396
1743395408.00,0.228,-0.092,-0.219,0.198,0.084,0.209,34.854,-13.864,-45.061,11.368,23.408,11.490
1743395408.02,0.146,-0.112,-0.244,-0.015,0.063,0.154,34.839,-14.380,-45.010,11.548,23.459,11.647
1743395408.04,0.062,-0.108,-0.271,-0.227,0.153,0.076,34.827,-14.581,-44.992,11.472,23.531,11.822
1743395408.06,0.048,-0.059,-0.280,-0.416,0.182,-0.017,34.974,-14.577,-45.001,11.143,23.693,12.010
1743395408.08,0.044,-0.068,-0.245,-0.577,0.167,-0.161,34.901,-14.157,-44.859,10.582,23.864,12.150
1743395408.10,0.065,-0.053,-0.237,-0.748,0.126,-0.253,35.096,-13.758,-44.720,9.798,24.039,12.234
1743395408.12,0.081,-0.062,-0.274,-0.946,0.120,-0.277,35.462,-12.905,-44.821,8.790,24.147,12.347
1743395408.14,0.084,-0.046,-0.213,-1.135,0.151,-0.310,35.585,-11.919,-44.995,7.563,24.277,12.538
1743395408.16,0.085,-0.075,-0.100,-1.226,0.222,-0.316,35.911,-10.716,-45.106,6.177,24.452,12.763
1743395408.18,0.107,-0.102,-0.094,-1.327,0.255,-0.315,36.303,-9.547,-45.126,4.710,24.712,13.041
1743395408.20,0.086,-0.046,-0.149,-1.474,0.158,-0.314,36.613,-8.144,-45.294,3.105,24.929,13.394
1743395408.22,0.045,-0.040,-0.125,-1.545,0.159,-0.399,36.831,-6.383,-45.318,1.368,25.094,13.758
1743395408.24,0.065,-0.067,-0.078,-1.597,-0.013,-0.417,36.949,-5.158,-45.437,-0.456,25.199,14.097
1743395408.25,0.058,-0.069,-0.075,-1.584,-0.152,-0.492,37.406,-3.489,-45.359,-2.319,25.120,14.409
1743395408.28,-0.037,-0.082,-0.088,-1.632,-0.173,-0.594,37.447,-1.547,-45.631,-4.245,24.921,14.619
1743395408.30,-0.084,-0.033,-0.048,-1.644,-0.096,-0.622,37.262,0.166,-45.659,-6.239,24.779,14.772
1743395408.32,-0.091,-0.012,-0.003,-1.639,0.022,-0.636,37.231,2.068,-45.838,-8.247,24.764,14.911
1743395408.33,-0.112,-0.060,-0.002,-1.575,-0.008,-0.685,37.321,4.157,-45.730,-10.234,24.797,14.999
1743395408.35,-0.056,-0.116,-0.004,-1.515,-0.110,-0.750,37.240,6.134,-45.646,-12.173,24.732,14.985
1743395408.37,-0.027,-0.118,-0.038,-1.497,-0.126,-0.799,36.977,7.906,-45.281,-14.106,24.536,14.898
1743395408.39,-0.052,-0.099,0.007,-1.507,0.037,-0.821,36.796,9.826,-45.235,-16.043,24.456,14.754
1743395408.41,-0.076,-0.070,0.096,-1.495,0.212,-0.821,36.681,11.745,-44.990,-18.006,24.557,14.610
1743395408.43,-0.069,-0.081,0.058,-1.370,0.226,-0.789,36.534,13.632,-44.337,-19.879,24.767,14.444
1743395408.45,0.026,-0.071,0.012,-1.357,0.198,-0.679,36.609,15.666,-43.851,-21.630,24.973,14.320
1743395408.47,0.100,-0.072,0.034,-1.456,0.187,-0.561,36.794,17.371,-42.985,-23.379,25.194,14.364
1743395408.49,0.100,-0.114,0.036,-1.551,0.231,-0.520,36.770,18.993,-42.661,-25.201,25.506,14.573
1743395408.51,0.052,-0.128,0.049,-1.591,0.337,-0.568,36.743,22.478,-40.590,-27.087,25.959,14.819
1743395408.53,0.009,-0.088,0.093,-1.603,0.274,-0.613,36.811,24.206,-39.786,-29.024,26.433,15.041
1743395408.55,-0.028,-0.034,0.005,-1.521,-0.010,-0.587,36.633,26.081,-39.004,-30.941,26.698,15.259
1743395408.57,-0.024,0.030,-0.096,-1.478,0.036,-0.591,36.486,27.857,-38.188,-32.752,26.742,15.457
1743395408.59,-0.035,0.011,0.027,-1.511,0.408,-0.657,36.150,29.345,-37.150,-34.603,27.138,15.624
1743395408.61,-0.030,-0.052,-0.048,-1.418,0.101,-0.679,36.022,30.959,-36.063,-36.445,27.515,15.734
1743395408.63,0.000,-0.059,-0.001,-1.467,0.231,-0.692,35.662,32.452,-35.123,-38.246,27.684,15.809
1743395408.65,0.034,-0.060,0.087,-1.672,0.576,-0.706,35.697,34.293,-33.655,-40.200,28.282,15.979
1743395408.67,0.029,-0.060,0.023,-1.700,0.466,-0.665,35.524,35.684,-32.094,-42.295,29.125,16.299
1743395408.69,0.009,-0.035,-0.078,-1.563,0.269,-0.620,35.336,37.416,-30.718,-44.273,29.783,16.688
1743395408.71,-0.037,-0.026,0.016,-1.480,0.336,-0.683,35.062,38.856,-29.353,-46.143,30.372,17.019
1743395408.73,-0.046,-0.057,-0.004,-1.428,0.311,-0.804,34.889,40.174,-27.973,-48.000,30.863,17.180
1743395408.75,0.014,-0.111,-0.034,-1.468,0.192,-0.839,34.500,41.718,-26.490,-49.902,31.203,17.233
1743395408.77,0.089,-0.141,0.043,-1.531,0.065,-0.752,33.987,43.072,-25.198,-51.844,31.473,17.404
1743395408.79,0.134,-0.139,0.080,-1.532,0.039,-0.602,33.461,44.410,-23.859,-53.742,31.861,17.832
1743395408.81,0.147,-0.104,-0.009,-1.565,0.151,-0.495,32.886,45.437,-22.490,-55.564,32.564,18.561
1743395408.83,0.095,-0.069,-0.082,-1.557,0.100,-0.531,32.572,46.592,-20.920,-57.374,33.458,19.451
1743395408.85,0.027,-0.069,0.044,-1.587,0.043,-0.600,32.148,47.588,-19.409,-59.221,34.279,20.314
1743395408.87,-0.026,-0.068,0.078,-1.671,-0.219,-0.612,31.719,48.601,-17.681,-61.147,35.048,21.290
1743395408.89,-0.034,-0.041,0.001,-1.779,-0.614,-0.565,31.229,49.692,-16.441,-63.146,35.678,22.546
1743395408.91,-0.044,-0.058,0.070,-1.819,-0.818,-0.465,30.478,50.642,-15.109,-65.162,36.375,24.250
1743395408.93,-0.042,-0.096,0.072,-1.676,-0.853,-0.398,29.992,51.889,-14.055,-67.075,37.274,26.287
1743395408.95,-0.006,-0.056,-0.157,-1.448,-0.744,-0.476,29.154,52.457,-12.863,-68.766,38.019,28.110
1743395408.97,-0.025,-0.029,-0.115,-1.343,-0.297,-0.559,28.490,53.058,-11.911,-70.399,38.820,29.609
1743395408.99,-0.058,-0.032,0.058,-1.260,-0.064,-0.423,28.032,53.768,-10.856,-71.906,40.071,31.112
1743395409.01,-0.078,0.004,0.086,-1.298,-0.008,-0.227,27.770,54.206,-9.468,-73.248,42.206,33.392
1743395409.03,-0.104,0.022,0.016,-1.240,0.104,-0.152,27.516,54.799,-8.033,-74.443,45.241,36.505
1743395409.05,-0.112,-0.004,-0.029,-1.068,0.257,-0.253,27.546,54.759,-6.724,-75.511,48.500,39.662
1743395409.07,-0.071,-0.035,-0.019,-0.865,0.314,-0.354,27.428,55.430,-5.592,-76.492,51.287,42.183
1743395409.09,-0.007,-0.054,0.029,-0.801,0.277,-0.300,26.980,55.688,-4.571,-77.363,53.779,44.393
1743395409.11,0.042,-0.046,0.032,-1.008,0.338,-0.218,26.727,56.004,-3.389,-78.182,57.216,47.564
1743395409.13,0.041,-0.038,-0.006,-1.138,0.399,-0.143,26.501,56.302,-1.810,-78.980,62.462,52.476
1743395409.15,-0.010,-0.027,-0.105,-1.020,0.293,-0.130,26.551,56.227,-0.564,-79.641,68.615,58.313
1743395409.17,-0.052,-0.035,-0.098,-0.726,0.000,-0.093,26.313,56.175,0.609,-80.087,73.835,63.435
1743395409.19,-0.047,-0.033,0.002,-0.569,-0.148,-0.036,26.273,56.307,1.189,-80.332,77.656,67.430
1743395409.21,-0.024,-0.026,0.055,-0.631,-0.005,-0.012,26.281,56.472,1.644,-80.479,81.415,71.354
1743395409.23,0.006,-0.022,0.057,-0.707,0.354,0.029,26.340,56.590,2.579,-80.555,86.252,76.057
1743395409.25,0.024,-0.033,0.031,-0.605,0.472,0.070,26.129,56.481,3.599,-80.512,91.365,80.725
1743395409.27,0.028,-0.034,-0.013,-0.371,0.202,0.089,26.474,56.448,4.320,-80.392,95.085,84.072
1743395409.29,0.024,0.015,-0.046,-0.200,-0.180,0.168,26.446,56.291,4.767,-80.216,96.818,85.837
1743395409.31,-0.019,0.077,-0.046,-0.168,-0.217,0.231,26.832,56.251,4.750,-79.961,97.557,86.843
1743395409.33,-0.063,0.070,0.013,-0.051,-0.049,0.250,27.063,56.098,4.849,-79.664,97.957,87.418
1743395409.35,-0.091,0.028,0.097,0.193,0.259,0.259,27.408,56.119,4.911,-79.387,97.453,86.792
1743395409.37,-0.119,-0.003,0.143,0.351,0.530,0.312,27.386,55.788,4.696,-79.107,95.993,84.830
1743395409.39,-0.154,0.045,0.106,0.216,0.540,0.406,27.923,55.727,4.878,-78.731,94.647,82.804
1743395409.41,-0.208,0.111,0.013,-0.079,0.189,0.320,28.144,55.501,4.837,-78.294,94.590,82.290
1743395409.43,-0.213,0.088,0.003,-0.014,-0.227,-0.024,28.259,55.423,5.057,-78.119,94.920,82.667
1743395409.45,-0.116,0.010,0.042,0.145,-0.334,-0.073,28.294,55.481,4.903,-78.217,94.149,82.244
1743395409.47,-0.113,0.024,0.072,0.096,-0.132,0.054,28.334,55.387,4.654,-78.226,93.165,81.525
1743395409.49,-0.153,0.044,0.076,0.081,0.056,-0.026,28.463,55.427,4.397,-78.198,92.700,81.084
1743395409.51,-0.106,0.021,0.080,0.196,0.029,-0.111,28.423,55.339,4.201,-78.293,92.049,80.345
1743395409.53,-0.031,0.005,0.086,0.205,-0.130,-0.060,28.339,55.425,4.035,-78.409,90.822,79.154
1743395409.55,-0.016,0.015,0.073,0.090,-0.215,0.036,28.116,55.416,3.884,-78.422,89.772,78.289
1743395409.57,-0.068,0.029,0.039,0.044,-0.277,0.082,28.216,55.621,3.454,-78.359,89.223,78.019
1743395409.59,-0.103,0.025,0.025,0.151,-0.294,0.035,28.426,55.566,3.333,-78.303,88.477,77.591
1743395409.61,-0.101,0.016,0.005,0.244,-0.355,-0.027,28.407,55.543,2.895,-78.302,87.064,76.519
1743395409.63,-0.083,0.008,0.002,0.253,-0.422,-0.073,28.370,55.384,2.412,-78.343,85.265,75.129
1743395409.65,-0.059,0.001,0.015,0.285,-0.490,-0.097,28.316,55.395,1.755,-78.414,83.236,73.598
1743395409.67,-0.052,-0.011,0.038,0.382,-0.407,-0.115,28.240,55.575,1.032,-78.485,80.781,71.632
1743395409.69,-0.045,-0.008,0.029,0.450,-0.314,-0.109,28.042,55.763,0.579,-78.522,77.959,69.160
1743395409.71,-0.033,0.009,-0.024,0.510,-0.341,-0.114,27.754,55.741,-0.043,-78.517,74.840,66.354
1743395409.73,-0.037,-0.006,-0.059,0.679,-0.326,-0.115,27.652,55.718,-0.944,-78.448,71.135,62.977
1743395409.75,-0.057,-0.015,-0.046,0.955,-0.195,-0.108,27.470,55.590,-1.745,-78.232,66.398,58.446
1743395409.77,-0.049,0.001,-0.075,1.159,-0.036,-0.073,27.468,55.591,-3.045,-77.783,60.902,52.994
1743395409.79,-0.035,-0.007,0.022,1.281,0.553,-0.052,27.290,55.345,-4.228,-77.107,55.653,47.344
1743395409.81,-0.033,-0.019,0.060,1.258,0.863,0.022,27.144,55.431,-5.307,-76.250,51.487,42.140
1743395409.83,-0.024,-0.001,-0.144,1.211,0.284,0.170,27.333,55.227,-6.085,-75.278,48.243,38.123
1743395409.85,-0.038,-0.019,-0.102,1.454,0.421,0.204,27.536,55.079,-7.019,-74.070,45.101,34.526
1743395409.87,0.012,-0.045,0.044,1.369,0.913,0.225,27.562,54.599,-8.270,-72.710,42.618,31.139
1743395409.89,0.078,-0.047,0.054,1.329,0.949,0.237,28.026,54.181,-9.200,-71.412,41.249,28.517
1743395409.91,0.179,-0.080,0.008,1.590,0.573,0.306,28.438,53.744,-10.150,-69.957,39.698,25.931
1743395409.93,0.194,-0.076,0.004,1.599,-0.112,0.476,28.886,53.177,-11.404,-68.229,37.848,23.622
1743395409.95,0.054,-0.056,0.036,1.286,0.129,0.574,29.232,52.446,-13.075,-66.541,36.458,22.325
1743395409.97,-0.054,-0.033,0.082,1.129,0.810,0.488,29.741,51.547,-14.241,-65.076,36.397,21.535
1743395409.99,-0.016,-0.019,0.100,1.124,0.472,0.492,30.430,50.941,-14.865,-63.745,36.507,20.825
1743395410.01,0.030,0.007,-0.079,1.533,-0.325,0.563,31.039,50.249,-15.654,-62.177,35.887,19.950
1743395410.03,-0.019,0.022,-0.240,1.450,-0.938,0.512,31.307,49.354,-17.355,-60.357,34.026,18.883
1743395410.05,-0.079,0.024,0.091,1.033,0.501,0.358,31.581,48.530,-19.133,-58.904,33.156,18.158
1743395410.07,-0.099,-0.013,0.063,0.904,0.432,0.356,31.742,47.811,-19.840,-57.813,33.440,17.677
1743395410.09,-0.018,-0.053,0.048,1.408,-0.476,0.450,32.593,47.246,-20.424,-56.486,32.908,17.095
1743395410.11,0.034,-0.071,0.028,1.798,-1.008,0.514,32.464,46.243,-22.010,-54.607,31.256,16.162
1743395410.13,0.057,-0.117,-0.319,1.583,-1.217,0.654,32.377,44.953,-24.361,-52.559,29.313,15.449
1743395410.15,0.104,-0.100,0.032,1.273,0.112,0.497,32.284,43.781,-26.317,-50.805,28.451,15.161
1743395410.17,0.045,-0.155,0.154,1.186,-0.302,0.454,32.756,42.733,-27.389,-49.369,28.269,14.844
1743395410.19,0.029,-0.142,0.229,1.628,-0.591,0.610,32.975,41.810,-28.870,-47.682,27.427,14.546
1743395410.21,-0.033,-0.082,-0.034,1.904,-0.511,0.640,33.069,40.269,-30.347,-45.516,26.499,14.122
1743395410.23,-0.049,0.015,-0.187,1.554,-0.168,0.570,32.960,38.612,-32.372,-43.390,25.826,13.756
1743395410.25,-0.028,0.071,0.036,1.133,0.320,0.542,33.314,37.147,-33.489,-41.768,25.876,13.614
1743395410.27,-0.026,0.045,0.103,1.171,-0.007,0.672,33.865,36.022,-34.199,-40.319,26.151,13.721
1743395410.29,-0.060,0.019,-0.013,1.402,-0.183,0.710,34.310,34.658,-35.126,-38.638,26.067,13.800
1743395410.31,-0.070,0.049,-0.044,1.251,-0.024,0.660,34.477,33.072,-35.899,-36.899,25.949,13.832
1743395410.33,-0.025,-0.008,0.052,1.115,0.029,0.721,34.736,31.772,-36.747,-35.374,26.054,13.974
1743395410.35,0.090,-0.062,0.041,1.134,0.063,0.783,35.277,30.537,-37.289,-33.833,26.238,14.238
1743395410.37,0.096,-0.092,0.088,1.154,0.065,0.711,35.565,28.891,-38.130,-32.289,26.461,14.472
1743395410.39,0.041,-0.120,0.063,1.291,0.020,0.733,35.985,27.483,-38.792,-30.673,26.572,14.589
1743395410.41,0.030,-0.127,-0.013,1.221,0.015,0.817,36.435,25.803,-39.279,-28.970,26.664,14.754
1743395410.43,0.019,-0.053,0.028,1.174,-0.110,0.753,36.803,24.175,-39.659,-27.362,26.761,15.003
1743395410.45,-0.069,-0.010,-0.020,1.398,-0.310,0.620,36.957,22.758,-40.420,-25.689,26.531,15.042
1743395410.47,-0.101,0.023,-0.002,1.365,-0.427,0.587,36.953,21.037,-41.326,-23.965,26.061,14.932
1743395410.49,-0.043,0.093,0.011,1.370,-0.385,0.521,36.890,19.668,-42.059,-22.278,25.541,14.824
1743395410.51,0.025,0.091,-0.063,1.336,-0.475,0.530,36.720,18.123,-43.048,-20.637,24.988,14.675
1743395410.53,-0.006,0.018,-0.185,1.126,-0.021,0.532,36.475,16.398,-43.727,-19.091,24.622,14.655
1743395410.55,-0.209,-0.078,0.076,1.189,0.056,0.426,36.236,15.060,-44.242,-17.713,24.703,14.594
1743395410.57,-0.071,-0.213,0.120,1.484,0.055,0.392,36.567,13.651,-44.306,-16.095,24.682,14.373
1743395410.59,0.075,-0.050,-0.016,1.336,0.086,0.407,36.621,12.007,-44.683,-14.426,24.684,14.083
1743395410.61,0.123,0.158,-0.121,1.166,0.058,0.448,36.569,10.496,-45.053,-12.934,24.782,13.928
1743395410.63,0.178,0.057,0.010,1.068,-0.129,0.516,36.741,9.190,-45.349,-11.557,24.690,13.898
1743395410.65,0.103,-0.073,-0.031,1.082,-0.069,0.454,36.543,7.678,-45.724,-10.204,24.544,13.905
1743395410.67,-0.031,-0.058,0.138,1.100,0.059,0.486,36.525,6.267,-45.671,-8.863,24.524,13.857
1743395410.69,-0.042,0.094,0.058,1.092,0.264,0.600,36.518,4.998,-45.843,-7.454,24.725,13.905
1743395410.71,-0.056,0.129,-0.096,1.052,0.209,0.628,36.726,3.533,-45.740,-6.039,25.025,14.035
1743395410.73,0.134,-0.085,-0.163,1.026,-0.124,0.429,37.071,2.024,-45.508,-4.708,25.100,14.088
1743395410.75,0.148,-0.158,-0.089,1.011,-0.390,0.225,36.948,0.683,-45.500,-3.491,24.784,13.927
1743395410.77,-0.139,-0.062,0.080,1.045,-0.228,0.174,36.722,-0.376,-46.148,-2.347,24.375,13.636
1743395410.79,-0.270,0.106,-0.046,1.087,-0.096,0.251,36.303,-1.581,-46.191,-1.129,24.202,13.351
1743395410.81,-0.061,0.061,-0.134,1.133,-0.082,0.129,36.221,-2.864,-46.223,0.153,24.115,13.043
1743395410.83,0.198,-0.112,-0.199,0.979,-0.441,-0.050,36.109,-3.790,-46.199,1.269,23.808,12.602
1743395410.85,0.134,-0.115,-0.190,0.902,-0.436,-0.211,35.726,-4.669,-46.450,2.193,23.269,12.020
1743395410.87,-0.080,-0.099,-0.217,0.754,-0.107,-0.241,35.502,-5.617,-46.671,2.981,22.998,11.389
1743395410.89,0.145,-0.021,-0.192,0.460,0.091,-0.132,35.169,-6.223,-46.726,3.516,23.067,10.913
1743395410.91,0.374,-0.015,-0.218,0.169,-0.008,-0.060,35.224,-6.469,-46.559,3.806,23.125,10.674
1743395410.93,0.224,-0.038,-0.204,-0.051,0.061,-0.035,35.184,-6.623,-46.440,3.843,23.151,10.610
1743395410.95,0.118,-0.049,-0.274,-0.298,0.200,-0.049,35.308,-6.698,-46.151,3.642,23.295,10.651
1743395410.97,0.067,-0.036,-0.336,-0.522,0.186,-0.107,35.409,-6.384,-46.129,3.178,23.520,10.758
1743395410.99,0.139,-0.025,-0.269,-0.722,0.085,-0.149,35.626,-5.943,-46.325,2.468,23.673,10.910
1743395411.01,0.050,0.003,-0.234,-0.877,0.009,-0.229,35.726,-5.220,-46.224,1.544,23.716,11.087
1743395411.03,-0.064,0.019,-0.215,-0.991,0.070,-0.367,35.866,-4.157,-46.038,0.427,23.738,11.217
1743395411.05,-0.003,-0.083,-0.241,-1.135,0.139,-0.431,36.151,-3.089,-46.326,-0.862,23.882,11.271
1743395411.07,0.123,-0.020,-0.144,-1.247,0.004,-0.427,36.282,-1.773,-46.274,-2.313,23.983,11.382
1743395411.09,0.088,-0.060,-0.033,-1.288,-0.038,-0.413,36.321,-0.369,-46.063,-3.820,23.981,11.532
1743395411.11,0.035,-0.101,-0.094,-1.410,0.015,-0.382,36.462,1.171,-46.155,-5.410,23.956,11.728
1743395411.13,0.067,-0.078,-0.089,-1.536,0.068,-0.374,36.530,2.565,-46.052,-7.132,24.043,12.036
1743395411.15,0.016,-0.063,0.020,-1.487,0.023,-0.471,36.598,4.275,-45.746,-8.914,24.145,12.309
1743395411.16,0.002,-0.150,-0.013,-1.426,-0.089,-0.534,36.960,6.016,-45.968,-10.659,24.128,12.462
1743395411.18,-0.024,-0.137,-0.054,-1.512,0.054,-0.581,36.870,7.503,-45.663,-12.444,24.117,12.566
1743395411.20,-0.009,-0.045,-0.012,-1.553,0.109,-0.613,36.605,9.435,-45.254,-14.327,24.239,12.669
1743395411.22,-0.026,-0.049,0.041,-1.464,0.118,-0.611,36.567,11.268,-44.929,-16.195,24.406,12.746
1743395411.24,-0.014,-0.127,-0.054,-1.467,0.107,-0.651,36.591,13.080,-44.478,-18.001,24.536,12.783
1743395411.27,-0.022,-0.111,-0.032,-1.527,0.148,-0.681,36.542,14.712,-43.901,-19.875,24.694,12.804
1743395411.28,-0.028,-0.081,0.027,-1.565,0.333,-0.738,36.672,16.730,-43.390,-21.819,24.969,12.812
1743395411.30,0.023,-0.078,0.012,-1.581,0.309,-0.711,36.832,18.507,-42.785,-23.802,25.344,12.821
1743395411.32,0.024,-0.065,0.012,-1.526,0.222,-0.652,36.691,20.602,-41.780,-25.740,25.699,12.893
1743395411.34,-0.033,-0.081,-0.054,-1.501,0.210,-0.661,36.863,22.195,-40.841,-27.608,25.959,12.984
1743395411.36,-0.054,-0.049,-0.005,-1.633,0.387,-0.664,36.612,24.079,-40.256,-29.547,26.345,13.101
1743395411.38,-0.011,-0.071,-0.015,-1.628,0.455,-0.628,36.594,25.646,-39.256,-31.560,26.963,13.311
1743395411.40,0.040,-0.092,-0.051,-1.577,0.406,-0.641,36.690,27.792,-37.949,-33.503,27.559,13.545
1743395411.42,0.055,-0.088,0.016,-1.653,0.366,-0.738,36.449,29.224,-36.544,-35.490,28.126,13.746
1743395411.44,0.053,-0.083,0.014,-1.737,0.261,-0.811,36.491,30.912,-35.510,-37.619,28.589,13.916
1743395411.46,0.066,-0.058,0.040,-1.838,0.323,-0.809,36.265,32.928,-34.023,-39.859,29.025,14.129
1743395411.48,0.044,-0.067,0.045,-1.820,0.404,-0.729,35.961,34.624,-32.653,-42.131,29.688,14.477
1743395411.50,0.014,-0.092,0.016,-1.670,0.322,-0.668,35.788,36.407,-31.126,-44.249,30.408,14.907
1743395411.52,-0.001,-0.105,0.014,-1.684,0.254,-0.686,35.538,38.087,-29.349,-46.268,31.031,15.340
1743395411.54,-0.001,-0.090,0.005,-1.802,0.280,-0.714,35.346,39.659,-28.062,-48.391,31.712,15.864
1743395411.56,-0.018,-0.047,0.034,-1.753,0.242,-0.707,34.913,41.183,-26.467,-50.559,32.490,16.477
1743395411.58,-0.027,-0.008,0.041,-1.663,0.115,-0.670,34.490,42.674,-24.749,-52.618,33.208,17.108
1743395411.60,0.011,-0.017,-0.010,-1.641,-0.044,-0.655,34.051,43.893,-23.358,-54.604,33.784,17.804
1743395411.62,0.024,-0.026,0.040,-1.684,-0.126,-0.700,33.820,45.228,-22.034,-56.600,34.310,18.548
1743395411.64,0.015,-0.046,0.061,-1.702,-0.179,-0.720,33.094,46.588,-20.415,-58.664,34.803,19.347
1743395411.66,0.022,-0.059,0.005,-1.643,-0.241,-0.640,32.468,47.726,-18.806,-60.678,35.352,20.252
1743395411.68,-0.008,-0.082,0.042,-1.620,-0.323,-0.534,31.712,48.657,-17.430,-62.575,36.034,21.388
1743395411.70,-0.033,-0.089,0.065,-1.688,-0.465,-0.449,31.186,49.530,-16.108,-64.421,36.939,22.888
1743395411.72,-0.027,-0.086,0.039,-1.779,-0.627,-0.408,29.890,51.523,-13.533,-66.299,38.108,24.867
1743395411.74,-0.013,-0.091,0.047,-1.739,-0.655,-0.416,29.343,52.241,-12.259,-68.155,39.513,27.204
1743395411.76,-0.025,-0.104,0.090,-1.718,-0.559,-0.520,28.867,53.090,-11.153,-70.005,41.094,29.648
1743395411.78,-0.000,-0.080,0.054,-1.676,-0.383,-0.615,28.124,53.652,-9.570,-71.882,42.904,32.129
1743395411.80,0.071,-0.038,0.025,-1.626,-0.268,-0.465,27.749,54.536,-7.802,-73.686,45.270,34.980
1743395411.82,0.080,-0.007,0.058,-1.555,-0.153,-0.212,27.498,55.017,-6.471,-75.205,48.917,39.009
1743395411.84,0.024,0.015,-0.023,-1.376,-0.212,-0.118,27.254,55.406,-5.024,-76.394,53.479,43.909
1743395411.86,-0.104,-0.000,-0.113,-1.191,-0.449,-0.118,27.288,55.717,-3.841,-77.327,57.948,48.880
1743395411.88,-0.222,-0.056,-0.114,-1.082,-0.675,-0.061,27.058,55.782,-2.988,-78.064,62.208,53.901
1743395411.90,-0.272,-0.055,-0.052,-0.904,-0.707,-0.041,26.843,55.735,-2.169,-78.608,66.262,58.883
1743395411.92,-0.224,-0.012,0.024,-0.721,-0.322,-0.037,27.039,55.938,-1.603,-78.992,69.860,63.172
1743395411.94,-0.176,0.028,0.047,-0.708,0.226,-0.059,27.065,55.914,-0.924,-79.293,73.710,67.151
1743395411.96,-0.118,0.064,0.044,-0.686,0.750,-0.138,26.972,55.996,0.072,-79.589,78.305,71.246
1743395411.98,-0.043,0.067,-0.017,-0.649,1.113,-0.251,26.732,55.944,1.340,-79.929,83.371,75.296
1743395412.00,0.067,0.010,-0.034,-0.515,1.191,-0.265,26.413,56.281,2.713,-80.289,88.440,79.064
1743395412.02,0.150,-0.038,-0.103,-0.393,0.841,-0.143,26.114,56.240,3.891,-80.522,92.672,82.154
1743395412.04,0.187,-0.041,-0.124,-0.335,0.417,-0.004,25.893,56.338,4.410,-80.572,95.883,84.689
1743395412.06,0.157,-0.019,-0.113,-0.323,-0.013,0.105,26.145,56.380,5.077,-80.465,98.329,86.919
1743395412.08,0.066,-0.014,-0.016,-0.232,-0.494,0.151,26.367,56.594,4.961,-80.263,99.780,88.694
1743395412.10,0.024,-0.035,0.071,-0.166,-0.609,0.158,26.430,56.149,4.973,-80.050,100.162,89.760
1743395412.12,0.007,-0.059,0.125,-0.161,-0.477,0.208,26.819,56.187,4.966,-79.821,100.382,90.617
1743395412.14,-0.024,-0.015,0.136,-0.166,-0.231,0.333,26.955,55.915,4.782,-79.489,100.621,91.286
1743395412.16,-0.093,0.048,0.093,-0.302,0.186,0.444,27.437,55.673,4.993,-78.993,101.475,92.186
1743395412.18,-0.161,0.089,0.021,-0.337,0.485,0.340,27.681,55.753,5.646,-78.451,103.290,93.616
1743395412.20,-0.213,0.096,-0.070,-0.105,0.268,0.122,27.989,55.448,5.912,-78.135,104.745,94.611
1743395412.22,-0.214,0.074,-0.091,0.159,-0.227,0.105,28.193,55.513,6.019,-78.038,104.417,94.259
1743395412.24,-0.194,0.059,-0.012,0.237,-0.287,0.088,28.475,55.417,5.662,-77.974,102.823,92.996
1743395412.26,-0.158,0.033,0.072,0.283,0.067,-0.020,28.629,55.193,5.363,-77.998,101.321,91.590
1743395412.28,-0.107,0.008,0.096,0.301,0.200,-0.062,28.442,55.421,5.378,-78.117,99.933,89.987
1743395412.30,-0.069,0.019,0.083,0.204,0.139,-0.072,28.442,55.336,5.002,-78.236,98.837,88.664
1743395412.32,-0.037,0.001,0.086,0.216,0.038,-0.070,28.368,55.593,5.008,-78.357,97.919,87.619
1743395412.34,-0.015,0.000,0.083,0.262,-0.066,-0.015,28.108,55.398,4.626,-78.441,96.583,86.275
1743395412.36,-0.017,0.020,0.069,0.240,-0.114,-0.016,28.022,55.359,4.299,-78.483,95.069,84.834
1743395412.38,-0.019,0.008,0.073,0.241,-0.182,-0.004,28.145,55.439,4.014,-78.523,93.601,83.504
1743395412.40,-0.035,-0.012,0.083,0.321,-0.269,0.063,28.187,55.573,3.568,-78.506,91.763,81.894
1743395412.42,-0.060,-0.002,0.063,0.352,-0.348,0.139,28.109,55.327,3.233,-78.394,89.493,79.938
1743395412.44,-0.111,0.018,0.032,0.359,-0.438,0.178,28.231,55.317,2.502,-78.194,87.127,77.973
1743395412.46,-0.173,0.035,0.008,0.420,-0.545,0.128,28.493,55.199,1.845,-77.979,84.571,75.941
1743395412.48,-0.199,0.050,0.051,0.596,-0.416,-0.007,28.699,54.837,1.069,-77.836,81.374,73.264
1743395412.50,-0.194,0.049,0.101,0.762,-0.072,-0.116,28.715,55.011,0.142,-77.765,77.452,69.548
1743395412.52,-0.150,0.016,0.109,0.832,0.300,-0.182,28.322,55.096,-0.849,-77.700,73.318,65.181
1743395412.54,-0.089,-0.004,0.051,0.846,0.510,-0.206,28.309,55.256,-1.448,-77.607,69.274,60.534
1743395412.56,-0.031,0.005,-0.110,0.987,0.462,-0.124,28.013,55.132,-1.973,-77.402,65.285,55.888
1743395412.58,-0.021,-0.012,-0.044,1.439,0.764,-0.038,27.784,55.082,-2.865,-76.843,60.404,50.193
1743395412.60,-0.029,0.004,-0.021,1.609,0.717,-0.072,27.940,55.080,-3.953,-75.938,55.005,43.688
1743395412.62,0.017,0.002,-0.175,1.624,0.069,-0.134,27.653,54.751,-5.426,-74.909,49.541,37.598
1743395412.64,0.046,-0.029,-0.105,1.636,-0.014,-0.091,27.642,54.651,-7.054,-73.723,44.275,32.151
1743395412.66,0.077,-0.086,-0.055,1.357,0.274,0.164,27.367,54.498,-8.540,-72.442,40.641,28.232
1743395412.68,0.122,-0.147,-0.011,1.381,0.956,0.479,27.658,53.885,-9.800,-71.028,39.204,26.034
1743395412.70,0.108,-0.162,0.148,1.521,1.473,0.615,28.344,53.309,-10.528,-69.344,39.155,24.391
1743395412.72,0.120,-0.145,0.018,1.634,0.556,0.720,29.207,52.513,-11.296,-67.457,39.024,22.881
1743395412.74,0.144,-0.041,-0.205,1.319,-0.641,0.653,29.785,51.680,-12.702,-65.583,37.811,21.737
1743395412.76,0.122,0.041,0.088,1.041,-0.076,0.464,30.442,50.973,-14.297,-64.175,36.722,21.086
1743395412.78,0.074,0.047,0.138,1.036,0.310,0.422,31.074,50.357,-15.207,-62.922,36.314,20.374
1743395412.80,0.011,0.038,0.014,1.355,-0.508,0.421,31.407,49.708,-16.206,-61.579,35.571,19.583
1743395412.82,-0.065,0.057,0.011,1.926,-0.501,0.334,31.460,48.979,-17.914,-59.753,33.531,18.081
1743395412.84,-0.198,0.002,-0.235,1.526,-0.424,0.396,31.590,47.941,-19.895,-57.798,31.845,16.558
1743395412.86,-0.153,-0.072,-0.085,0.833,0.130,0.583,31.694,47.155,-21.569,-56.408,31.170,16.217
1743395412.88,-0.139,-0.088,0.277,0.793,1.021,0.613,32.330,46.440,-22.149,-55.274,32.156,16.418
1743395412.90,-0.040,-0.121,0.154,1.088,0.155,0.722,32.981,45.739,-22.344,-54.010,33.031,16.575
1743395412.92,0.158,-0.024,0.206,1.702,0.013,0.577,33.583,44.691,-23.331,-52.221,32.681,16.166
1743395412.94,0.231,0.027,-0.082,1.524,-0.304,0.533,34.221,43.419,-24.394,-50.303,31.977,15.363
1743395412.96,0.280,0.071,-0.059,1.209,-0.455,0.635,34.425,42.188,-25.884,-48.627,31.193,14.987
1743395412.98,0.149,-0.001,-0.018,1.198,-1.067,0.653,34.555,40.884,-27.385,-47.107,30.354,14.932
1743395413.00,-0.003,-0.069,0.014,1.529,-1.319,0.568,34.435,39.775,-29.098,-45.390,28.693,14.696
1743395413.02,-0.210,-0.148,0.088,1.511,-0.517,0.534,33.987,38.303,-31.135,-43.566,27.397,14.293
1743395413.04,-0.314,-0.169,-0.171,1.289,-0.169,0.726,34.038,37.201,-32.696,-41.776,26.853,14.153
1743395413.06,-0.087,-0.002,0.102,0.914,0.665,0.672,34.395,35.533,-33.656,-40.307,27.360,14.365
1743395413.08,0.192,0.071,0.109,1.057,0.027,0.715,35.154,34.331,-34.025,-38.994,27.977,14.622
1743395413.10,0.194,0.073,0.039,1.343,-0.408,0.707,35.494,33.201,-34.495,-37.376,27.795,14.714
1743395413.12,0.069,-0.027,-0.083,1.350,-0.565,0.619,35.737,31.581,-35.785,-35.649,27.184,14.660
1743395413.14,-0.015,-0.123,-0.048,1.248,-0.436,0.617,35.590,30.085,-36.863,-34.007,26.556,14.596
1743395413.16,-0.051,-0.084,0.009,1.168,-0.334,0.571,35.699,28.755,-38.090,-32.472,26.133,14.595
1743395413.18,-0.053,0.011,0.044,1.099,-0.181,0.579,35.687,27.385,-38.828,-31.029,25.840,14.626
1743395413.20,-0.060,0.055,0.075,1.179,-0.210,0.591,35.977,26.109,-39.513,-29.579,25.675,14.680
1743395413.22,-0.018,-0.007,-0.035,1.283,-0.428,0.675,36.077,24.666,-40.403,-27.979,25.309,14.724
1743395413.24,-0.005,-0.022,-0.102,1.171,-0.284,0.608,35.840,23.122,-41.474,-26.380,24.914,14.810
1743395413.26,-0.138,0.001,0.003,1.055,-0.032,0.489,35.851,21.919,-42.139,-24.983,24.725,14.855
1743395413.28,-0.125,-0.031,0.078,1.230,-0.007,0.464,35.954,20.332,-42.603,-23.590,24.738,14.800
1743395413.30,0.004,-0.096,0.108,1.452,-0.076,0.422,36.160,19.141,-42.984,-21.974,24.592,14.595
1743395413.32,-0.030,-0.083,0.026,1.529,-0.116,0.454,36.035,17.440,-43.743,-20.206,24.380,14.310
1743395413.34,-0.003,0.014,-0.037,1.340,0.043,0.624,36.159,15.871,-44.175,-18.449,24.249,14.171
1743395413.36,0.052,-0.079,0.037,1.223,0.087,0.747,36.307,14.192,-44.558,-16.805,24.384,14.310
1743395413.38,0.052,-0.079,0.116,1.263,0.053,0.673,36.567,12.653,-44.849,-15.175,24.528,14.472
1743395413.40,0.077,-0.070,0.087,1.370,-0.059,0.673,36.749,10.857,-45.366,-13.489,24.495,14.512
1743395413.42,-0.003,0.083,-0.024,1.292,-0.021,0.816,36.696,9.037,-45.567,-11.748,24.468,14.673
1743395413.44,-0.114,-0.041,-0.016,1.369,-0.181,0.768,36.682,7.365,-45.807,-9.992,24.393,14.896
1743395413.46,-0.045,-0.198,0.020,1.377,-0.194,0.650,36.548,5.457,-46.213,-8.227,24.203,14.969
1743395413.48,0.067,-0.191,-0.052,1.332,-0.224,0.557,36.471,3.561,-46.437,-6.522,23.923,14.958
1743395413.50,-0.045,0.090,-0.026,1.273,-0.073,0.521,36.265,1.995,-46.602,-4.918,23.761,14.921
1743395413.52,-0.089,0.201,0.022,1.262,-0.096,0.567,36.152,0.340,-46.357,-3.346,23.698,14.902
1743395413.54,0.051,0.083,-0.072,1.361,-0.189,0.539,36.172,-1.388,-46.589,-1.731,23.552,14.886
1743395413.56,-0.027,-0.070,-0.083,1.395,-0.291,0.413,35.801,-2.785,-46.761,-0.048,23.260,14.758
1743395413.58,-0.040,-0.115,-0.072,1.321,-0.170,0.308,35.316,-4.803,-46.901,1.535,22.996,14.528
1743395413.60,0.078,0.006,-0.091,1.254,-0.152,0.229,34.998,-6.008,-47.041,3.008,22.837,14.237
1743395413.62,0.136,0.157,-0.152,1.213,-0.293,0.204,34.971,-7.341,-46.825,4.409,22.614,13.913
1743395413.64,-0.022,0.080,-0.152,1.143,-0.378,0.178,34.736,-8.597,-46.920,5.747,22.244,13.595
1743395413.66,-0.030,-0.134,-0.104,1.081,-0.237,0.042,34.258,-9.836,-47.046,6.964,21.945,13.250
1743395413.68,0.075,-0.206,-0.045,0.968,-0.122,-0.020,33.964,-10.672,-46.896,8.050,21.781,12.801
1743395413.70,0.060,-0.103,-0.097,0.791,0.120,0.025,33.763,-11.833,-46.838,8.990,21.846,12.425
1743395413.72,0.098,0.062,-0.235,0.596,0.076,0.076,33.874,-12.581,-46.550,9.773,22.046,12.171
1743395413.74,0.310,-0.095,-0.304,0.364,0.002,0.117,33.776,-13.418,-46.326,10.308,22.100,12.073
1743395413.76,0.030,-0.074,-0.229,0.115,-0.073,0.069,33.675,-13.734,-46.191,10.601,22.032,12.077
1743395413.78,-0.079,-0.104,-0.238,-0.039,0.151,-0.010,33.538,-13.923,-46.018,10.664,22.080,12.093
1743395413.80,0.006,-0.102,-0.277,-0.231,0.211,-0.100,33.691,-13.580,-46.300,10.496,22.298,12.093
1743395413.82,0.092,-0.093,-0.324,-0.446,0.130,-0.193,33.805,-13.484,-46.110,10.079,22.505,12.086
1743395413.84,0.071,-0.116,-0.243,-0.631,0.052,-0.303,34.225,-13.210,-45.862,9.403,22.607,12.064
1743395413.86,0.082,-0.125,-0.195,-0.789,0.094,-0.375,34.215,-12.353,-46.010,8.495,22.684,12.014
1743395413.88,0.120,-0.121,-0.208,-0.983,0.140,-0.314,34.510,-11.514,-46.054,7.418,22.817,12.024
1743395413.90,0.173,-0.055,-0.204,-1.226,0.267,-0.249,34.775,-10.494,-46.177,6.125,23.025,12.227
1743395413.92,0.116,-0.031,-0.153,-1.392,0.273,-0.204,34.978,-9.220,-46.364,4.647,23.313,12.585
1743395413.94,0.075,-0.034,-0.098,-1.485,0.320,-0.239,35.392,-7.784,-46.434,3.040,23.627,13.016
1743395413.96,0.022,-0.071,-0.134,-1.533,0.247,-0.322,35.606,-6.377,-46.421,1.338,23.949,13.418
1743395413.98,0.020,-0.072,-0.085,-1.584,0.153,-0.423,36.204,-4.764,-46.215,-0.463,24.193,13.756
1743395414.00,-0.017,-0.052,-0.057,-1.557,0.076,-0.512,36.583,-2.909,-46.322,-2.319,24.303,14.009
1743395414.02,-0.058,-0.054,-0.071,-1.532,0.063,-0.601,36.694,-1.055,-46.219,-4.188,24.383,14.151
1743395414.04,-0.062,-0.038,-0.014,-1.537,0.144,-0.649,36.731,0.737,-46.285,-6.080,24.519,14.226
1743395414.06,-0.058,-0.057,-0.035,-1.519,0.099,-0.721,36.944,2.563,-46.229,-7.986,24.656,14.247
1743395414.08,-0.055,-0.071,-0.041,-1.492,0.099,-0.815,37.031,4.498,-45.861,-9.917,24.778,14.163
1743395414.10,0.012,-0.052,-0.038,-1.518,0.063,-0.856,37.237,6.637,-45.533,-11.875,24.833,14.011
1743395414.12,0.026,-0.022,0.053,-1.540,0.113,-0.852,37.518,8.630,-45.279,-13.876,24.904,13.864
1743395414.13,-0.052,-0.051,-0.006,-1.464,-0.019,-0.861,37.286,10.749,-44.995,-15.843,24.929,13.697
1743395414.15,-0.099,-0.118,-0.065,-1.476,-0.076,-0.909,37.146,12.685,-44.521,-17.781,24.774,13.477
1743395414.17,-0.042,-0.115,-0.059,-1.588,0.030,-0.899,37.059,14.464,-43.966,-19.801,24.677,13.251
1743395414.19,0.074,-0.095,0.049,-1.675,0.297,-0.825,36.752,16.515,-43.627,-21.907,24.824,13.126
1743395414.21,0.114,-0.077,0.089,-1.728,0.284,-0.739,36.555,18.735,-42.813,-24.049,25.192,13.149
1743395414.23,0.078,-0.047,0.018,-1.723,0.138,-0.706,36.609,20.657,-41.954,-26.181,25.464,13.259
1743395414.25,0.034,-0.049,0.053,-1.761,0.221,-0.655,36.682,22.591,-41.098,-28.316,25.726,13.431
1743395414.27,0.028,-0.079,0.041,-1.789,0.321,-0.565,36.508,24.670,-40.065,-30.440,26.197,13.736
1743395414.29,0.021,-0.094,0.020,-1.839,0.249,-0.520,36.441,26.303,-38.889,-32.569,26.768,14.174
1743395414.31,-0.022,-0.097,0.002,-1.751,0.193,-0.548,36.290,28.049,-37.660,-34.678,27.277,14.660
1743395414.33,-0.075,-0.108,0.005,-1.747,0.245,-0.634,36.283,29.885,-36.392,-36.746,27.739,15.050
1743395414.35,-0.058,-0.139,0.010,-1.787,0.612,-0.651,36.251,31.529,-35.344,-38.874,28.448,15.424
1743395414.37,-0.017,-0.148,0.053,-1.823,0.758,-0.652,36.441,33.438,-34.076,-41.039,29.547,15.885
1743395414.39,-0.001,-0.129,0.054,-1.811,0.651,-0.629,36.239,35.349,-31.990,-43.215,30.748,16.437
1743395414.41,0.007,-0.070,-0.022,-1.730,0.408,-0.614,36.374,36.758,-30.123,-45.311,31.791,17.063
1743395414.43,0.035,-0.022,-0.043,-1.655,0.357,-0.626,35.985,38.408,-28.418,-47.312,32.649,17.684
1743395414.45,0.031,-0.028,0.074,-1.732,0.439,-0.675,35.902,39.856,-26.860,-49.327,33.604,18.338
1743395414.47,0.035,-0.063,0.043,-1.711,0.181,-0.683,35.592,41.358,-25.089,-51.411,34.550,19.062
1743395414.49,0.043,-0.047,0.028,-1.584,-0.194,-0.590,35.393,42.864,-23.519,-53.376,35.163,19.851
1743395414.51,0.032,0.002,-0.017,-1.461,-0.425,-0.561,34.828,44.056,-22.353,-55.160,35.433,20.657
1743395414.53,0.024,0.011,0.004,-1.509,-0.219,-0.630,34.041,45.200,-21.277,-56.928,35.658,21.424
1743395414.55,0.008,-0.025,0.052,-1.572,-0.022,-0.655,33.728,46.068,-20.167,-58.796,36.260,22.244
1743395414.57,0.009,-0.074,0.046,-1.528,-0.218,-0.541,33.145,47.266,-18.688,-60.629,36.996,23.233
1743395414.59,0.008,-0.082,0.030,-1.500,-0.571,-0.384,32.741,48.361,-17.299,-62.319,37.721,24.554
1743395414.61,0.006,-0.068,0.023,-1.571,-0.780,-0.313,32.138,49.325,-16.320,-63.930,38.428,26.257
1743395414.63,-0.007,-0.067,0.089,-1.662,-0.668,-0.354,31.650,50.107,-15.287,-65.604,39.453,28.324
1743395414.65,-0.030,-0.034,0.095,-1.589,-0.457,-0.505,31.149,50.789,-14.309,-67.347,40.723,30.413
1743395414.67,-0.041,0.021,0.024,-1.491,-0.218,-0.667,30.652,51.625,-12.836,-69.113,41.944,32.148
1743395414.69,-0.006,0.019,0.077,-1.376,-0.029,-0.510,29.895,52.507,-11.500,-70.797,43.462,33.895
1743395414.71,-0.031,0.025,0.008,-1.320,0.018,-0.340,29.399,53.069,-10.176,-72.210,45.678,36.224
1743395414.73,-0.061,-0.016,0.023,-1.336,0.045,-0.308,28.898,53.610,-8.911,-73.511,48.504,39.150
1743395414.75,-0.055,-0.061,0.014,-1.342,0.149,-0.326,28.851,54.363,-7.390,-74.764,51.944,42.618
1743395414.77,-0.029,-0.096,0.031,-1.297,0.292,-0.374,28.606,54.827,-6.043,-75.983,55.974,46.523
1743395414.79,-0.014,-0.097,0.004,-1.139,0.350,-0.331,28.244,54.940,-4.477,-77.072,60.411,50.698
1743395414.81,-0.023,-0.073,-0.041,-0.929,0.340,-0.180,27.498,55.729,-1.935,-77.878,64.884,54.872
1743395414.83,-0.059,-0.044,-0.093,-0.777,0.257,-0.015,27.506,55.524,-0.799,-78.351,69.304,59.039
1743395414.85,-0.124,-0.052,-0.088,-0.651,0.247,-0.006,27.542,55.780,0.258,-78.609,73.313,62.847
1743395414.87,-0.156,-0.050,-0.103,-0.697,0.247,-0.073,27.466,55.702,1.098,-78.836,77.187,66.513
1743395414.89,-0.105,-0.004,-0.097,-0.775,0.309,-0.186,27.321,55.774,1.911,-79.142,81.730,70.814
1743395414.91,0.010,0.017,-0.005,-0.518,0.279,-0.180,27.328,56.063,2.953,-79.445,85.932,74.739
1743395414.93,0.091,0.017,0.043,-0.280,0.252,-0.093,27.157,56.087,3.349,-79.624,88.554,77.101
1743395414.95,0.107,-0.013,0.044,-0.271,0.220,0.028,27.035,56.136,4.014,-79.670,90.442,78.736
1743395414.97,0.069,-0.023,0.028,-0.465,0.054,0.189,27.197,56.173,4.564,-79.532,92.784,80.948
1743395414.99,0.004,0.005,-0.034,-0.702,-0.145,0.241,27.451,55.964,5.064,-79.216,96.247,84.521
1743395415.01,-0.056,0.025,-0.063,-0.664,-0.349,0.180,27.698,55.716,5.482,-78.865,99.901,88.541
1743395415.03,-0.052,0.026,-0.008,-0.431,-0.353,0.186,27.812,55.578,5.964,-78.547,102.409,91.529
1743395415.05,-0.059,0.038,0.054,-0.213,-0.108,0.269,28.132,55.435,5.993,-78.215,103.529,92.963
1743395415.07,-0.114,0.050,0.045,-0.132,0.323,0.301,28.465,55.155,6.335,-77.842,104.099,93.433
1743395415.09,-0.132,0.062,0.018,-0.032,0.524,0.206,28.659,55.157,6.598,-77.528,104.773,93.573
1743395415.11,-0.122,0.073,-0.001,0.144,0.181,0.127,28.778,54.873,6.933,-77.370,104.691,93.046
1743395415.13,-0.154,0.083,-0.011,0.102,-0.213,0.112,28.890,54.907,6.794,-77.278,103.754,92.127
1743395415.15,-0.192,0.079,0.000,-0.100,-0.246,0.003,29.074,55.010,6.442,-77.201,103.419,92.083
1743395415.17,-0.159,0.026,0.050,0.008,-0.077,-0.121,28.989,54.869,6.509,-77.256,103.675,92.535
1743395415.19,-0.070,-0.026,0.094,0.282,-0.012,-0.109,28.860,54.869,6.595,-77.436,103.047,91.930
1743395415.21,-0.015,-0.044,0.137,0.386,-0.040,0.000,28.724,54.992,6.118,-77.587,101.308,90.176
1743395415.23,0.006,0.003,0.135,0.251,0.035,0.124,28.762,55.092,5.731,-77.583,99.500,88.352
1743395415.25,-0.003,0.064,0.075,-0.047,0.210,0.110,29.047,55.044,5.741,-77.456,99.058,87.747
1743395415.27,-0.030,0.037,0.018,-0.028,0.063,0.083,28.984,55.073,5.674,-77.347,99.541,88.047
1743395415.29,-0.081,0.001,0.002,0.249,-0.294,0.141,29.257,54.887,5.635,-77.241,98.860,87.484
1743395415.31,-0.136,-0.004,0.041,0.478,-0.430,0.189,29.451,54.805,5.042,-77.109,96.429,85.444
1743395415.33,-0.167,0.030,0.065,0.528,-0.325,0.184,29.609,54.976,4.404,-76.940,93.338,82.730
1743395415.35,-0.184,0.067,0.070,0.494,-0.144,0.091,29.654,54.597,3.700,-76.795,90.549,80.135
1743395415.37,-0.163,0.076,0.067,0.529,-0.037,-0.018,29.792,54.502,3.098,-76.750,88.003,77.619
1743395415.39,-0.140,0.041,0.067,0.638,0.012,-0.053,29.707,54.619,2.467,-76.760,85.163,74.710
1743395415.41,-0.141,0.005,0.057,0.729,0.009,-0.056,29.641,54.561,1.716,-76.735,81.839,71.278
1743395415.43,-0.132,-0.006,0.036,0.758,-0.006,-0.107,29.453,54.719,0.884,-76.674,78.210,67.548
1743395415.45,-0.103,-0.016,-0.003,0.733,0.002,-0.205,29.361,54.829,0.047,-76.644,74.528,63.774
1743395415.47,-0.061,-0.017,-0.019,0.808,0.125,-0.291,29.054,54.938,-0.591,-76.667,70.764,59.838
1743395415.49,-0.022,-0.042,-0.004,0.993,0.348,-0.224,28.720,55.061,-1.387,-76.578,66.491,55.169
1743395415.51,-0.007,-0.069,-0.007,1.017,0.495,-0.115,28.588,54.900,-2.045,-76.244,62.293,50.346
1743395415.53,-0.007,-0.040,-0.060,1.030,0.348,-0.075,28.414,54.834,-3.011,-75.777,58.586,46.015
1743395415.55,0.034,-0.031,-0.250,1.373,0.072,0.068,28.411,54.905,-3.922,-75.041,54.467,41.496
1743395415.57,0.087,0.040,-0.350,1.549,0.106,0.162,28.385,54.682,-5.589,-73.872,49.925,36.782
1743395415.59,0.122,0.017,0.068,1.366,0.919,0.026,28.479,54.309,-6.935,-72.670,46.607,32.700
1743395415.61,0.175,-0.069,0.216,1.225,1.014,0.078,28.716,53.901,-7.576,-71.635,44.639,29.361
1743395415.63,0.166,-0.127,-0.019,1.528,0.554,0.382,28.943,53.702,-8.392,-70.342,42.964,26.670
1743395415.65,0.042,-0.117,-0.121,1.780,0.030,0.548,29.322,53.037,-9.561,-68.537,40.969,24.162
1743395415.67,0.023,-0.048,-0.138,1.567,-0.170,0.459,29.638,52.333,-11.430,-66.664,38.894,22.083
1743395415.69,0.077,-0.018,0.089,1.076,0.145,0.326,30.196,51.675,-12.816,-65.203,37.542,20.608
1743395415.71,0.160,-0.053,0.111,0.927,0.135,0.450,30.362,51.225,-13.702,-64.078,37.041,19.866
1743395415.73,0.126,-0.048,0.147,1.169,0.180,0.632,30.685,50.371,-15.000,-62.757,36.797,19.379
1743395415.75,0.049,-0.046,0.060,1.345,-0.053,0.777,31.567,49.668,-15.941,-61.112,36.496,18.927
1743395415.77,-0.043,-0.021,-0.156,1.169,-0.649,0.777,32.026,48.787,-17.286,-59.388,35.852,18.638
1743395415.79,-0.028,0.016,-0.009,1.034,-0.205,0.599,32.313,47.802,-18.672,-57.923,35.131,18.508
1743395415.81,-0.014,0.021,0.069,1.066,0.034,0.442,32.867,46.798,-19.889,-56.618,34.836,18.136
1743395415.83,-0.050,-0.015,0.036,1.453,-0.587,0.411,33.068,46.202,-21.020,-55.189,33.932,17.420
1743395415.85,-0.102,-0.085,-0.051,1.518,-0.919,0.582,33.320,45.261,-22.792,-53.420,32.384,16.554
1743395415.87,-0.056,-0.061,-0.192,1.278,-0.433,0.655,33.379,44.181,-24.567,-51.660,31.150,16.192
1743395415.89,-0.058,0.002,0.107,1.026,0.191,0.387,33.661,43.094,-25.885,-50.222,30.991,15.935
1743395415.91,0.003,0.022,0.095,1.115,-0.446,0.385,33.915,42.002,-26.641,-49.017,30.525,15.547
1743395415.93,0.058,0.047,0.095,1.484,-0.368,0.554,34.085,41.155,-28.001,-47.446,29.734,15.129
1743395415.95,-0.060,0.017,-0.028,1.544,-0.640,0.481,34.210,40.063,-29.474,-45.617,28.781,14.654
1743395415.97,-0.071,-0.047,-0.152,1.373,-0.385,0.442,34.029,38.701,-31.185,-43.895,27.834,14.172
1743395415.99,-0.019,-0.015,0.074,0.989,0.294,0.424,34.190,37.485,-32.239,-42.461,27.616,13.901
1743395416.01,0.035,0.020,0.127,0.910,-0.047,0.602,34.486,36.592,-32.527,-41.285,27.847,13.937
1743395416.03,0.052,0.000,0.110,1.190,-0.318,0.694,34.848,35.502,-33.579,-39.867,27.683,14.090
1743395416.05,0.031,-0.088,0.052,1.361,-0.078,0.637,35.079,33.965,-34.454,-38.221,27.444,14.078
1743395416.07,0.050,-0.116,-0.200,1.339,0.045,0.607,35.230,32.558,-35.356,-36.495,27.363,13.998
1743395416.09,-0.008,0.011,0.077,1.067,0.195,0.460,35.521,31.386,-36.095,-34.984,27.476,13.855
1743395416.11,-0.077,0.073,-0.044,0.943,-0.190,0.563,36.023,30.065,-36.667,-33.736,27.455,13.845
1743395416.13,-0.059,0.084,-0.059,1.004,-0.176,0.551,36.237,28.996,-37.141,-32.437,27.287,13.940
1743395416.15,0.012,-0.056,0.105,1.133,-0.189,0.405,36.445,27.855,-38.014,-31.117,27.045,13.863
1743395416.17,0.054,-0.239,0.070,1.303,-0.388,0.342,36.393,26.622,-39.033,-29.680,26.584,13.564
1743395416.19,0.083,-0.183,0.021,1.292,-0.361,0.396,36.233,25.093,-39.702,-28.157,25.933,13.225
1743395416.21,-0.029,-0.062,0.011,1.211,-0.070,0.503,36.012,23.748,-40.965,-26.650,25.593,13.054
1743395416.23,-0.069,-0.004,0.113,1.189,0.032,0.613,36.152,22.562,-41.351,-25.149,25.578,13.037
1743395416.25,0.029,-0.005,0.129,1.366,-0.135,0.694,36.392,21.237,-41.912,-23.524,25.577,13.081
1743395416.27,0.065,-0.064,-0.047,1.417,-0.222,0.661,36.461,19.497,-42.616,-21.733,25.325,13.105
1743395416.29,0.082,-0.047,-0.020,1.261,-0.212,0.647,36.630,17.831,-43.263,-20.022,25.118,13.121
1743395416.31,0.084,0.009,0.095,1.270,-0.287,0.671,36.524,16.206,-43.747,-18.417,24.832,13.212
1743395416.33,-0.010,0.007,0.124,1.336,-0.153,0.696,36.389,14.443,-44.478,-16.731,24.592,13.302
1743395416.35,-0.075,-0.013,0.135,1.400,-0.077,0.788,36.561,12.624,-44.914,-14.967,24.536,13.421
1743395416.37,-0.015,0.001,-0.029,1.438,-0.115,0.900,36.488,10.980,-45.232,-13.073,24.455,13.630
1743395416.39,-0.021,-0.051,-0.153,1.355,-0.009,0.854,36.510,8.910,-45.479,-11.210,24.441,13.894
1743395416.41,-0.055,-0.061,-0.008,1.235,0.179,0.823,36.626,6.993,-45.715,-9.465,24.608,14.162
1743395416.43,-0.013,-0.083,0.020,1.209,0.302,0.803,36.497,5.027,-45.947,-7.822,24.921,14.424
1743395416.45,0.008,0.047,-0.039,1.139,0.221,0.814,36.869,3.427,-45.762,-6.190,25.295,14.679
1743395416.47,0.066,0.110,-0.175,1.045,0.078,0.837,36.925,1.649,-45.450,-4.674,25.488,15.000
1743395416.49,0.035,0.056,-0.176,0.989,0.014,0.717,37.153,0.169,-45.525,-3.237,25.551,15.316
1743395416.51,-0.090,-0.005,-0.075,1.030,-0.114,0.563,37.048,-1.419,-45.435,-1.891,25.503,15.481
1743395416.53,-0.093,0.076,-0.060,1.113,-0.277,0.467,37.061,-2.777,-45.470,-0.536,25.277,15.484
1743395416.55,-0.107,0.086,-0.144,1.189,-0.349,0.352,36.794,-4.006,-45.707,0.863,24.917,15.343
1743395416.57,-0.157,0.060,-0.065,1.205,-0.384,0.224,36.180,-5.318,-45.863,2.252,24.507,15.075
1743395416.59,-0.111,-0.132,-0.121,1.226,-0.408,0.024,35.868,-6.680,-45.799,3.581,24.072,14.634
1743395416.61,0.124,-0.162,-0.155,1.095,-0.454,-0.110,35.563,-7.573,-46.215,4.776,23.623,14.037
1743395416.63,0.138,0.064,-0.049,1.008,-0.498,0.027,35.299,-8.915,-46.314,5.849,23.121,13.506
1743395416.65,-0.023,-0.019,-0.025,0.920,-0.159,0.081,34.857,-9.736,-46.308,6.888,22.758,13.131
1743395416.67,0.041,-0.083,-0.084,0.777,0.129,0.110,34.398,-10.793,-46.421,7.839,22.796,12.853
1743395416.69,0.250,-0.119,-0.262,0.545,0.297,0.109,34.681,-11.410,-46.129,8.584,23.096,12.664
1743395416.71,0.191,-0.016,-0.256,0.246,0.184,0.187,34.648,-11.917,-45.716,9.067,23.376,12.635
1743395416.73,0.098,-0.036,-0.243,0.033,0.182,0.181,34.831,-12.526,-45.631,9.299,23.540,12.787
1743395416.75,-0.013,-0.154,-0.200,-0.166,0.243,0.085,34.938,-12.804,-45.467,9.292,23.761,12.953
1743395416.77,0.126,-0.120,-0.305,-0.370,0.181,0.018,35.009,-12.702,-45.460,9.032,23.978,13.134
1743395416.79,0.108,-0.102,-0.327,-0.599,0.147,-0.067,35.251,-12.241,-45.158,8.515,24.124,13.336
1743395416.81,0.061,-0.046,-0.229,-0.783,0.253,-0.189,35.290,-11.637,-45.022,7.731,24.332,13.535
1743395416.83,0.052,-0.092,-0.200,-0.917,0.219,-0.268,35.579,-10.772,-45.103,6.734,24.588,13.699
1743395416.85,0.126,-0.057,-0.209,-1.038,0.151,-0.363,35.909,-9.913,-44.945,5.583,24.796,13.831
1743395416.87,0.171,-0.059,-0.212,-1.236,0.100,-0.362,35.974,-8.917,-45.148,4.226,24.920,13.998
1743395416.89,0.135,-0.000,-0.111,-1.354,0.104,-0.403,36.531,-7.478,-45.389,2.693,25.031,14.245
1743395416.91,0.019,-0.049,-0.068,-1.411,-0.004,-0.467,36.657,-6.037,-45.495,1.053,25.091,14.453
1743395416.93,0.002,-0.046,-0.160,-1.492,0.015,-0.486,36.789,-4.386,-45.454,-0.675,25.072,14.657
1743395416.95,-0.005,-0.000,-0.116,-1.593,0.073,-0.554,36.897,-2.777,-45.524,-2.526,25.128,14.879
1743395416.97,-0.026,-0.038,-0.070,-1.578,-0.060,-0.681,37.065,-0.959,-45.579,-4.475,25.147,15.022
1743395416.99,-0.103,-0.051,-0.036,-1.504,-0.102,-0.799,37.290,1.174,-45.691,-6.427,25.030,14.994
1743395417.00,-0.131,-0.072,-0.087,-1.497,0.045,-0.831,37.131,3.242,-45.715,-8.364,24.941,14.867
1743395417.02,-0.069,-0.028,-0.003,-1.579,0.271,-0.812,37.059,5.055,-45.366,-10.362,25.126,14.761
1743395417.04,-0.028,0.015,0.027,-1.508,0.294,-0.838,37.303,7.258,-45.043,-12.361,25.440,14.666
1743395417.06,0.020,0.009,0.078,-1.493,0.336,-0.848,37.479,9.073,-44.636,-14.323,25.771,14.530
1743395417.08,0.055,-0.054,0.063,-1.432,0.367,-0.791,37.660,11.128,-43.965,-16.240,26.141,14.409
1743395417.10,0.094,-0.136,0.003,-1.455,0.383,-0.722,37.948,13.195,-43.429,-18.087,26.540,14.361
1743395417.12,0.090,-0.160,-0.042,-1.558,0.281,-0.717,38.091,14.732,-42.766,-19.986,26.962,14.410
1743395417.14,0.076,-0.137,0.024,-1.653,0.261,-0.774,38.073,16.451,-42.091,-22.011,27.274,14.495
1743395417.16,0.036,-0.154,0.004,-1.613,0.196,-0.769,38.307,18.573,-41.227,-24.082,27.580,14.580
1743395417.18,0.054,-0.139,0.018,-1.646,0.306,-0.767,38.222,20.522,-40.615,-26.124,27.876,14.671
1743395417.20,0.080,-0.103,0.093,-1.727,0.344,-0.721,38.114,22.275,-39.600,-28.230,28.367,14.848
1743395417.22,0.043,-0.088,0.059,-1.629,0.205,-0.649,38.021,24.325,-38.562,-30.301,28.824,15.125
1743395417.24,0.010,-0.096,0.004,-1.505,0.093,-0.613,37.997,26.105,-37.331,-32.208,29.116,15.396
1743395417.26,-0.018,-0.108,-0.041,-1.566,0.014,-0.658,37.560,27.682,-36.332,-34.071,29.316,15.662
1743395417.28,-0.031,-0.116,-0.013,-1.665,0.282,-0.733,37.609,29.140,-35.533,-36.072,29.616,15.923
1743395417.30,-0.031,-0.093,0.024,-1.712,0.483,-0.753,37.254,31.149,-34.349,-38.175,30.245,16.206
1743395417.32,-0.004,-0.064,0.024,-1.650,0.421,-0.712,37.203,32.911,-32.867,-40.262,30.992,16.538
1743395417.34,0.026,-0.072,-0.008,-1.578,0.228,-0.660,36.989,34.452,-31.547,-42.241,31.601,16.925
1743395417.36,0.041,-0.089,-0.022,-1.515,0.252,-0.671,36.777,36.014,-30.183,-44.137,32.140,17.324
1743395417.38,0.011,-0.083,0.042,-1.502,0.340,-0.746,36.536,37.538,-29.092,-46.015,32.717,17.660
1743395417.40,-0.030,-0.066,0.028,-1.549,0.257,-0.765,36.254,39.166,-27.540,-47.949,33.311,17.976
1743395417.42,-0.028,-0.048,-0.023,-1.583,0.152,-0.674,35.833,40.427,-26.181,-49.900,33.876,18.442
1743395417.44,0.021,-0.038,-0.040,-1.553,0.223,-0.595,35.534,41.990,-24.861,-51.786,34.583,19.088
1743395417.46,0.045,-0.044,0.037,-1.544,0.264,-0.574,35.266,43.059,-23.299,-53.613,35.501,19.876
1743395417.48,0.020,-0.021,0.060,-1.535,0.070,-0.616,34.922,44.277,-21.794,-55.431,36.395,20.709
1743395417.50,0.025,-0.014,0.022,-1.571,-0.140,-0.630,34.638,45.678,-20.147,-57.276,37.062,21.580
1743395417.52,0.019,-0.023,0.025,-1.575,-0.150,-0.564,34.148,46.593,-19.011,-59.127,37.764,22.625
1743395417.54,0.005,-0.043,0.029,-1.563,-0.224,-0.464,33.595,47.524,-17.895,-60.895,38.719,23.920
1743395417.56,-0.017,-0.050,-0.007,-1.607,-0.594,-0.447,32.933,48.356,-16.434,-62.611,39.621,25.487
1743395417.58,-0.052,-0.036,0.021,-1.707,-0.807,-0.561,32.681,49.451,-15.252,-64.430,40.392,27.260
1743395417.60,-0.092,-0.041,0.015,-1.602,-0.968,-0.738,31.804,50.541,-14.138,-66.361,40.843,28.875
1743395417.62,-0.088,-0.068,0.061,-1.534,-0.871,-0.768,30.762,51.250,-13.049,-68.273,40.945,30.163
1743395417.64,-0.076,-0.051,0.032,-1.678,-0.536,-0.662,29.811,52.201,-12.166,-70.200,41.690,31.831
1743395417.66,-0.071,-0.023,-0.084,-1.496,-0.269,-0.471,28.968,53.025,-10.949,-71.993,43.486,34.200
1743395417.68,-0.070,-0.051,-0.005,-1.262,-0.125,-0.373,28.431,53.948,-9.547,-73.436,45.741,36.781
1743395417.70,-0.046,-0.066,0.046,-1.202,-0.240,-0.401,28.102,54.453,-8.251,-74.702,48.047,39.382
1743395417.72,0.041,-0.068,0.072,-1.296,-0.095,-0.377,27.746,54.870,-7.100,-75.975,50.802,42.471
1743395417.74,0.089,-0.068,0.058,-1.376,0.358,-0.284,27.412,55.252,-5.834,-77.200,55.107,46.743
1743395417.76,0.081,-0.087,-0.012,-1.309,0.561,-0.160,26.948,55.699,-4.429,-78.241,61.121,52.316
1743395417.78,0.047,-0.081,-0.146,-1.094,0.402,-0.071,27.053,55.978,-2.359,-78.948,67.563,58.304
1743395417.80,0.011,-0.053,-0.162,-0.871,0.044,-0.057,26.960,56.059,-1.300,-79.392,73.225,63.793
1743395417.82,-0.044,-0.031,-0.138,-0.716,-0.458,-0.043,26.791,56.086,0.113,-79.673,77.608,68.484
1743395417.84,-0.083,-0.015,-0.117,-0.653,-0.919,-0.000,26.718,56.295,0.690,-79.842,80.994,72.742
1743395417.86,-0.072,0.004,-0.042,-0.726,-0.926,0.079,26.586,56.489,1.134,-79.899,84.229,77.155
1743395417.88,-0.050,0.034,0.011,-0.787,-0.534,0.142,26.944,55.941,1.485,-79.827,88.281,82.140
1743395417.90,-0.020,0.062,0.009,-0.761,0.087,0.138,27.160,56.020,2.232,-79.652,92.975,87.179
1743395417.92,0.000,0.044,0.004,-0.462,0.387,0.064,27.227,56.089,3.045,-79.467,97.177,91.107
1743395417.94,0.027,-0.052,0.030,-0.061,-0.023,0.048,27.322,55.966,3.588,-79.381,98.908,92.620
1743395417.96,0.037,-0.073,0.108,0.075,-0.399,0.271,27.689,56.033,3.486,-79.223,98.298,92.292
1743395417.98,-0.012,-0.007,0.165,-0.006,-0.214,0.438,27.953,55.842,2.994,-78.822,97.365,91.741
1743395418.00,-0.075,0.088,0.179,-0.205,0.362,0.505,28.438,55.490,3.234,-78.258,97.655,91.970
1743395418.02,-0.157,0.079,0.124,-0.305,0.794,0.409,28.854,55.279,3.875,-77.686,99.410,93.050
1743395418.04,-0.219,0.071,0.031,-0.234,0.726,0.268,29.202,54.983,4.512,-77.256,101.424,94.170
1743395418.06,-0.268,0.108,-0.063,-0.073,0.172,0.137,29.179,54.920,5.093,-76.990,102.519,94.747
1743395418.08,-0.254,0.098,-0.004,0.083,-0.144,-0.005,29.408,54.603,5.068,-76.917,102.362,94.621
1743395418.10,-0.186,0.055,0.094,0.142,0.028,-0.076,29.525,54.713,4.905,-77.000,101.731,94.072
1743395418.12,-0.096,0.009,0.110,0.111,0.290,-0.026,29.290,54.804,4.783,-77.096,101.364,93.497
1743395418.14,-0.070,0.016,0.092,0.154,0.425,0.033,29.157,54.710,4.994,-77.116,101.170,92.868
1743395418.16,-0.090,0.024,0.070,0.242,0.428,0.012,29.376,54.937,5.110,-77.128,100.655,91.828
1743395418.18,-0.072,0.026,0.048,0.273,0.413,-0.039,29.185,54.742,5.118,-77.197,99.851,90.515
1743395418.20,-0.009,0.016,0.037,0.270,0.426,-0.050,29.080,54.771,4.995,-77.303,99.029,89.180
1743395418.22,0.046,-0.009,0.027,0.300,0.322,0.032,29.027,54.756,5.091,-77.366,98.066,87.746
1743395418.24,0.043,-0.014,0.034,0.388,0.155,0.113,29.306,54.971,4.929,-77.332,96.584,85.947
1743395418.26,-0.014,0.005,0.061,0.513,-0.040,0.193,29.401,54.913,4.497,-77.205,94.308,83.543
1743395418.28,-0.103,0.023,0.059,0.544,-0.205,0.213,29.492,54.735,3.779,-76.993,91.416,80.724
1743395418.30,-0.158,0.054,0.019,0.369,-0.373,0.136,29.515,54.534,3.190,-76.789,88.788,78.360
1743395418.32,-0.173,0.068,-0.011,0.274,-0.514,-0.012,29.640,54.787,2.398,-76.701,86.842,76.895
1743395418.34,-0.132,0.019,0.003,0.521,-0.573,-0.151,29.658,54.624,1.808,-76.772,84.369,74.990
1743395418.36,-0.090,-0.034,0.039,0.801,-0.625,-0.171,29.606,54.761,0.604,-76.858,80.314,71.531
1743395418.38,-0.068,-0.036,0.072,0.841,-0.553,-0.155,29.422,54.744,-0.619,-76.840,75.441,67.235
1743395418.40,-0.057,-0.021,0.116,0.789,-0.285,-0.160,29.158,54.818,-1.857,-76.739,70.943,63.126
1743395418.42,-0.031,-0.012,0.131,0.839,0.227,-0.148,29.147,54.781,-2.656,-76.580,67.005,59.129
1743395418.44,0.014,0.001,0.076,1.057,0.833,-0.020,28.928,54.587,-3.183,-76.228,63.431,54.833
1743395418.46,0.021,-0.004,0.017,1.369,1.292,0.182,29.006,54.592,-3.767,-75.485,59.968,49.950
1743395418.48,-0.047,0.001,-0.098,1.347,0.851,0.273,29.352,54.278,-4.390,-74.416,56.780,45.318
1743395418.50,-0.117,0.025,-0.047,1.148,0.312,0.157,29.581,54.177,-5.442,-73.398,53.858,41.634
1743395418.52,-0.077,0.023,-0.003,1.189,0.293,-0.004,29.703,53.859,-6.244,-72.524,50.917,38.237
1743395418.54,-0.008,-0.052,-0.086,1.174,0.120,-0.016,29.550,53.552,-7.448,-71.664,47.947,34.814
1743395418.56,0.079,-0.103,-0.116,1.157,-0.002,0.136,29.538,53.277,-8.729,-70.712,45.256,31.965
1743395418.58,0.147,-0.110,-0.119,1.202,0.231,0.295,29.619,52.969,-9.793,-69.566,43.261,29.706
1743395418.60,0.168,-0.093,-0.129,1.159,0.229,0.405,29.945,52.679,-10.732,-68.300,41.970,27.994
1743395418.62,0.133,-0.048,-0.061,1.233,0.181,0.405,30.451,52.065,-11.728,-66.967,40.835,26.570
1743395418.64,0.119,-0.069,0.035,1.268,0.296,0.391,31.115,51.467,-12.820,-65.577,39.787,25.073
1743395418.66,0.096,-0.103,0.019,1.367,-0.069,0.456,31.345,50.712,-14.003,-64.139,38.774,23.764
1743395418.68,0.080,-0.090,-0.122,1.372,-0.530,0.591,31.711,49.954,-15.542,-62.482,37.350,22.582
1743395418.70,0.000,-0.030,-0.012,0.950,-0.397,0.555,32.053,49.115,-17.114,-61.025,36.240,22.036
1743395418.72,-0.048,-0.000,0.042,0.754,0.338,0.485,32.551,48.470,-17.921,-59.918,36.132,21.881
1743395418.74,-0.071,0.006,-0.048,0.938,-0.110,0.485,33.037,47.630,-18.637,-58.836,36.146,21.672
1743395418.76,-0.083,0.023,0.093,1.432,-0.451,0.393,33.386,46.982,-19.664,-57.449,35.211,20.982
1743395418.78,-0.180,0.007,-0.148,1.499,-1.047,0.338,33.349,45.976,-21.468,-55.764,33.368,19.765
1743395418.80,-0.207,0.002,-0.078,1.048,0.092,0.317,33.047,45.058,-23.336,-54.345,31.959,19.002
1743395418.82,-0.063,-0.022,0.083,0.943,0.765,0.243,33.372,44.314,-24.036,-53.230,32.234,18.432
1743395418.84,0.093,-0.061,0.094,1.248,-0.393,0.359,33.778,43.683,-24.559,-52.038,31.998,17.831
1743395418.86,0.150,-0.022,0.092,1.584,-0.667,0.428,33.771,42.581,-26.027,-50.385,30.710,17.104
1743395418.88,0.026,0.008,-0.138,1.486,-0.529,0.282,33.739,41.576,-27.707,-48.614,29.422,16.265
1743395418.90,0.024,0.032,-0.169,1.097,-0.398,0.188,33.554,40.479,-29.290,-47.203,28.298,15.534
1743395418.92,0.092,0.007,0.197,0.846,-0.228,0.341,33.348,39.884,-30.251,-46.115,27.735,15.158
1743395418.94,0.030,-0.034,0.139,1.077,-0.555,0.600,33.390,38.761,-31.118,-44.924,27.255,15.144
1743395418.96,-0.011,-0.025,0.072,1.336,-0.249,0.604,33.730,37.747,-32.295,-43.343,26.742,15.147
1743395418.98,0.012,-0.069,0.022,1.314,0.041,0.494,33.810,36.406,-33.556,-41.704,26.578,14.971
1743395419.00,0.166,-0.086,-0.099,1.211,-0.122,0.577,34.041,35.092,-34.302,-40.133,26.393,14.807
1743395419.02,0.237,-0.035,0.044,0.942,0.024,0.755,34.515,33.901,-35.139,-38.688,26.464,14.986
1743395419.04,0.008,0.006,0.117,0.784,-0.129,0.739,34.936,32.590,-35.736,-37.454,26.687,15.436
1743395419.06,-0.096,-0.042,0.105,1.107,-0.137,0.685,35.259,31.512,-36.488,-36.139,26.709,15.730
1743395419.08,-0.017,-0.107,0.083,1.340,-0.175,0.734,35.479,30.236,-37.249,-34.524,26.614,15.838
1743395419.10,0.068,-0.069,-0.086,1.394,-0.191,0.703,35.729,28.741,-38.289,-32.725,26.397,15.881
1743395419.12,-0.029,0.020,0.001,1.056,-0.153,0.633,36.056,27.113,-39.107,-31.120,26.246,15.929
1743395419.14,-0.101,0.063,0.045,1.020,-0.216,0.707,36.095,25.881,-39.762,-29.771,26.149,16.142
1743395419.16,-0.156,0.019,0.075,1.328,-0.285,0.673,36.266,24.530,-40.632,-28.218,25.938,16.286
1743395419.18,-0.144,-0.125,-0.053,1.503,-0.199,0.621,36.234,22.724,-41.322,-26.436,25.609,16.254
1743395419.20,-0.150,-0.076,-0.126,1.400,0.173,0.430,36.470,21.132,-42.126,-24.651,25.512,16.066
1743395419.22,-0.183,0.077,0.060,1.362,0.258,0.256,36.714,19.654,-42.619,-23.097,25.678,15.705
1743395419.24,0.023,0.116,0.038,1.538,-0.106,0.220,37.028,18.374,-42.728,-21.484,25.587,15.186
1743395419.26,0.165,0.060,0.091,1.586,-0.565,0.251,36.769,16.863,-43.404,-19.749,25.026,14.617
1743395419.28,0.061,-0.025,0.035,1.580,-0.676,0.292,36.444,15.819,-44.173,-17.961,24.071,14.109
1743395419.30,-0.172,-0.138,-0.092,1.513,-0.305,0.253,35.833,13.711,-45.230,-16.199,23.356,13.650
1743395419.32,-0.128,-0.046,-0.130,1.403,0.161,0.252,35.619,12.169,-45.730,-14.559,23.197,13.258
1743395419.34,0.141,0.041,0.035,1.306,-0.036,0.331,35.647,10.506,-46.075,-13.018,23.245,12.927
1743395419.36,0.298,0.000,0.115,1.341,-0.440,0.431,35.562,9.131,-46.425,-11.460,22.944,12.743
1743395419.38,0.126,-0.046,0.084,1.323,-0.669,0.492,35.421,7.513,-47.031,-9.847,22.244,12.639
1743395419.40,-0.089,-0.049,0.046,1.254,-0.494,0.527,34.891,5.978,-47.686,-8.267,21.515,12.631
1743395419.42,-0.095,-0.039,0.005,1.230,-0.144,0.534,34.375,4.266,-48.038,-6.718,21.194,12.677
1743395419.44,-0.039,-0.107,-0.019,1.238,0.073,0.469,34.118,2.545,-48.239,-5.204,21.164,12.706
1743395419.46,0.034,-0.055,-0.016,1.222,0.052,0.461,34.203,1.148,-48.117,-3.701,21.227,12.688
1743395419.48,0.084,-0.013,0.001,1.183,-0.077,0.519,34.126,-0.595,-48.379,-2.224,21.216,12.706
1743395419.50,0.074,0.065,-0.009,1.207,-0.106,0.604,34.153,-1.956,-48.284,-0.712,21.111,12.814
1743395419.52,-0.052,0.104,0.085,1.247,0.143,0.587,33.831,-3.707,-48.216,0.837,21.087,12.950
1743395419.54,-0.085,-0.028,-0.194,1.181,0.325,0.627,33.610,-5.173,-48.244,2.398,21.360,13.113
1743395419.56,-0.042,-0.095,-0.096,1.123,0.168,0.455,33.915,-6.536,-47.694,3.872,21.689,13.201
1743395419.58,0.244,-0.050,-0.188,1.021,-0.179,0.389,33.874,-8.268,-47.476,5.179,21.694,13.186
1743395419.60,0.012,0.042,-0.210,0.877,-0.219,0.334,33.730,-9.360,-47.278,6.346,21.433,13.182
1743395419.62,-0.253,0.014,-0.226,0.780,0.134,0.208,33.554,-10.568,-47.381,7.338,21.384,13.129
1743395419.64,-0.042,-0.046,-0.212,0.656,0.321,0.029,33.363,-11.397,-47.119,8.160,21.693,12.949
1743395419.66,0.130,-0.148,-0.299,0.500,0.153,-0.116,33.553,-12.143,-46.556,8.760,22.032,12.654
1743395419.68,0.175,-0.075,-0.260,0.251,0.071,-0.134,34.095,-12.208,-46.560,9.108,22.192,12.337
1743395419.70,-0.023,-0.064,-0.317,0.010,0.206,-0.176,33.986,-12.377,-46.345,9.184,22.358,12.119
1743395419.72,0.087,-0.091,-0.328,-0.255,0.305,-0.217,34.213,-12.213,-46.038,8.969,22.714,11.966
1743395419.74,0.236,-0.081,-0.364,-0.561,0.199,-0.219,34.293,-11.909,-45.886,8.449,22.999,11.915
1743395419.76,0.177,-0.066,-0.286,-0.880,0.235,-0.208,34.613,-11.185,-45.985,7.595,23.220,12.017
1743395419.78,0.136,-0.037,-0.283,-1.094,0.231,-0.269,35.059,-10.129,-45.996,6.448,23.463,12.227
1743395419.80,0.179,-0.072,-0.210,-1.307,0.179,-0.272,35.548,-9.212,-46.118,5.074,23.684,12.488
1743395419.82,0.116,-0.073,-0.162,-1.458,0.157,-0.311,35.832,-8.014,-46.112,3.484,23.833,12.826
1743395419.84,0.078,-0.096,-0.053,-1.588,0.217,-0.388,35.923,-6.266,-46.178,1.735,24.024,13.172
1743395419.86,0.045,-0.171,-0.066,-1.603,0.153,-0.450,36.285,-4.455,-46.233,-0.133,24.252,13.483
1743395419.88,0.066,-0.169,-0.089,-1.641,-0.094,-0.518,36.426,-2.709,-46.086,-2.031,24.284,13.744
1743395419.90,0.010,-0.126,-0.065,-1.701,-0.000,-0.637,36.643,-0.744,-46.243,-4.047,24.228,13.927
1743395419.92,0.013,-0.079,-0.044,-1.763,-0.047,-0.649,36.584,1.259,-46.338,-6.161,24.234,14.065
1743395419.94,0.019,-0.051,0.014,-1.740,-0.035,-0.629,36.664,3.101,-46.183,-8.290,24.192,14.224
1743395419.95,-0.068,-0.098,-0.013,-1.762,-0.033,-0.590,36.850,5.130,-46.109,-10.383,24.185,14.402
1743395419.97,-0.056,-0.090,0.030,-1.817,0.148,-0.614,36.738,7.568,-45.843,-12.538,24.293,14.633
1743395419.99,-0.036,-0.122,0.006,-1.731,0.118,-0.662,36.858,9.511,-45.598,-14.687,24.484,14.815
1743395420.01,-0.035,-0.104,0.030,-1.742,0.213,-0.725,36.943,11.431,-45.057,-16.806,24.712,14.909
1743395420.03,0.024,-0.063,0.030,-1.841,0.288,-0.681,36.952,13.762,-44.617,-19.010,25.019,15.045
1743395420.05,0.041,-0.053,0.019,-1.815,0.359,-0.616,36.985,15.746,-43.803,-21.218,25.490,15.287
1743395420.07,-0.017,-0.049,0.013,-1.744,0.176,-0.670,37.199,17.898,-42.833,-23.364,25.934,15.534
1743395420.09,-0.068,-0.046,-0.036,-1.695,0.113,-0.777,37.214,19.854,-42.050,-25.485,26.086,15.664
1743395420.11,-0.081,-0.043,0.020,-1.684,0.238,-0.836,36.833,21.673,-41.176,-27.633,26.315,15.684
1743395420.13,-0.061,-0.035,0.033,-1.578,0.216,-0.824,36.864,23.658,-40.215,-29.723,26.562,15.663
1743395420.15,-0.028,-0.032,-0.006,-1.517,0.341,-0.807,36.906,25.696,-39.398,-31.715,26.820,15.611
1743395420.17,0.015,-0.060,0.062,-1.479,0.794,-0.798,36.520,27.613,-38.093,-33.659,27.441,15.566
1743395420.19,0.044,-0.108,0.089,-1.535,0.851,-0.725,36.583,29.329,-36.994,-35.580,28.435,15.595
1743395420.21,0.073,-0.122,0.081,-1.663,0.777,-0.613,36.947,31.084,-35.142,-37.546,29.526,15.872
1743395420.23,0.087,-0.108,-0.026,-1.686,0.612,-0.581,37.202,32.936,-33.653,-39.544,30.626,16.358
1743395420.25,0.055,-0.048,0.043,-1.686,0.652,-0.633,37.210,34.399,-31.918,-41.553,31.698,16.896
1743395420.27,0.040,-0.012,-0.031,-1.582,0.504,-0.688,37.063,35.599,-30.619,-43.536,32.685,17.377
1743395420.29,0.048,-0.009,-0.028,-1.528,0.341,-0.694,36.938,37.244,-28.882,-45.457,33.452,17.803
1743395420.31,0.056,-0.031,0.039,-1.538,0.160,-0.626,36.679,38.755,-27.329,-47.322,34.122,18.292
1743395420.33,0.046,-0.055,0.041,-1.551,-0.241,-0.530,36.415,40.059,-26.017,-49.157,34.583,18.974
1743395420.35,0.053,-0.068,-0.013,-1.547,-0.432,-0.479,35.938,41.375,-24.922,-50.932,34.805,19.813
1743395420.37,0.044,-0.091,-0.019,-1.526,-0.188,-0.487,35.398,42.607,-23.927,-52.687,35.125,20.707
1743395420.39,0.006,-0.111,0.044,-1.548,0.002,-0.507,35.096,43.692,-22.856,-54.439,35.806,21.646
1743395420.41,-0.031,-0.124,0.046,-1.591,-0.206,-0.510,34.718,44.684,-21.634,-56.236,36.561,22.673
1743395420.43,-0.029,-0.105,0.060,-1.676,-0.450,-0.438,34.350,46.063,-20.293,-58.057,37.217,23.923
1743395420.45,-0.003,-0.056,0.076,-1.723,-0.445,-0.303,33.718,47.038,-18.948,-59.856,38.111,25.584
1743395420.47,-0.004,-0.001,0.029,-1.647,-0.490,-0.215,33.323,47.821,-17.844,-61.541,39.349,27.600
1743395420.49,-0.054,0.023,0.023,-1.576,-0.619,-0.347,33.025,48.591,-16.674,-63.139,40.527,29.642
1743395420.51,-0.105,0.031,0.036,-1.553,-0.642,-0.635,32.606,49.421,-15.300,-64.849,41.325,31.350
1743395420.53,-0.124,0.028,0.013,-1.485,-0.507,-0.813,31.887,50.282,-14.449,-66.718,41.796,32.611
1743395420.55,-0.069,0.028,-0.016,-1.330,-0.139,-0.644,31.013,51.358,-13.224,-68.492,42.496,33.775
1743395420.57,-0.031,-0.009,-0.031,-1.238,0.167,-0.337,29.998,52.315,-12.131,-69.935,44.104,35.460
1743395420.59,-0.033,-0.084,0.001,-1.218,0.216,-0.211,29.824,52.749,-10.793,-71.121,46.571,37.817
1743395420.61,-0.036,-0.156,0.051,-1.272,0.104,-0.248,29.602,53.242,-9.372,-72.265,49.425,40.633
1743395420.63,-0.023,-0.159,0.089,-1.285,0.079,-0.260,29.542,53.592,-8.095,-73.411,52.603,43.864
1743395420.65,-0.008,-0.084,0.065,-1.357,0.251,-0.236,29.424,54.024,-6.745,-74.516,56.448,47.688
1743395420.67,-0.008,-0.019,-0.017,-1.327,0.431,-0.224,29.332,54.714,-5.140,-75.538,61.317,52.318
1743395420.69,-0.008,0.003,-0.124,-1.094,0.504,-0.278,29.176,54.655,-3.758,-76.418,66.383,56.976
1743395420.71,-0.020,-0.005,-0.214,-0.769,0.402,-0.248,28.759,55.025,-2.213,-77.095,70.647,60.802
1743395420.73,-0.040,-0.032,-0.177,-0.528,0.045,-0.164,28.795,55.151,-0.935,-77.545,73.664,63.620
1743395420.75,-0.015,-0.061,-0.014,-0.421,-0.211,-0.013,28.475,55.327,-0.064,-77.786,75.750,65.876
1743395420.77,0.002,-0.050,0.057,-0.444,-0.235,0.125,28.498,55.385,0.374,-77.829,77.731,68.177
1743395420.79,-0.017,0.003,0.009,-0.507,-0.175,0.195,28.464,55.399,0.606,-77.748,80.118,70.861
1743395420.81,-0.054,0.051,-0.054,-0.474,-0.116,0.161,28.813,55.334,1.070,-77.627,82.711,73.684
1743395420.83,-0.087,0.067,-0.094,-0.256,-0.106,0.116,29.098,55.529,1.598,-77.518,84.623,75.759
1743395420.85,-0.103,0.049,-0.049,0.073,-0.254,0.146,29.234,55.254,1.670,-77.385,84.944,76.297
1743395420.87,-0.101,0.027,0.071,0.292,-0.195,0.146,29.305,55.018,1.605,-77.192,83.699,75.326
1743395420.89,-0.074,0.007,0.139,0.177,0.189,0.173,29.605,55.087,1.361,-76.974,82.514,74.124
1743395420.91,-0.059,0.012,0.150,0.057,0.468,0.138,29.662,55.053,1.084,-76.777,82.529,73.720
1743395420.93,-0.042,0.032,0.143,0.043,0.308,0.127,29.721,55.134,1.361,-76.632,82.801,73.518
1743395420.95,-0.082,0.060,0.121,-0.211,0.200,0.226,29.992,54.677,1.408,-76.440,83.479,73.936
1743395420.97,-0.139,0.066,0.086,-0.416,0.214,0.144,30.094,54.568,1.694,-76.246,85.381,75.645
1743395420.99,-0.172,0.045,0.033,-0.349,0.054,-0.055,30.303,54.523,2.213,-76.234,87.411,77.559
1743395421.01,-0.165,0.020,0.016,-0.233,-0.112,-0.094,30.387,54.502,2.679,-76.342,88.696,78.929
1743395421.03,-0.117,0.026,0.031,-0.173,-0.054,-0.103,30.351,54.462,2.966,-76.455,89.520,79.892
1743395421.05,-0.054,0.028,0.027,-0.096,0.056,-0.115,30.070,54.364,3.017,-76.588,90.172,80.552
1743395421.07,-0.031,0.017,0.017,-0.070,0.126,-0.028,30.108,54.483,3.172,-76.673,90.649,80.941
1743395421.09,-0.063,0.016,0.018,-0.068,0.237,0.027,29.961,54.639,3.231,-76.670,91.182,81.278
1743395421.11,-0.080,0.020,-0.017,-0.031,0.250,0.012,29.950,54.781,3.489,-76.635,91.758,81.563
1743395421.13,-0.067,0.034,-0.026,0.087,0.114,-0.054,30.029,54.800,3.800,-76.669,91.857,81.440
1743395421.15,-0.043,0.017,0.002,0.129,-0.027,-0.051,29.762,54.717,3.734,-76.746,91.334,80.862
1743395421.17,-0.019,0.016,0.009,0.059,0.033,-0.058,29.662,54.686,3.451,-76.836,90.885,80.399
1743395421.19,0.011,0.011,-0.005,0.050,-0.030,-0.065,29.600,54.784,3.712,-76.965,90.701,80.185
1743395421.21,0.026,0.001,-0.025,0.155,-0.288,-0.007,29.589,54.797,3.266,-77.051,89.988,79.627
1743395421.23,-0.007,0.002,-0.033,0.232,-0.545,0.076,29.733,54.918,2.916,-77.024,88.515,78.615
1743395421.25,-0.077,-0.000,-0.020,0.296,-0.663,0.095,29.742,54.704,2.130,-76.916,86.580,77.350
1743395421.27,-0.111,0.001,0.022,0.409,-0.575,0.051,29.705,54.599,1.535,-76.797,84.165,75.612
1743395421.29,-0.118,0.026,0.031,0.513,-0.416,0.009,30.036,54.529,0.627,-76.699,81.398,73.353
1743395421.31,-0.109,0.051,0.012,0.625,-0.294,-0.019,29.938,54.733,-0.088,-76.590,78.306,70.585
1743395421.33,-0.105,0.037,-0.011,0.757,-0.199,-0.023,29.894,54.813,-0.909,-76.430,74.813,67.284
1743395421.35,-0.109,0.023,0.043,0.923,0.024,-0.065,29.683,54.587,-1.883,-76.186,70.871,63.349
1743395421.37,-0.082,-0.025,0.087,0.978,0.297,-0.159,29.730,54.650,-2.775,-75.909,66.795,58.944
1743395421.39,-0.022,-0.071,0.070,1.091,0.361,-0.189,29.548,54.540,-3.477,-75.603,62.661,54.288
1743395421.41,0.024,-0.077,0.109,1.422,0.533,-0.010,29.516,54.397,-4.562,-75.020,58.175,49.145
1743395421.43,0.028,-0.064,0.117,1.457,0.730,0.182,29.546,54.383,-5.785,-73.960,54.032,44.061
1743395421.45,0.031,-0.021,0.013,1.001,0.397,0.121,29.639,53.847,-6.789,-72.977,51.353,40.578
1743395421.47,0.047,-0.049,-0.089,1.255,0.223,0.101,29.731,53.612,-7.647,-72.109,48.926,37.711
1743395421.49,0.056,-0.022,0.047,1.571,0.525,0.164,30.026,53.406,-8.954,-70.868,45.981,34.154
1743395421.51,0.048,-0.003,0.094,1.117,0.262,0.303,30.064,52.879,-10.034,-69.569,43.918,31.377
1743395421.53,-0.029,0.001,-0.084,1.067,-0.334,0.514,30.501,52.311,-11.142,-68.401,42.636,30.146
1743395421.55,-0.047,-0.014,-0.165,1.646,-0.091,0.473,30.889,51.508,-12.553,-66.851,40.909,28.581
1743395421.57,0.021,-0.052,-0.062,1.837,0.230,0.331,31.273,50.971,-14.203,-65.003,38.887,26.264
1743395421.59,-0.025,-0.020,-0.100,1.584,0.143,0.139,31.544,50.167,-15.860,-63.266,37.069,23.964
1743395421.61,-0.035,0.013,0.036,1.373,0.462,0.034,31.685,49.641,-17.140,-61.879,35.566,21.939
1743395421.63,0.071,-0.051,0.095,1.368,0.782,0.276,31.933,48.647,-17.780,-60.530,34.974,20.365
1743395421.65,0.119,-0.071,0.101,1.551,0.243,0.536,32.514,47.942,-18.902,-58.884,34.634,19.247
1743395421.67,0.007,-0.037,-0.095,1.483,-0.656,0.569,32.893,47.053,-20.336,-57.065,33.640,18.397
1743395421.69,0.014,-0.029,-0.076,1.215,-0.424,0.425,32.955,46.117,-22.115,-55.442,32.368,17.737
1743395421.71,0.052,-0.042,0.090,1.003,0.226,0.333,33.260,45.476,-23.040,-54.166,31.910,17.193
1743395421.73,0.113,-0.072,0.048,1.070,-0.577,0.418,33.470,44.769,-24.065,-52.965,31.431,16.761
1743395421.75,0.204,-0.087,0.171,1.250,-1.004,0.674,33.602,43.863,-25.565,-51.515,30.225,16.504
1743395421.77,0.162,-0.090,-0.169,1.308,-0.889,0.823,33.317,42.321,-27.354,-49.768,29.178,16.570
1743395421.79,0.090,-0.023,-0.092,0.999,-0.199,0.528,33.446,41.225,-28.890,-48.225,28.563,16.642
1743395421.81,-0.025,0.008,0.108,0.910,0.168,0.410,33.849,40.342,-29.811,-47.061,28.554,16.550
1743395421.83,-0.130,-0.010,0.110,1.135,-0.114,0.595,34.316,39.362,-30.386,-45.783,28.552,16.471
1743395421.85,-0.151,-0.039,-0.046,1.416,-0.170,0.682,34.489,38.160,-31.521,-44.121,28.304,16.420
1743395421.87,-0.088,-0.000,-0.097,1.333,0.073,0.473,34.803,36.572,-32.321,-42.389,28.076,16.203
1743395421.89,0.026,0.035,0.045,1.136,0.257,0.285,35.161,35.692,-33.290,-40.965,28.076,15.808
1743395421.91,0.110,0.058,0.106,1.153,-0.032,0.375,35.475,34.651,-34.162,-39.655,27.938,15.418
1743395421.93,0.091,0.041,0.082,1.140,-0.300,0.648,35.721,33.419,-34.792,-38.226,27.699,15.289
1743395421.95,0.010,0.014,-0.156,1.204,-0.301,0.702,35.913,31.974,-35.876,-36.671,27.357,15.426
1743395421.97,-0.078,-0.021,0.045,1.111,0.041,0.553,36.153,30.794,-36.639,-35.164,27.246,15.428
1743395421.99,-0.093,-0.090,-0.029,1.087,-0.094,0.669,36.262,29.545,-37.204,-33.746,27.239,15.482
1743395422.01,-0.042,-0.082,0.044,1.086,-0.058,0.639,36.623,28.365,-38.100,-32.292,27.258,15.626
1743395422.03,-0.022,-0.032,0.004,1.234,-0.388,0.488,36.794,26.943,-38.661,-30.832,26.976,15.590
1743395422.05,0.053,-0.086,-0.087,1.285,-0.553,0.508,36.622,25.599,-39.709,-29.274,26.314,15.403
1743395422.07,0.081,-0.071,-0.045,1.015,-0.413,0.509,36.457,24.006,-40.882,-27.825,25.704,15.344
1743395422.09,-0.037,0.021,0.070,0.902,-0.305,0.568,36.340,22.807,-41.443,-26.609,25.365,15.434
1743395422.11,-0.145,-0.058,-0.046,1.037,-0.225,0.715,36.324,21.416,-42.264,-25.277,25.145,15.649
1743395422.13,-0.021,-0.154,0.031,1.074,-0.319,0.690,36.182,20.175,-42.906,-23.847,24.949,15.892
1743395422.15,0.080,-0.220,0.031,1.111,-0.349,0.642,36.203,18.551,-43.495,-22.393,24.648,16.089
1743395422.17,-0.013,-0.146,0.002,1.183,-0.146,0.437,36.234,17.258,-44.058,-20.950,24.330,16.103
1743395422.19,-0.234,-0.010,0.060,1.245,-0.128,0.474,36.055,15.692,-44.551,-19.494,24.143,15.969
1743395422.21,-0.133,0.007,0.008,1.357,-0.132,0.556,36.079,14.306,-45.066,-17.881,23.992,15.933
1743395422.23,0.068,-0.096,0.037,1.385,-0.197,0.435,36.284,12.795,-45.543,-16.224,23.768,15.794
1743395422.25,0.047,-0.101,0.004,1.419,-0.302,0.354,36.303,11.351,-46.063,-14.573,23.411,15.558
1743395422.27,-0.104,-0.022,0.058,1.412,-0.196,0.386,35.880,9.536,-46.427,-12.921,23.048,15.294
1743395422.29,-0.145,0.114,-0.062,1.412,0.039,0.402,35.763,8.081,-46.922,-11.268,22.909,15.079
1743395422.31,0.011,0.011,-0.091,1.418,0.014,0.352,35.901,6.427,-47.168,-9.606,22.923,14.847
1743395422.33,0.151,-0.069,-0.012,1.334,-0.245,0.287,35.589,4.716,-47.216,-8.009,22.767,14.565
1743395422.35,0.098,-0.078,0.031,1.253,-0.296,0.340,35.494,3.382,-47.561,-6.511,22.410,14.327
1743395422.37,0.056,0.025,-0.030,1.188,-0.099,0.412,35.147,1.900,-47.899,-5.065,22.141,14.196
1743395422.39,-0.005,0.131,-0.070,1.140,0.144,0.443,35.023,0.483,-48.016,-3.648,22.182,14.154
1743395422.41,0.003,0.092,-0.030,1.062,0.136,0.445,35.108,-0.938,-47.728,-2.289,22.364,14.151
1743395422.43,0.097,0.035,-0.086,1.049,-0.051,0.418,35.162,-2.286,-47.704,-0.985,22.424,14.149
1743395422.45,0.102,0.038,-0.194,0.954,-0.361,0.324,34.739,-3.529,-47.699,0.235,22.187,14.110
1743395422.47,0.054,0.122,-0.160,0.910,-0.568,0.268,34.611,-4.737,-47.842,1.357,21.662,14.021
1743395422.49,-0.127,0.103,-0.138,0.911,-0.404,0.158,33.889,-5.600,-48.081,2.401,21.064,13.884
1743395422.51,-0.188,0.003,-0.136,0.891,-0.176,-0.037,33.505,-6.518,-48.246,3.390,20.756,13.575
1743395422.53,-0.003,-0.062,-0.198,0.797,-0.160,-0.200,33.476,-7.515,-48.292,4.257,20.609,13.104
1743395422.55,0.180,-0.034,-0.262,0.649,-0.342,-0.264,33.310,-8.075,-48.275,4.948,20.389,12.549
