Time,AccX,AccY,AccZ,GyroX,GyroY,GyroZ,Pitch,Roll,Yaw
1746584980.94,0.029,0.027,0.172,-0.647,-0.518,-0.127,2.481,-1.559,95.349
1746584980.96,-0.002,0.050,0.135,-0.508,-0.285,-0.112,1.821,-2.068,95.179
1746584980.98,-0.016,0.029,0.290,-0.237,2.287,-0.208,1.442,-0.964,94.933
1746584981.00,-0.059,-0.045,0.092,-0.198,2.128,-0.104,1.178,1.650,94.742
1746584981.02,-0.084,-0.108,-0.048,-0.009,1.484,-0.046,1.051,3.757,94.659
1746584981.04,-0.079,-0.037,-0.041,0.149,1.571,0.005,1.131,5.369,94.638
1746584981.06,-0.071,-0.008,0.230,0.103,2.083,0.014,1.313,7.514,94.634
1746584981.08,-0.073,0.072,0.073,-0.153,2.318,-0.059,1.293,10.065,94.620
1746584981.10,-0.095,0.130,-0.094,-0.419,1.659,-0.145,0.934,12.457,94.568
1746584981.12,-0.069,0.105,-0.360,-0.424,0.684,-0.162,0.401,13.629,94.496
1746584981.14,-0.004,0.045,-0.193,-0.399,0.394,-0.012,-0.065,14.245,94.499
1746584981.16,-0.011,-0.087,-0.189,-0.352,0.256,0.061,-0.489,14.600,94.658
1746584981.18,-0.065,-0.025,-0.108,-0.203,0.022,0.085,-0.773,14.777,94.809
1746584981.20,-0.034,-0.021,0.009,-0.189,-0.114,0.110,-0.951,14.689,94.973
1746584981.22,0.000,0.039,0.035,-0.234,0.207,0.081,-1.155,14.704,95.148
1746584981.24,-0.026,0.041,0.069,-0.062,0.427,0.027,-1.356,15.264,95.257
1746584981.26,-0.161,-0.018,0.113,0.095,-0.415,0.058,-1.129,14.832,95.268
1746584981.28,-0.147,0.222,0.318,-0.622,0.078,0.578,-1.305,14.620,95.568
1746584981.30,-0.272,0.107,0.485,-1.521,-0.034,0.658,-2.311,14.710,96.579
1746584981.32,-0.263,0.054,0.397,-1.968,0.550,0.879,-4.086,15.067,97.928
1746584981.34,-0.260,0.140,0.198,-1.495,0.762,1.104,-5.725,16.026,99.582
1746584981.36,-0.274,0.219,0.291,-2.652,-0.307,1.162,-7.420,16.476,101.481
1746584981.38,-0.556,0.189,0.741,-3.384,-1.019,0.834,-10.513,16.074,103.632
1746584981.40,-0.659,0.484,0.415,-2.850,-0.573,0.144,-13.842,15.404,105.175
1746584981.42,-0.357,0.407,0.278,-2.746,0.642,-0.181,-16.834,15.636,105.993
1746584981.44,-0.231,0.432,0.358,-3.458,1.736,-0.612,-20.354,17.251,106.605
1746584981.46,-0.165,0.472,0.162,-3.759,1.852,-0.910,-24.599,19.595,107.113
1746584981.48,-0.109,0.424,-0.092,-3.724,1.059,-0.931,-29.000,21.545,107.715
1746584981.50,0.014,0.448,-0.221,-3.146,0.688,-0.650,-32.981,22.902,108.468
1746584981.52,0.229,0.486,-0.159,-3.379,1.026,-0.460,-36.544,24.437,109.556
1746584981.54,0.340,0.502,-0.030,-4.076,1.876,-0.586,-40.664,27.116,110.026
1746584981.56,0.428,0.463,-0.216,-4.049,2.644,-0.591,-45.114,31.309,111.092
1746584981.58,0.501,0.347,-0.441,-3.702,2.618,-0.309,-49.087,36.555,112.898
1746584981.60,0.539,0.269,-0.542,-3.335,2.497,0.127,-52.249,42.422,115.614
1746584981.62,0.812,0.297,-0.504,-3.321,2.540,0.717,-54.542,49.341,119.501
1746584981.64,1.130,0.269,-0.481,-3.293,2.936,1.668,-55.735,58.028,125.095
1746584981.66,1.337,0.158,-0.650,-2.831,3.121,2.605,-55.140,67.699,131.466
1746584981.68,1.056,-0.044,-0.700,-2.344,3.281,2.989,-52.927,76.662,136.915
1746584981.70,0.511,-0.209,-0.752,-1.903,2.874,2.649,-50.136,83.894,140.594
1746584981.72,0.136,-0.398,-0.764,-1.191,2.428,1.979,-47.578,89.147,142.608
1746584981.74,-0.163,-0.519,-0.908,0.035,2.316,1.001,-45.872,92.546,142.589
1746584981.76,-0.318,-0.582,-0.840,0.613,1.466,0.668,-45.037,94.290,141.059
1746584981.78,-0.265,-0.440,-0.678,1.065,0.359,0.758,-44.300,94.312,138.758
1746584981.80,-0.268,-0.318,-0.571,1.483,-0.159,0.837,-43.489,92.870,135.830
1746584981.82,-0.088,-0.310,-0.514,1.732,0.082,0.884,-42.537,91.018,132.377
1746584981.84,0.044,-0.337,-0.282,1.406,0.583,0.621,-41.674,89.739,129.131
1746584981.86,0.029,-0.170,0.063,0.979,0.635,0.357,-41.125,89.345,126.519
1746584981.88,0.032,-0.070,0.328,0.438,-0.072,0.414,-40.677,89.009,124.604
1746584981.90,-0.066,-0.010,0.497,-0.332,-1.080,0.288,-40.253,88.271,123.758
1746584981.92,-0.213,-0.023,0.467,-0.440,-1.858,-0.042,-40.133,87.054,123.785
1746584981.94,-0.276,-0.096,-0.223,0.258,-2.567,-0.630,-40.496,84.513,123.026
1746584981.96,-0.456,-0.151,-0.332,-0.245,-2.809,-0.946,-41.405,81.232,122.008
1746584981.98,-0.309,0.038,-0.226,-0.324,-2.738,-1.429,-42.814,78.156,121.405
1746584982.00,-0.122,0.158,-0.038,0.199,-2.798,-1.654,-44.570,74.719,120.117
1746584982.02,-0.010,0.038,0.188,-0.697,-3.005,-0.813,-45.989,71.185,119.188
1746584982.04,0.293,0.358,0.407,-0.678,-1.892,-0.611,-46.921,68.849,119.743
1746584982.06,0.291,0.580,0.113,-0.322,-0.146,-0.884,-47.912,67.960,119.577
1746584982.08,0.229,0.186,0.083,-0.402,-0.763,-1.373,-49.269,67.377,119.025
1746584982.10,-0.148,0.149,-0.195,-0.157,-0.646,-1.334,-50.921,66.144,118.579
1746584982.12,-0.066,0.027,-0.255,0.343,-0.744,-0.735,-51.931,64.611,117.247
1746584982.14,-0.029,-0.013,-0.207,0.906,-0.913,-1.112,-52.481,62.322,115.540
1746584982.16,0.092,0.164,-0.185,1.149,-0.510,-1.378,-53.192,58.937,112.392
1746584982.18,0.227,0.473,-0.019,0.887,0.694,-0.240,-53.407,57.111,109.907
1746584982.20,0.019,0.349,0.040,0.824,0.465,0.169,-52.850,56.811,108.586
1746584982.22,-0.245,0.003,0.039,0.243,-0.052,-0.094,-52.418,56.289,107.673
1746584982.24,-0.283,-0.059,0.139,-1.012,-1.218,0.044,-52.724,56.047,108.166
1746584982.26,-0.252,-0.161,0.070,-1.990,-2.251,0.232,-53.566,56.121,110.851
1746584982.28,-0.136,-0.117,0.192,-1.990,-1.561,0.170,-54.644,56.654,114.302
1746584982.30,-0.004,-0.166,0.239,-2.342,-0.040,0.182,-55.817,58.829,118.118
1746584982.32,0.106,-0.192,0.151,-2.219,1.659,0.395,-56.832,63.554,122.647
1746584982.34,0.077,-0.209,-0.005,-1.203,2.516,0.470,-57.185,69.164,126.386
1746584982.36,0.005,-0.229,-0.073,-0.257,2.274,0.327,-56.977,73.415,128.065
1746584982.38,0.048,-0.140,-0.150,0.110,1.666,-0.202,-56.877,75.735,128.168
1746584982.40,0.048,-0.042,-0.135,-0.115,0.875,-0.972,-57.543,76.877,127.811
1746584982.42,-0.018,-0.080,-0.044,-0.470,0.993,-1.287,-58.915,77.915,127.894
1746584982.44,-0.115,-0.249,0.181,-0.712,1.377,-1.281,-60.490,79.995,128.662
1746584982.46,-0.157,-0.381,0.036,-0.928,0.813,-1.263,-62.061,82.600,130.102
1746584982.48,-0.078,-0.280,-0.117,-1.174,0.147,-1.742,-63.822,85.096,132.384
1746584982.50,0.039,-0.118,0.010,-1.178,0.222,-2.999,-66.565,87.903,135.238
1746584982.51,0.114,-0.070,0.051,-1.266,-0.050,-4.335,-70.788,91.530,138.947
1746584982.54,0.142,-0.040,-0.004,-1.699,-1.132,-4.937,-76.024,98.021,146.354
1746584982.56,0.145,-0.044,-0.056,-2.232,-2.884,-4.154,-80.601,113.527,164.545
1746584982.58,0.138,0.724,0.157,-2.134,-4.158,-2.233,-82.149,137.944,-166.753
1746584982.59,0.011,1.438,0.227,-0.879,-4.058,-0.075,-81.402,147.595,-151.936
1746584982.61,-0.398,0.746,-0.079,0.523,-2.131,0.230,-81.228,142.953,-153.395
1746584982.63,-0.162,-0.101,-0.484,0.174,-2.141,-0.438,-81.641,138.935,-154.773
1746584982.65,0.041,-0.334,0.080,-0.428,-1.722,-0.792,-82.017,141.689,-149.818
1746584982.67,0.250,-0.248,0.102,-0.549,-2.023,-0.506,-81.944,146.499,-142.740
1746584982.69,0.092,0.074,0.195,-0.137,-1.199,-0.181,-81.819,148.359,-139.412
1746584982.71,0.047,-0.036,0.220,0.074,0.251,0.107,-81.836,148.039,-139.606
1746584982.73,-0.189,0.141,0.239,0.271,1.550,-0.032,-81.991,148.579,-141.102
1746584982.75,-0.317,0.010,-0.084,0.550,1.525,-0.008,-82.413,148.700,-142.778
1746584982.77,-0.140,-0.068,-0.106,0.577,1.683,-0.081,-82.994,148.026,-145.223
1746584982.79,0.019,0.035,0.046,0.531,2.073,-0.146,-83.608,148.325,-147.157
1746584982.81,0.127,0.066,-0.041,0.369,1.469,-0.155,-84.149,149.309,-148.279
1746584982.83,0.137,0.063,-0.071,0.246,0.909,-0.220,-84.545,150.734,-148.149
1746584982.85,0.083,0.018,0.016,0.295,1.004,-0.194,-84.943,152.674,-147.724
1746584982.87,0.097,-0.094,0.002,0.194,0.718,0.081,-85.238,152.897,-148.523
1746584982.89,-0.003,-0.098,0.001,0.029,0.417,0.161,-85.261,150.854,-151.202
1746584982.91,-0.095,-0.009,0.004,-0.024,0.257,-0.014,-85.218,150.449,-151.999
1746584982.93,0.035,-0.167,-0.111,-0.149,-0.818,-0.636,-85.279,155.087,-147.055
1746584982.95,0.130,-0.092,-0.113,0.161,-1.457,-0.585,-85.581,161.452,-139.733
1746584982.97,0.039,0.086,-0.087,-0.043,-1.458,-0.825,-85.858,169.765,-130.065
1746584982.99,-0.025,0.100,-0.009,-0.212,-0.927,-0.920,-85.768,-177.503,-115.926
1746584983.01,-0.016,0.063,0.007,-0.190,-0.475,-0.752,-85.387,-166.041,-104.487
1746584983.03,0.008,0.033,-0.049,-0.198,-0.187,-0.366,-85.005,-159.905,-98.753
1746584983.05,-0.108,0.051,-0.029,-0.209,0.339,-0.103,-84.687,-158.107,-97.823
1746584983.07,-0.182,0.116,-0.007,0.118,1.174,0.296,-84.759,-159.682,-101.038
1746584983.09,-0.091,0.049,-0.017,0.171,1.604,-0.148,-84.906,-158.395,-102.109
1746584983.11,0.005,0.066,-0.006,0.426,1.939,0.088,-85.245,-153.706,-100.208
1746584983.13,-0.023,0.110,-0.032,0.113,1.425,0.275,-85.629,-152.607,-101.805
1746584983.15,-0.000,-0.047,-0.050,0.051,0.667,0.243,-85.825,-154.749,-105.852
1746584983.17,0.033,-0.076,-0.033,0.244,0.085,0.123,-86.054,-156.169,-108.350
1746584983.19,0.117,-0.022,-0.010,0.478,0.087,-0.018,-86.460,-154.271,-107.152
1746584983.21,0.227,0.007,0.057,0.536,0.550,-0.284,-86.931,-147.045,-100.633
1746584983.23,0.322,0.004,0.050,0.740,1.263,-0.150,-87.271,-132.235,-87.480
1746584983.25,0.231,-0.082,0.036,0.985,1.645,0.185,-87.825,-111.267,-68.517
1746584983.27,0.089,-0.020,-0.092,1.177,1.319,0.243,-88.164,-73.583,-32.567
1746584983.29,-0.041,0.069,-0.198,1.234,0.555,0.100,-87.534,-38.465,1.497
1746584983.31,-0.123,0.158,-0.166,1.386,0.183,-0.077,-86.266,-23.827,15.480
1746584983.33,-0.196,0.226,-0.089,1.729,0.442,-0.238,-84.542,-17.729,21.283
1746584983.35,-0.255,0.246,-0.018,1.983,1.109,-0.371,-82.389,-14.680,22.863
1746584983.37,-0.242,0.145,-0.009,1.946,1.479,-0.273,-80.077,-12.109,23.893
1746584983.39,-0.170,0.044,-0.162,1.199,1.057,-0.137,-78.212,-9.930,24.579
1746584983.41,-0.012,-0.079,-0.128,0.483,0.205,0.106,-77.311,-8.661,25.162
1746584983.43,0.029,-0.132,0.134,0.363,0.517,0.022,-76.871,-7.532,26.007
1746584983.45,-0.006,-0.128,0.537,0.224,0.695,-0.178,-76.518,-7.064,25.695
1746584983.47,0.075,-0.223,0.527,-0.005,0.270,-0.198,-76.340,-7.317,24.870
1746584983.49,0.116,-0.234,0.365,-0.402,0.017,-0.145,-76.548,-8.093,23.903
1746584983.51,0.107,-0.204,0.130,-0.663,-0.502,-0.131,-77.140,-9.369,22.832
1746584983.53,0.030,-0.176,-0.011,-0.804,-1.130,-0.164,-77.948,-11.779,21.343
1746584983.55,-0.023,-0.153,-0.012,-0.768,-1.341,-0.113,-78.795,-15.080,19.169
1746584983.57,-0.059,-0.129,0.004,-0.749,-1.175,0.052,-79.600,-17.985,17.694
1746584983.59,-0.102,-0.085,0.031,-0.765,-0.933,0.157,-80.479,-20.109,16.737
1746584983.61,-0.163,-0.054,-0.097,-0.654,-0.794,0.138,-81.294,-21.884,15.662
1746584983.63,-0.239,-0.023,-0.165,-0.579,-0.418,0.077,-81.991,-23.692,14.277
1746584983.65,-0.268,-0.011,-0.177,-0.506,0.038,0.089,-82.585,-25.202,12.377
1746584983.67,-0.240,0.002,-0.174,-0.447,0.058,0.137,-83.142,-26.026,11.198
1746584983.69,-0.175,0.103,-0.175,-0.322,0.237,0.077,-83.591,-26.645,10.427
1746584983.71,-0.117,0.196,-0.137,-0.260,0.313,0.022,-83.899,-27.142,9.566
1746584983.73,-0.074,0.179,-0.116,-0.280,-0.076,-0.002,-84.175,-28.291,8.258
1746584983.75,0.004,0.060,-0.089,-0.226,-0.185,0.008,-84.442,-29.922,6.811
1746584983.77,0.107,-0.017,-0.037,-0.100,0.011,0.078,-84.617,-30.666,6.173
1746584983.79,0.106,-0.077,0.020,-0.105,0.054,0.193,-84.786,-29.652,7.132
1746584983.81,0.021,-0.061,0.051,-0.191,0.135,0.212,-85.050,-28.178,8.520
1746584983.83,-0.025,-0.042,0.098,-0.178,0.223,0.186,-85.351,-26.694,9.788
1746584983.85,-0.005,-0.008,0.045,-0.123,0.056,0.112,-85.579,-25.489,10.801
1746584983.87,0.061,0.056,-0.122,0.007,-0.225,0.045,-85.690,-25.086,11.335
1746584983.89,0.148,0.088,-0.106,0.168,-0.135,0.044,-85.607,-24.169,12.474
1746584983.91,0.154,0.096,0.027,0.186,-0.216,0.122,-85.451,-22.221,14.600
1746584983.93,0.118,0.083,0.012,0.147,-0.307,0.167,-85.335,-19.690,17.471
1746584983.95,0.073,0.015,0.047,0.133,-0.078,0.117,-85.235,-17.393,20.002
1746584983.97,0.034,-0.044,0.127,0.128,-0.020,0.053,-85.116,-15.814,21.626
1746584983.99,0.026,-0.020,0.144,0.051,0.022,0.003,-85.027,-15.193,22.256
1746584984.01,0.055,0.027,0.122,0.014,0.053,-0.002,-84.993,-15.040,22.365
1746584984.03,0.062,0.014,0.084,-0.032,0.055,0.010,-85.005,-14.951,22.386
1746584984.05,0.025,-0.003,0.077,-0.062,0.040,-0.004,-85.066,-14.992,22.291
1746584984.07,-0.014,-0.004,-0.003,-0.005,0.103,-0.030,-85.112,-15.276,21.934
1746584984.09,-0.015,0.042,-0.018,0.008,0.228,-0.058,-85.095,-15.665,21.356
1746584984.11,-0.005,0.098,0.089,0.023,0.263,-0.064,-85.061,-16.075,20.642
1746584984.13,-0.041,0.069,0.126,-0.004,0.184,-0.103,-85.030,-16.755,19.711
1746584984.15,-0.046,-0.015,0.097,-0.005,0.220,-0.194,-84.981,-18.372,17.854
1746584984.17,-0.012,-0.124,0.016,0.032,0.161,-0.226,-84.894,-20.804,15.195
1746584984.19,0.042,-0.136,-0.177,0.221,0.285,-0.119,-84.690,-22.158,13.610
1746584984.21,0.103,-0.006,-0.173,0.331,0.516,0.014,-84.363,-20.910,14.394
1746584984.23,0.031,0.073,-0.033,0.464,0.756,0.020,-83.964,-18.407,16.181
1746584984.25,-0.167,0.064,-0.071,0.643,0.536,-0.133,-83.323,-16.350,17.446
1746584984.27,-0.321,0.013,-0.189,0.510,0.591,-0.249,-82.610,-16.043,17.204
1746584984.29,-0.212,-0.055,0.047,0.397,1.198,-0.196,-82.054,-15.921,16.293
1746584984.31,0.020,-0.068,0.093,0.372,1.220,-0.061,-81.585,-14.565,16.173
1746584984.33,0.150,-0.001,-0.027,0.395,0.763,-0.044,-81.159,-13.139,16.493
1746584984.35,0.222,0.052,-0.003,0.383,0.543,0.008,-80.699,-11.928,16.976
1746584984.37,0.121,0.041,0.109,0.207,0.362,0.080,-80.382,-10.780,17.624
1746584984.39,-0.020,-0.036,0.099,0.244,0.343,0.137,-80.174,-9.379,18.656
1746584984.41,-0.148,-0.076,0.073,0.447,0.536,-0.089,-79.791,-8.274,19.256
1746584984.43,-0.248,-0.058,0.000,0.661,0.271,-0.172,-79.133,-8.232,18.802
1746584984.45,-0.283,0.011,-0.087,0.608,0.081,-0.083,-78.370,-8.285,18.611
1746584984.47,-0.228,0.060,0.026,0.462,0.805,-0.088,-77.762,-7.885,18.559
1746584984.49,-0.101,0.018,0.149,0.412,1.370,-0.023,-77.269,-6.624,18.507
1746584984.51,0.006,-0.001,0.121,0.439,1.052,0.039,-76.786,-4.882,18.802
1746584984.53,0.079,-0.008,0.052,0.567,0.692,0.052,-76.234,-3.547,19.190
1746584984.55,0.090,-0.023,0.019,0.781,0.486,0.059,-75.462,-2.454,19.635
1746584984.57,0.049,-0.015,0.009,0.728,0.534,0.040,-74.576,-1.605,19.951
1746584984.59,0.040,0.015,0.118,0.595,0.617,0.110,-73.827,-0.568,20.292
1746584984.61,0.021,0.028,0.039,0.687,0.387,0.183,-73.115,0.586,20.907
1746584984.63,-0.045,0.008,-0.024,0.777,0.322,0.161,-72.275,1.551,21.279
1746584984.65,-0.109,-0.039,-0.006,0.753,0.664,0.108,-71.374,2.429,21.339
1746584984.67,-0.070,-0.054,0.090,0.544,1.062,0.284,-70.628,3.920,21.860
1746584984.69,0.046,-0.002,0.158,0.621,0.997,0.457,-69.956,6.213,22.991
1746584984.71,0.098,0.028,0.014,0.642,0.472,0.496,-69.112,8.269,24.291
1746584984.73,0.026,0.021,-0.005,0.449,0.538,0.364,-68.449,9.800,25.399
1746584984.75,-0.028,-0.034,-0.061,0.496,0.673,0.360,-67.821,11.246,26.161
1746584984.77,0.001,-0.030,-0.047,0.562,0.356,0.350,-67.183,12.560,26.945
1746584984.79,0.023,0.068,-0.035,1.014,0.310,0.222,-66.218,13.176,27.205
1746584984.81,-0.038,0.061,-0.090,1.003,0.224,0.153,-65.021,13.330,27.044
1746584984.83,-0.107,-0.049,-0.084,0.824,0.393,0.213,-63.946,13.530,26.882
1746584984.85,-0.055,-0.178,-0.057,0.504,0.526,0.480,-63.126,14.412,27.366
1746584984.87,0.145,-0.169,0.061,0.432,0.614,0.593,-62.468,16.088,28.384
1746584984.89,0.257,-0.112,-0.036,0.721,0.139,0.586,-61.684,17.401,29.400
1746584984.91,0.198,-0.009,-0.094,0.999,-0.093,0.413,-60.525,17.825,29.662
1746584984.93,-0.007,0.030,0.008,0.872,-0.033,0.210,-59.405,17.779,29.367
1746584984.95,-0.076,-0.099,-0.085,0.774,0.130,0.404,-58.395,17.820,29.128
1746584984.97,0.029,-0.090,0.028,0.562,0.235,0.608,-57.515,18.596,29.759
1746584984.99,0.088,-0.003,0.037,0.861,-0.021,0.553,-56.540,19.315,30.462
1746584985.01,0.026,0.020,-0.008,0.989,0.159,0.452,-55.335,19.592,30.511
1746584985.03,-0.013,0.011,0.015,0.930,0.159,0.460,-54.125,20.009,30.436
1746584985.05,-0.050,-0.027,-0.082,0.848,-0.165,0.578,-52.970,20.248,30.488
1746584985.07,0.015,-0.014,-0.046,0.917,-0.168,0.510,-51.825,20.399,30.927
1746584985.09,-0.102,0.043,-0.108,1.008,-0.122,0.219,-50.636,20.198,30.931
1746584985.11,-0.195,0.046,0.042,0.966,0.211,0.092,-49.534,19.970,30.551
1746584985.13,-0.192,0.009,0.053,0.908,0.093,0.257,-48.450,19.922,30.257
1746584985.15,-0.029,0.082,0.057,0.734,0.181,0.368,-47.447,20.128,30.300
1746584985.17,0.044,0.087,-0.014,0.809,0.094,0.306,-46.493,20.339,30.406
1746584985.19,-0.017,0.025,0.002,0.821,0.162,0.242,-45.509,20.434,30.346
1746584985.21,0.043,-0.049,0.056,0.783,0.214,0.302,-44.540,20.647,30.297
1746584985.23,0.079,-0.044,0.013,0.751,0.178,0.290,-43.586,20.893,30.320
1746584985.25,0.024,0.038,-0.022,0.702,0.144,0.223,-42.717,21.040,30.285
1746584985.27,-0.026,0.029,-0.020,0.738,0.073,0.239,-41.868,21.112,30.215
1746584985.29,-0.024,-0.003,0.001,0.754,0.092,0.298,-40.948,21.177,30.186
1746584985.31,0.044,-0.032,0.075,0.744,0.091,0.304,-40.037,21.319,30.200
1746584985.33,0.075,-0.055,0.032,0.753,0.094,0.328,-39.097,21.415,30.232
1746584985.34,0.074,-0.039,0.012,0.670,0.101,0.349,-38.206,21.586,30.042
1746584985.36,0.017,-0.061,-0.008,0.784,-0.004,0.284,-37.304,21.669,29.801
1746584985.38,-0.031,-0.056,-0.029,0.851,-0.017,0.243,-36.314,21.597,29.715
1746584985.41,0.005,-0.056,-0.026,0.667,0.166,0.252,-35.401,21.646,29.626
1746584985.42,0.054,0.005,0.093,0.536,0.160,0.449,-34.629,21.907,29.769
1746584985.44,-0.011,0.005,0.046,0.490,0.245,0.545,-33.864,22.353,30.158
1746584985.46,-0.002,-0.028,-0.041,0.477,0.288,0.502,-33.136,22.891,30.299
1746584985.48,0.002,-0.025,-0.023,0.496,0.209,0.480,-32.405,23.369,30.648
1746584985.50,0.080,-0.044,0.014,0.578,0.023,0.453,-31.637,23.628,30.928
1746584985.52,0.086,-0.066,0.041,0.733,-0.102,0.396,-30.763,23.706,31.107
1746584985.54,0.012,-0.042,-0.039,0.851,-0.169,0.240,-29.770,23.459,31.037
1746584985.56,-0.134,0.017,-0.008,0.836,-0.069,0.259,-28.776,23.242,30.886
1746584985.58,-0.167,0.024,-0.045,0.807,0.065,0.273,-27.766,23.168,30.795
1746584985.60,0.008,0.101,0.003,0.677,0.089,0.380,-26.862,23.304,30.782
1746584985.62,0.100,0.059,-0.020,0.593,0.056,0.426,-26.007,23.428,30.952
1746584985.64,0.050,-0.006,-0.013,0.530,0.016,0.346,-25.231,23.576,31.131
1746584985.66,0.083,-0.090,-0.030,0.480,-0.007,0.370,-24.536,23.600,31.286
1746584985.68,0.066,-0.022,-0.069,0.554,-0.105,0.314,-23.839,23.564,31.406
1746584985.70,-0.095,0.053,0.030,0.666,-0.094,0.301,-23.061,23.489,31.462
1746584985.72,-0.117,0.020,-0.046,0.731,0.082,0.194,-22.199,23.412,31.392
1746584985.74,-0.060,-0.020,-0.062,0.823,-0.142,0.082,-21.304,23.321,31.178
1746584985.76,0.064,-0.018,-0.019,0.701,-0.250,0.069,-20.489,22.991,30.890
1746584985.78,-0.117,0.030,-0.034,0.764,-0.174,0.023,-19.697,22.599,30.604
1746584985.80,-0.150,0.103,-0.013,0.846,-0.082,0.085,-18.845,22.464,30.301
1746584985.82,-0.102,0.107,-0.011,0.921,-0.074,0.031,-17.880,22.263,29.947
1746584985.84,-0.042,0.002,-0.013,0.901,-0.078,-0.072,-16.917,22.068,29.522
1746584985.86,0.069,-0.050,-0.036,0.769,-0.002,0.019,-16.043,21.898,29.116
1746584985.88,-0.043,0.032,0.055,0.688,0.089,0.164,-15.225,21.880,28.889
1746584985.90,-0.063,0.033,-0.034,0.668,0.078,0.234,-14.438,21.919,28.789
1746584985.92,0.007,-0.053,-0.016,0.662,0.150,0.196,-13.637,22.074,28.760
1746584985.94,-0.002,-0.114,-0.075,0.631,0.231,0.168,-12.869,22.273,28.669
1746584985.96,0.047,-0.084,-0.089,0.608,0.144,0.194,-12.133,22.474,28.565
1746584985.98,0.052,-0.011,0.061,0.474,0.236,0.370,-11.434,22.684,28.631
1746584986.00,-0.131,-0.008,0.042,0.416,0.450,0.399,-10.798,23.116,28.857
1746584986.02,-0.083,-0.009,-0.074,0.423,0.542,0.400,-10.186,23.773,29.095
1746584986.04,0.102,0.026,-0.138,0.466,0.353,0.418,-9.532,24.306,29.313
1746584986.06,0.065,0.065,-0.021,0.499,0.167,0.328,-8.865,24.602,29.463
1746584986.08,-0.076,-0.013,0.038,0.492,0.312,0.378,-8.177,24.899,29.603
1746584986.10,-0.124,0.052,-0.014,0.507,0.457,0.363,-7.464,25.340,29.758
1746584986.12,-0.093,-0.039,-0.068,0.559,0.316,0.162,-6.787,25.761,29.748
1746584986.14,0.065,-0.017,-0.107,0.544,0.377,0.246,-6.118,26.136,29.653
1746584986.16,0.058,0.012,-0.050,0.533,0.255,0.225,-5.436,26.449,29.620
1746584986.18,-0.103,-0.030,0.008,0.576,0.318,0.105,-4.780,26.782,29.508
1746584986.20,-0.025,-0.031,-0.059,0.587,0.243,0.050,-4.144,27.107,29.273
1746584986.22,0.087,-0.022,-0.042,0.556,0.087,0.032,-3.545,27.271,29.014
1746584986.24,0.111,-0.007,-0.082,0.515,0.065,0.097,-2.966,27.332,28.796
1746584986.26,0.030,0.029,-0.076,0.416,0.119,0.159,-2.428,27.420,28.685
1746584986.28,-0.036,0.059,-0.033,0.361,0.167,0.143,-1.953,27.593,28.639
1746584986.30,0.015,0.037,-0.027,0.307,0.122,0.152,-1.534,27.769,28.598
1746584986.32,0.113,0.019,-0.074,0.243,0.073,0.219,-1.162,27.873,28.642
1746584986.34,0.036,0.028,-0.085,0.167,0.162,0.201,-0.832,28.000,28.758
1746584986.36,-0.044,0.045,-0.104,0.173,0.215,0.168,-0.569,28.221,28.850
1746584986.38,0.028,0.020,-0.083,0.172,0.152,0.150,-0.312,28.443,28.907
1746584986.40,0.051,0.039,-0.023,0.121,0.101,0.140,-0.074,28.582,28.977
1746584986.42,-0.036,0.040,-0.054,0.125,0.119,0.096,0.101,28.705,29.035
1746584986.44,-0.012,0.077,-0.074,0.165,0.107,0.051,0.294,28.837,28.668
1746584986.46,0.029,0.021,-0.036,0.173,0.153,0.052,0.488,28.982,28.627
1746584986.48,-0.008,0.021,-0.026,0.177,0.171,0.031,0.691,29.166,28.570
1746584986.50,-0.005,0.013,-0.012,0.200,0.135,0.002,0.883,29.359,28.486
1746584986.52,0.034,0.040,-0.062,0.198,0.082,0.009,1.081,29.477,28.370
1746584986.54,0.017,-0.010,-0.049,0.188,0.067,0.003,1.269,29.557,28.270
1746584986.56,0.018,-0.049,-0.023,0.164,0.077,0.024,1.452,29.646,28.184
1746584986.58,0.019,-0.045,0.014,0.118,0.069,0.058,1.617,29.730,28.146
1746584986.60,-0.003,-0.045,0.016,0.094,0.059,0.076,1.756,29.802,28.155
1746584986.62,0.011,-0.027,-0.007,0.089,0.035,0.093,1.892,29.858,28.185
1746584986.64,0.041,-0.028,-0.025,0.083,-0.004,0.098,2.031,29.871,28.232
1746584986.66,0.031,-0.035,-0.014,0.045,0.008,0.126,2.166,29.868,28.309
1746584986.68,-0.021,-0.024,-0.014,0.039,0.060,0.131,2.281,29.903,28.416
1746584986.70,0.005,-0.016,-0.038,0.040,0.067,0.133,2.405,29.992,28.169
1746584986.72,-0.003,-0.005,0.009,0.046,0.031,0.096,2.513,30.046,28.264
1746584986.74,-0.015,0.002,-0.034,0.080,-0.009,0.063,2.623,30.056,28.305
1746584986.76,-0.006,-0.003,-0.034,0.082,0.001,0.063,2.746,30.047,28.319
1746584986.78,-0.040,-0.027,-0.013,0.092,0.040,0.022,2.855,30.074,28.317
1746584986.80,-0.026,-0.032,-0.036,0.134,0.017,-0.016,2.967,30.115,28.254
1746584986.82,-0.015,-0.013,-0.011,0.110,-0.050,-0.033,3.078,30.098,28.154
1746584986.84,0.002,-0.029,-0.040,0.113,-0.075,-0.037,3.160,30.021,28.057
1746584986.86,-0.007,-0.032,-0.041,0.070,-0.062,-0.063,3.236,29.943,27.956
1746584986.88,0.011,-0.056,-0.061,0.049,-0.096,-0.070,3.259,29.860,27.849
1746584986.90,0.087,-0.053,-0.105,-0.103,-0.160,-0.034,3.207,29.718,27.814
1746584986.92,0.056,-0.022,-0.134,-0.183,-0.179,-0.056,3.039,29.509,27.861
1746584986.94,0.050,-0.046,-0.137,-0.293,-0.254,-0.171,2.742,29.257,27.873
1746584986.96,0.120,-0.066,-0.156,-0.391,-0.382,-0.222,2.291,28.929,27.882
1746584986.98,0.119,-0.090,-0.265,-0.542,-0.362,-0.241,1.702,28.460,27.889
1746584987.00,0.044,-0.038,-0.249,-0.729,-0.240,-0.284,0.921,28.125,27.978
1746584987.02,0.076,-0.021,-0.253,-0.883,-0.190,-0.324,-0.051,27.880,28.098
1746584987.04,0.062,-0.011,-0.170,-1.058,-0.157,-0.373,-1.223,27.682,28.266
1746584987.06,0.117,0.014,-0.205,-1.254,-0.170,-0.383,-2.595,27.508,28.497
1746584987.08,0.118,0.009,-0.233,-1.376,-0.225,-0.458,-4.155,27.298,28.761
1746584987.10,0.162,-0.022,-0.196,-1.554,-0.168,-0.429,-5.866,27.102,29.066
1746584987.12,0.098,-0.022,-0.161,-1.724,-0.076,-0.399,-7.744,27.023,29.510
1746584987.14,0.050,-0.008,-0.134,-1.829,-0.082,-0.472,-9.785,27.026,29.700
1746584987.16,0.109,-0.021,-0.109,-1.803,-0.061,-0.525,-11.883,27.017,30.128
1746584987.18,0.076,-0.091,-0.072,-1.751,-0.124,-0.579,-13.993,27.017,30.511
1746584987.20,0.107,-0.115,-0.153,-1.702,-0.316,-0.636,-16.036,26.837,30.784
1746584987.22,0.037,-0.078,0.038,-1.727,-0.238,-0.741,-18.175,26.565,30.987
1746584987.24,-0.071,-0.197,-0.038,-1.579,-0.355,-0.827,-20.234,26.210,31.031
1746584987.26,0.050,-0.183,0.018,-1.596,-0.375,-0.774,-22.288,25.799,30.991
1746584987.28,0.074,-0.118,-0.049,-1.488,-0.559,-0.746,-24.240,25.238,30.984
1746584987.30,-0.016,-0.101,0.013,-1.418,-0.465,-0.830,-26.124,24.600,30.855
1746584987.32,-0.058,-0.155,-0.007,-1.349,-0.423,-0.943,-27.968,23.935,30.542
1746584987.34,-0.032,-0.129,0.035,-1.386,-0.390,-0.990,-29.848,23.272,30.089
1746584987.36,0.013,-0.114,0.028,-1.321,-0.490,-0.939,-31.704,22.514,29.604
1746584987.38,0.054,-0.067,0.019,-1.418,-0.447,-0.880,-33.524,21.748,29.152
1746584987.40,0.058,-0.044,0.033,-1.483,-0.513,-0.843,-35.439,21.003,28.527
1746584987.42,0.010,-0.041,-0.038,-1.447,-0.577,-0.925,-37.349,20.107,27.822
1746584987.44,0.003,-0.047,0.018,-1.533,-0.528,-0.990,-39.319,19.109,26.971
1746584987.46,0.001,-0.078,0.039,-1.635,-0.574,-1.012,-41.399,18.036,26.050
1746584987.48,0.003,-0.066,0.044,-1.705,-0.352,-0.950,-43.557,17.039,24.914
1746584987.50,-0.006,-0.047,0.055,-1.759,-0.304,-0.879,-45.749,16.265,24.067
1746584987.52,0.013,-0.035,0.054,-1.809,-0.222,-0.848,-47.977,15.530,23.072
1746584987.54,0.005,-0.033,0.083,-1.874,-0.187,-0.876,-50.265,14.869,22.057
1746584987.56,-0.026,-0.033,0.076,-1.736,-0.343,-0.943,-52.552,13.975,20.870
1746584987.58,-0.004,-0.049,0.017,-1.485,-0.559,-0.926,-54.577,12.585,19.425
1746584987.60,0.070,-0.069,0.052,-1.451,-0.623,-0.845,-56.404,10.974,17.894
1746584987.62,0.096,-0.082,0.075,-1.422,-0.756,-0.825,-58.202,9.185,15.953
1746584987.64,0.072,-0.084,0.010,-1.358,-0.862,-0.836,-59.897,7.055,14.189
1746584987.66,0.061,-0.105,0.074,-1.421,-0.813,-0.789,-61.565,4.724,12.258
1746584987.68,0.044,-0.138,0.079,-1.482,-0.780,-0.660,-63.280,2.410,10.327
1746584987.70,0.029,-0.143,0.044,-1.390,-0.715,-0.470,-64.950,0.306,8.596
1746584987.72,-0.007,-0.117,0.024,-1.318,-0.778,-0.261,-66.481,-1.506,7.210
1746584987.74,-0.019,-0.113,0.008,-1.382,-0.733,-0.005,-68.011,-2.902,6.323
1746584987.76,-0.001,-0.130,0.022,-1.325,-0.691,0.216,-69.573,-3.589,6.105
1746584987.78,0.025,-0.120,0.056,-1.325,-0.858,0.374,-71.101,-3.784,6.507
1746584987.80,0.024,-0.079,0.076,-1.164,-0.916,0.312,-72.565,-3.821,7.228
1746584987.82,-0.021,0.000,-0.043,-0.986,-0.868,0.031,-73.776,-4.478,7.300
1746584987.84,-0.029,-0.017,0.018,-1.072,-0.682,-0.182,-74.934,-6.082,6.265
1746584987.86,-0.050,-0.039,-0.062,-1.022,-0.637,-0.230,-76.109,-8.394,4.337
1746584987.88,-0.006,-0.080,-0.071,-0.887,-0.780,-0.023,-77.142,-10.616,2.744
1746584987.90,0.032,-0.062,0.026,-0.879,-0.703,0.220,-78.162,-11.841,2.112
1746584987.92,-0.017,-0.018,0.028,-0.748,-0.432,0.264,-79.132,-12.023,2.322
1746584987.94,-0.093,-0.052,0.033,-0.739,-0.243,0.221,-80.007,-11.838,2.602
1746584987.96,-0.165,-0.072,-0.047,-0.690,-0.414,0.122,-80.859,-12.038,2.619
1746584987.98,-0.184,-0.048,-0.114,-0.571,-0.541,-0.018,-81.567,-13.311,1.658
1746584988.00,-0.141,-0.020,0.012,-0.474,-0.402,-0.009,-82.146,-15.059,0.305
1746584988.02,-0.113,-0.005,0.064,-0.298,-0.308,0.003,-82.575,-16.321,-0.561
1746584988.04,-0.118,0.030,0.038,-0.243,-0.216,-0.032,-82.841,-17.437,-1.390
1746584988.06,-0.080,0.027,0.010,-0.338,-0.240,-0.006,-83.151,-18.732,-2.454
1746584988.08,-0.021,0.014,0.036,-0.278,-0.321,0.030,-83.507,-19.996,-3.391
1746584988.10,0.033,0.026,0.072,-0.159,-0.256,0.053,-83.745,-20.711,-3.768
1746584988.12,0.056,0.011,0.134,-0.143,-0.086,0.128,-83.935,-20.615,-3.468
1746584988.14,0.014,-0.033,0.117,-0.111,0.068,0.209,-84.145,-19.309,-2.155
1746584988.16,-0.093,-0.035,0.012,-0.080,-0.034,0.135,-84.317,-17.636,-0.517
1746584988.18,-0.155,0.015,-0.072,-0.027,-0.121,-0.002,-84.395,-17.282,-0.047
1746584988.19,-0.127,0.034,-0.012,-0.017,0.058,0.000,-84.418,-17.509,-0.226
1746584988.22,-0.093,0.023,0.048,0.050,0.206,0.035,-84.411,-17.097,0.019
1746584988.23,-0.083,-0.008,0.013,0.107,0.080,0.012,-84.330,-16.310,0.619
1746584988.25,-0.039,-0.046,-0.020,0.190,-0.102,-0.046,-84.164,-16.157,0.800
1746584988.27,0.027,-0.052,-0.024,0.311,-0.064,-0.012,-83.885,-15.920,1.159
1746584988.29,0.027,-0.034,-0.032,0.454,0.100,0.051,-83.463,-14.673,2.388
1746584988.31,-0.045,-0.023,-0.103,0.459,0.040,0.058,-82.969,-12.956,4.020
1746584988.33,-0.110,-0.026,-0.043,0.521,0.129,-0.018,-82.433,-11.790,5.126
1746584988.35,-0.063,0.007,0.110,0.420,0.322,-0.040,-81.877,-11.021,5.634
1746584988.37,-0.012,0.063,0.182,0.298,0.446,-0.030,-81.480,-10.348,5.862
1746584988.39,0.015,0.042,0.206,0.257,0.308,0.001,-81.164,-9.669,6.088
1746584988.41,0.015,0.039,0.108,0.209,0.133,0.015,-80.907,-9.082,6.440
1746584988.43,0.006,0.032,0.031,0.252,0.130,0.010,-80.651,-8.600,6.790
1746584988.45,-0.023,0.023,0.051,0.215,0.146,-0.007,-80.380,-8.178,7.051
1746584988.47,-0.054,0.019,0.026,0.224,0.197,-0.026,-80.143,-7.915,7.133
1746584988.49,-0.088,-0.020,0.064,0.357,0.388,-0.030,-79.810,-7.513,7.202
1746584988.51,-0.125,-0.019,0.053,0.431,0.550,0.001,-79.356,-6.788,7.403
1746584988.53,-0.136,0.001,0.052,0.454,0.784,0.049,-78.849,-5.596,7.840
1746584988.55,-0.112,-0.006,0.010,0.374,0.851,0.071,-78.390,-4.089,8.416
1746584988.57,-0.053,-0.026,-0.006,0.492,0.957,0.034,-77.921,-2.637,8.846
1746584988.59,0.017,-0.019,-0.035,0.701,0.927,0.044,-77.234,-1.263,9.144
1746584988.61,0.052,0.000,-0.004,0.763,0.900,0.056,-76.380,0.072,9.432
1746584988.63,0.023,0.014,-0.037,0.717,0.889,0.068,-75.539,1.326,9.567
1746584988.65,-0.014,-0.013,-0.007,0.677,0.961,0.048,-74.747,2.546,9.737
1746584988.67,-0.027,-0.029,0.046,0.716,0.880,0.051,-73.953,3.661,9.773
1746584988.69,-0.024,-0.004,0.031,0.748,0.662,0.075,-73.111,4.566,9.824
1746584988.71,-0.000,0.027,0.069,0.720,0.685,0.140,-72.252,5.503,9.966
1746584988.73,0.009,-0.005,-0.053,0.617,0.339,0.173,-71.468,6.443,10.318
1746584988.75,-0.043,-0.052,-0.074,0.616,0.267,0.047,-70.788,6.896,10.499
1746584988.77,-0.082,-0.038,-0.022,0.667,0.500,-0.032,-70.040,7.053,10.194
1746584988.79,-0.053,0.002,0.043,0.593,0.505,0.143,-69.324,7.538,10.074
1746584988.81,0.022,0.041,-0.034,0.572,0.450,0.261,-68.645,8.463,10.491
1746584988.83,0.038,0.012,-0.061,0.603,0.319,0.239,-67.936,9.353,10.998
1746584988.85,0.050,-0.015,-0.028,0.653,0.475,0.198,-67.181,10.101,11.306
1746584988.87,0.044,-0.031,-0.055,0.608,0.316,0.222,-66.413,10.789,11.542
1746584988.89,0.069,-0.062,-0.018,0.560,0.246,0.276,-65.728,11.463,11.945
1746584988.91,0.100,-0.050,0.025,0.679,0.126,0.293,-64.955,12.053,12.352
1746584988.93,0.037,-0.047,-0.025,0.677,0.100,0.260,-64.125,12.479,12.693
1746584988.95,-0.012,-0.048,-0.022,0.586,0.335,0.278,-63.359,12.990,12.991
1746584988.97,0.009,-0.039,0.005,0.670,0.596,0.390,-62.583,13.938,13.440
1746584988.99,0.040,-0.020,0.022,0.735,0.290,0.469,-61.666,15.036,14.041
1746584989.01,0.022,0.000,0.039,0.647,0.164,0.385,-60.785,15.701,14.601
1746584989.03,0.018,-0.042,0.045,0.567,0.210,0.411,-59.977,16.336,15.051
1746584989.05,0.062,-0.015,0.051,0.367,0.133,0.486,-59.321,17.165,15.739
1746584989.07,0.056,0.108,0.036,0.330,-0.147,0.351,-58.818,17.704,16.432
1746584989.09,-0.012,0.164,-0.001,0.397,0.212,0.250,-58.322,18.020,16.784
1746584989.11,0.000,0.052,-0.027,0.598,0.160,0.284,-57.694,18.469,16.978
1746584989.13,0.023,-0.015,-0.056,0.633,-0.168,0.356,-56.897,18.611,17.194
1746584989.15,0.057,-0.050,0.022,0.595,-0.119,0.465,-56.073,18.756,17.592
1746584989.17,0.002,-0.077,-0.020,0.506,0.090,0.472,-55.307,19.204,18.154
1746584989.19,-0.040,-0.057,-0.034,0.672,0.197,0.341,-54.537,19.686,18.548
1746584989.21,-0.037,-0.041,-0.047,0.840,0.140,0.307,-53.585,19.954,18.605
1746584989.23,-0.007,-0.051,-0.023,0.844,0.173,0.363,-52.533,20.130,18.648
1746584989.25,0.018,-0.047,0.030,0.770,0.221,0.405,-51.510,20.505,18.801
1746584989.27,-0.010,-0.002,0.037,0.665,0.253,0.370,-50.587,20.946,19.012
1746584989.29,-0.053,0.053,0.084,0.729,0.129,0.329,-49.726,21.275,19.144
1746584989.31,-0.080,0.044,-0.025,0.958,-0.190,0.358,-48.678,21.223,19.022
1746584989.33,-0.083,0.013,-0.020,0.907,0.110,0.320,-47.532,21.163,18.850
1746584989.35,-0.074,-0.028,-0.006,0.902,0.232,0.268,-46.458,21.288,18.600
1746584989.37,-0.034,-0.032,0.039,0.877,0.274,0.299,-45.387,21.525,18.171
1746584989.39,0.024,-0.029,0.082,0.854,0.075,0.432,-44.329,21.713,17.910
1746584989.41,0.058,-0.039,0.020,1.023,0.031,0.517,-43.124,21.884,18.060
1746584989.43,0.065,-0.037,-0.059,0.926,0.116,0.405,-41.888,22.046,18.159
1746584989.45,0.014,-0.087,-0.050,0.893,0.104,0.284,-40.778,22.144,18.131
1746584989.47,-0.022,-0.036,0.055,0.940,0.071,0.208,-39.718,22.145,17.929
1746584989.49,-0.055,-0.034,0.024,0.930,-0.055,0.354,-38.607,22.020,17.615
1746584989.51,-0.023,-0.042,-0.072,0.832,0.191,0.483,-37.489,22.136,17.712
1746584989.53,-0.019,-0.031,-0.030,0.638,0.333,0.387,-36.523,22.581,17.577
1746584989.55,-0.006,-0.039,0.042,0.648,0.195,0.407,-35.698,22.985,17.575
1746584989.57,0.070,-0.033,0.019,0.705,0.176,0.461,-34.789,23.282,17.597
1746584989.59,0.074,-0.038,0.031,0.768,0.060,0.438,-33.816,23.506,17.778
1746584989.61,-0.019,-0.053,0.122,0.893,-0.114,0.460,-32.741,23.527,17.685
1746584989.63,-0.045,-0.121,-0.043,0.734,0.032,0.573,-31.648,23.565,17.888
1746584989.65,-0.040,0.025,-0.059,0.606,0.219,0.558,-30.711,23.945,18.222
1746584989.67,-0.055,0.048,-0.040,0.688,0.150,0.484,-29.790,24.285,18.523
1746584989.69,-0.042,0.050,-0.006,0.740,0.038,0.374,-28.847,24.450,18.645
1746584989.71,-0.063,0.011,0.045,0.820,-0.005,0.342,-27.861,24.464,18.643
1746584989.73,-0.072,-0.031,-0.018,0.786,0.034,0.345,-26.851,24.475,18.607
1746584989.75,-0.042,0.041,-0.077,0.696,0.185,0.391,-25.900,24.631,18.652
1746584989.77,0.005,0.054,-0.060,0.754,0.159,0.392,-24.968,24.854,18.727
1746584989.79,-0.036,-0.000,-0.036,0.840,0.072,0.231,-23.992,24.976,18.675
1746584989.81,-0.072,-0.053,0.038,0.864,0.091,0.240,-22.977,24.967,18.472
1746584989.83,-0.029,-0.065,0.037,0.862,-0.035,0.220,-21.975,24.941,18.263
1746584989.85,0.112,0.011,-0.044,0.798,-0.105,0.372,-20.967,24.795,18.178
1746584989.87,0.062,0.029,-0.093,0.739,-0.038,0.439,-19.972,24.718,18.229
1746584989.89,0.000,0.025,-0.017,0.683,0.129,0.531,-19.006,24.821,18.397
1746584989.91,0.001,-0.001,0.061,0.726,0.021,0.534,-18.009,24.978,18.599
1746584989.93,0.045,-0.047,0.159,0.602,0.048,0.595,-17.052,25.107,18.887
1746584989.95,-0.003,0.030,-0.007,0.602,0.185,0.609,-16.139,25.303,19.239
1746584989.97,-0.020,0.048,-0.085,0.590,0.257,0.594,-15.224,25.688,19.578
1746584989.99,-0.031,0.087,-0.003,0.553,0.238,0.638,-14.340,26.044,19.935
1746584990.01,-0.041,0.059,0.046,0.618,0.175,0.628,-13.414,26.309,20.282
1746584990.03,-0.112,0.011,0.096,0.621,0.287,0.526,-12.480,26.652,20.573
1746584990.05,-0.149,-0.067,-0.004,0.648,0.526,0.538,-11.531,27.160,20.821
1746584990.07,-0.081,-0.041,-0.152,0.753,0.428,0.381,-10.583,27.772,20.925
1746584990.09,0.089,-0.022,-0.139,0.880,0.081,0.288,-9.595,28.030,20.827
1746584990.11,0.052,0.043,-0.018,0.976,-0.140,0.301,-8.498,27.918,20.604
1746584990.13,-0.004,-0.026,0.011,0.991,0.011,0.361,-7.332,27.801,20.407
1746584990.15,-0.036,-0.072,-0.026,0.932,0.272,0.311,-6.171,27.919,20.201
1746584990.17,-0.008,-0.042,-0.005,0.854,0.470,0.395,-5.093,28.333,20.092
1746584990.19,-0.089,0.129,-0.067,0.843,0.417,0.369,-4.038,28.867,20.017
1746584990.21,0.044,0.122,-0.066,0.851,0.162,0.385,-2.981,29.199,19.890
1746584990.23,0.104,0.044,-0.059,0.861,0.026,0.348,-1.928,29.289,19.787
1746584990.25,-0.017,0.017,-0.108,0.813,0.169,0.296,-0.910,29.405,19.634
1746584990.27,-0.036,0.034,-0.091,0.753,0.277,0.219,0.008,29.665,19.452
1746584990.29,0.030,0.060,-0.117,0.710,0.233,0.203,0.850,29.960,19.239
1746584990.31,0.019,0.092,-0.084,0.704,0.196,0.204,1.663,30.203,19.039
1746584990.33,0.006,0.060,-0.075,0.669,0.226,0.183,2.456,30.449,18.835
1746584990.35,0.003,0.021,-0.037,0.659,0.239,0.164,3.201,30.717,18.613
1746584990.37,0.034,-0.003,-0.059,0.597,0.224,0.173,3.928,30.993,18.405
1746584990.39,0.040,-0.015,-0.022,0.571,0.201,0.180,4.599,31.266,18.240
1746584990.41,0.049,-0.028,-0.052,0.517,0.151,0.212,5.243,31.464,17.856
1746584990.43,0.015,0.030,-0.027,0.512,0.152,0.211,5.875,31.633,17.534
1746584990.45,0.032,-0.054,-0.059,0.457,0.212,0.250,6.486,31.845,17.207
1746584990.47,0.003,-0.083,0.008,0.404,0.239,0.245,7.048,32.122,16.960
1746584990.49,0.017,-0.021,-0.064,0.387,0.178,0.227,7.573,32.359,16.481
1746584990.51,0.054,-0.026,-0.066,0.372,0.136,0.221,8.075,32.531,16.237
1746584990.53,0.039,-0.061,-0.031,0.356,0.113,0.185,8.551,32.678,16.204
1746584990.55,0.032,-0.029,-0.040,0.308,0.101,0.198,8.987,32.805,16.182
1746584990.57,-0.018,0.011,-0.019,0.258,0.168,0.210,9.388,32.946,16.203
1746584990.59,-0.021,-0.000,-0.050,0.241,0.224,0.177,9.751,33.173,16.240
1746584990.61,0.013,-0.013,-0.049,0.204,0.250,0.186,10.073,33.439,16.264
1746584990.63,0.042,0.042,-0.065,0.209,0.233,0.212,10.396,33.705,16.330
1746584990.65,-0.011,0.044,-0.075,0.186,0.232,0.187,10.707,33.954,16.395
1746584990.67,-0.007,0.016,-0.054,0.172,0.273,0.177,10.998,34.233,16.450
1746584990.69,-0.005,0.002,-0.058,0.160,0.299,0.175,11.264,34.549,16.263
1746584990.71,0.018,0.024,-0.063,0.181,0.245,0.156,11.527,34.856,15.843
1746584990.73,-0.017,0.021,-0.079,0.195,0.199,0.108,11.790,35.101,15.373
1746584990.75,0.012,-0.020,-0.070,0.165,0.144,0.114,12.034,35.307,14.884
1746584990.77,0.014,-0.012,-0.055,0.139,0.060,0.100,12.248,35.428,14.655
1746584990.79,-0.021,0.013,-0.060,0.127,0.035,0.078,12.432,35.484,14.422
1746584990.81,-0.020,0.012,-0.050,0.138,0.046,0.037,12.587,35.533,14.392
1746584990.83,-0.013,-0.010,-0.028,0.139,0.056,0.011,12.732,35.605,14.090
1746584990.85,0.006,0.002,-0.035,0.142,0.041,-0.006,12.867,35.682,13.547
1746584990.87,0.002,0.003,-0.048,0.141,0.008,-0.017,12.990,35.729,13.000
1746584990.89,-0.005,-0.011,-0.014,0.117,0.025,-0.016,13.096,35.761,12.682
1746584990.91,-0.010,-0.029,-0.020,0.092,0.056,-0.025,13.179,35.825,12.379
1746584990.93,0.012,-0.033,-0.029,0.062,0.059,-0.022,13.236,35.910,12.299
1746584990.95,0.054,-0.033,-0.024,0.023,0.026,0.003,13.265,35.967,12.048
1746584990.97,0.022,-0.019,-0.034,-0.002,0.039,0.036,13.287,35.993,11.646
1746584990.99,-0.017,-0.017,-0.013,-0.023,0.068,0.039,13.305,36.047,11.488
1746584991.00,-0.008,-0.021,-0.011,-0.038,0.032,0.021,13.295,36.091,11.541
1746584991.02,0.027,-0.009,-0.032,-0.024,-0.026,0.003,13.273,36.091,11.571
1746584991.04,0.000,-0.031,-0.047,-0.020,-0.109,-0.041,13.243,36.012,11.574
1746584991.06,0.016,-0.044,-0.079,0.010,-0.255,-0.110,13.188,35.820,11.505
1746584991.08,0.047,-0.025,-0.049,-0.010,-0.381,-0.199,13.091,35.474,11.356
1746584991.10,0.020,0.003,-0.089,-0.082,-0.364,-0.247,12.907,35.072,11.158
1746584991.12,0.028,-0.030,-0.091,-0.215,-0.293,-0.284,12.596,34.764,11.027
1746584991.14,0.056,-0.071,-0.132,-0.395,-0.245,-0.334,12.107,34.491,10.935
1746584991.16,0.174,-0.109,-0.196,-0.554,-0.307,-0.356,11.435,34.178,10.914
1746584991.18,0.198,-0.096,-0.214,-0.747,-0.339,-0.371,10.588,33.793,10.985
1746584991.20,0.171,-0.060,-0.245,-0.918,-0.346,-0.397,9.559,33.378,11.154
1746584991.22,0.114,-0.070,-0.204,-1.135,-0.315,-0.403,8.320,32.953,11.402
1746584991.24,0.132,-0.044,-0.229,-1.334,-0.249,-0.379,6.896,32.581,11.807
1746584991.26,0.128,-0.076,-0.246,-1.462,-0.280,-0.450,5.293,32.243,12.271
1746584991.28,0.179,-0.098,-0.138,-1.582,-0.221,-0.386,3.564,31.909,12.766
1746584991.30,0.078,-0.106,-0.099,-1.707,-0.092,-0.327,1.762,31.683,13.421
1746584991.32,-0.006,-0.053,-0.146,-1.843,0.103,-0.290,-0.151,31.685,14.182
1746584991.34,0.097,-0.006,-0.110,-2.034,0.142,-0.356,-2.226,31.834,15.047
1746584991.36,0.069,-0.090,0.037,-2.041,0.020,-0.436,-4.441,32.016,15.897
1746584991.38,0.069,-0.021,0.012,-1.938,-0.209,-0.452,-6.645,31.981,16.686
1746584991.40,-0.104,0.013,-0.055,-1.757,-0.296,-0.578,-8.746,31.767,17.309
1746584991.42,-0.148,-0.071,-0.003,-1.670,-0.125,-0.723,-10.795,31.597,17.706
1746584991.44,-0.100,-0.142,-0.020,-1.589,-0.366,-0.819,-12.833,31.386,17.913
1746584991.46,-0.016,-0.130,-0.009,-1.478,-0.460,-0.847,-14.839,30.912,18.026
1746584991.48,-0.008,-0.064,-0.030,-1.350,-0.449,-0.890,-16.735,30.377,17.991
1746584991.50,-0.064,-0.000,-0.030,-1.343,-0.455,-0.965,-18.587,29.820,17.826
1746584991.52,-0.050,-0.034,-0.056,-1.367,-0.325,-0.945,-20.474,29.297,17.628
1746584991.54,0.023,-0.057,-0.067,-1.381,-0.352,-0.967,-22.377,28.844,17.430
1746584991.56,0.031,-0.098,0.005,-1.263,-0.341,-1.049,-24.262,28.339,17.018
1746584991.58,0.049,-0.140,-0.057,-1.189,-0.445,-1.111,-26.047,27.653,16.521
1746584991.60,0.042,-0.118,0.018,-1.386,-0.133,-1.069,-27.937,27.109,16.028
1746584991.62,0.011,-0.099,0.005,-1.383,-0.177,-0.956,-29.883,26.766,15.673
1746584991.64,0.065,-0.045,0.051,-1.362,-0.047,-0.860,-31.753,26.513,15.420
1746584991.66,0.070,-0.046,0.018,-1.128,-0.483,-0.922,-33.473,26.091,15.108
1746584991.68,0.050,-0.053,-0.003,-1.154,-0.296,-1.051,-35.117,25.247,14.462
1746584991.70,0.027,-0.116,0.064,-1.260,-0.416,-1.055,-36.874,24.537,13.809
1746584991.72,0.031,-0.146,0.014,-1.424,-0.390,-0.890,-38.730,23.716,13.233
1746584991.74,0.100,-0.135,0.094,-1.552,-0.244,-0.745,-40.663,23.231,13.023
1746584991.76,0.081,-0.122,0.054,-1.506,-0.113,-0.768,-42.615,22.944,12.894
1746584991.78,0.057,-0.108,-0.029,-1.500,-0.254,-0.860,-44.543,22.556,12.522
1746584991.80,0.062,-0.106,-0.024,-1.666,-0.179,-0.859,-46.589,22.036,12.134
1746584991.82,0.049,-0.116,0.038,-1.750,-0.047,-0.778,-48.761,21.778,11.871
1746584991.84,0.046,-0.111,-0.022,-1.622,-0.225,-0.688,-50.874,21.585,11.795
1746584991.86,0.047,-0.060,-0.052,-1.447,-0.470,-0.756,-52.783,21.022,11.518
1746584991.88,0.076,-0.041,-0.005,-1.477,-0.603,-0.846,-54.663,20.021,11.007
1746584991.90,0.102,-0.068,0.011,-1.558,-0.666,-0.900,-56.630,18.752,10.353
1746584991.92,0.117,-0.089,-0.038,-1.532,-0.776,-0.853,-58.626,17.278,9.573
1746584991.94,0.102,-0.080,-0.029,-1.582,-0.960,-0.725,-60.573,15.665,8.793
1746584991.96,0.021,-0.063,0.056,-1.668,-1.016,-0.602,-62.577,14.073,8.194
1746584991.98,-0.047,-0.059,0.045,-1.507,-0.926,-0.525,-64.500,12.557,7.649
1746584992.00,-0.039,-0.076,0.039,-1.471,-0.977,-0.370,-66.241,11.115,7.246
1746584992.02,0.003,-0.102,0.060,-1.679,-1.219,-0.116,-68.062,10.003,7.341
1746584992.04,0.049,-0.122,0.047,-1.653,-1.551,0.076,-69.966,9.225,8.217
1746584992.06,0.050,-0.105,0.073,-1.485,-1.501,0.026,-71.725,8.474,9.285
1746584992.08,0.005,-0.063,0.062,-1.474,-1.305,-0.220,-73.401,7.279,9.695
1746584992.10,-0.066,-0.054,-0.041,-1.542,-1.043,-0.441,-75.145,5.222,8.957
1746584992.12,-0.125,-0.087,-0.094,-1.506,-0.978,-0.520,-76.948,2.316,7.120
1746584992.14,-0.110,-0.117,-0.063,-1.257,-1.105,-0.308,-78.535,-1.137,4.794
1746584992.16,0.007,-0.168,0.091,-1.159,-1.137,0.145,-79.899,-3.145,4.099
1746584992.18,0.010,-0.086,0.093,-1.052,-0.620,0.229,-81.178,-3.143,5.148
1746584992.20,-0.029,-0.056,0.018,-1.035,-0.241,0.115,-82.353,-2.650,6.102
1746584992.22,-0.015,-0.076,0.028,-1.231,-0.363,0.155,-83.648,-2.252,6.798
1746584992.24,0.005,-0.089,0.035,-1.178,-0.713,0.213,-85.060,-1.131,8.561
1746584992.26,0.019,-0.065,0.118,-0.981,-0.816,0.239,-86.295,1.442,12.041
1746584992.28,0.023,-0.024,0.218,-0.794,-0.616,0.293,-87.278,7.320,18.791
1746584992.30,-0.104,0.008,0.154,-0.578,0.074,0.341,-87.972,20.362,32.179
1746584992.32,-0.264,0.021,0.066,-0.422,0.552,0.335,-88.255,38.774,50.166
1746584992.34,-0.375,0.041,0.024,-0.610,0.027,0.364,-88.300,62.849,73.870
1746584992.36,-0.386,0.103,0.035,-0.580,-0.086,0.147,-88.174,88.135,99.286
1746584992.38,-0.293,0.068,0.118,-0.261,0.277,-0.052,-88.095,102.904,113.943
1746584992.40,-0.158,0.023,0.089,-0.077,0.408,-0.039,-88.107,109.030,119.655
1746584992.42,-0.007,-0.008,0.033,-0.038,0.246,0.014,-88.099,111.026,121.257
1746584992.44,0.089,-0.001,-0.011,-0.092,-0.041,0.049,-88.038,112.601,122.716
1746584992.46,0.103,0.002,-0.036,-0.161,-0.235,0.112,-87.899,115.265,125.548
1746584992.48,0.013,-0.027,-0.029,-0.065,-0.268,0.145,-87.693,116.692,127.289
1746584992.50,-0.038,-0.002,0.011,0.116,-0.099,0.116,-87.573,114.300,125.102
1746584992.52,-0.054,0.053,-0.008,0.115,-0.066,0.125,-87.502,109.637,120.513
1746584992.54,-0.096,0.062,-0.003,0.100,-0.099,0.079,-87.417,106.658,117.624
1746584992.56,-0.086,-0.011,-0.077,0.302,0.066,0.029,-87.418,101.431,112.454
1746584992.58,-0.042,-0.024,0.007,0.315,0.359,0.106,-87.400,93.311,104.060
1746584992.60,-0.047,0.051,0.033,0.286,0.404,0.107,-87.261,86.669,96.954
1746584992.62,-0.052,0.051,-0.049,0.365,0.218,-0.013,-87.162,79.606,89.521
1746584992.64,0.040,-0.022,-0.084,0.330,0.294,-0.047,-87.106,71.616,81.255
1746584992.66,0.111,-0.052,0.054,0.223,0.240,0.025,-87.009,66.084,75.371
1746584992.68,0.142,-0.054,0.062,0.115,0.054,0.053,-86.883,63.395,72.534
1746584992.70,0.141,-0.069,0.054,0.011,-0.077,0.115,-86.771,62.964,72.098
1746584992.72,0.085,-0.031,-0.010,-0.057,-0.263,0.142,-86.648,64.490,73.821
1746584992.74,-0.033,0.046,-0.068,0.013,-0.397,0.075,-86.544,65.643,75.362
1746584992.76,-0.116,0.061,-0.044,0.130,-0.288,-0.047,-86.492,64.060,74.200
1746584992.78,-0.088,0.004,0.059,0.160,0.006,-0.073,-86.479,60.848,71.135
1746584992.80,-0.029,-0.041,0.109,0.114,0.063,-0.037,-86.452,58.159,68.378
1746584992.82,-0.024,-0.032,0.094,0.071,-0.133,-0.042,-86.430,56.377,66.610
1746584992.84,-0.041,0.005,-0.017,0.077,-0.293,-0.095,-86.450,54.309,64.814
1746584992.86,-0.028,0.035,-0.026,0.122,-0.057,-0.097,-86.482,51.478,62.204
1746584992.88,-0.019,0.002,0.076,0.190,0.123,-0.047,-86.434,48.545,59.202
1746584992.90,-0.022,-0.017,0.071,0.221,0.059,-0.035,-86.305,45.468,55.999
1746584992.92,-0.012,-0.008,0.052,0.214,-0.004,-0.058,-86.166,42.310,52.814
1746584992.94,-0.022,0.025,0.051,0.271,-0.005,-0.078,-86.013,38.857,49.358
1746584992.96,-0.054,0.036,0.026,0.404,0.048,-0.091,-85.769,34.604,45.076
1746584992.98,-0.065,0.006,0.024,0.473,0.224,-0.080,-85.403,30.181,40.494
1746584993.00,-0.048,-0.017,0.039,0.471,0.414,-0.065,-84.971,26.681,36.610
1746584993.02,-0.034,-0.035,0.069,0.516,0.540,-0.057,-84.494,23.959,33.330
1746584993.04,-0.020,-0.033,0.067,0.633,0.660,-0.056,-83.921,21.602,30.271
1746584993.06,-0.022,-0.027,0.061,0.761,0.653,-0.073,-83.181,19.268,27.148
1746584993.08,-0.066,0.018,0.015,0.642,0.512,-0.140,-82.448,17.040,24.233
1746584993.10,-0.089,0.001,0.051,0.683,0.711,-0.187,-81.793,14.925,21.431
1746584993.12,-0.054,-0.017,0.106,0.796,1.019,-0.190,-81.020,13.135,18.608
1746584993.14,-0.024,0.016,0.119,0.805,1.037,-0.153,-80.160,11.968,16.200
1746584993.16,0.003,0.047,-0.081,0.716,0.675,-0.166,-79.347,11.015,14.254
1746584993.18,0.024,-0.002,-0.067,0.723,0.898,-0.168,-78.580,10.111,12.468
1746584993.20,0.027,-0.044,0.092,0.682,0.829,-0.135,-77.812,9.678,10.915
1746584993.22,0.023,-0.011,-0.027,0.758,0.270,-0.062,-77.047,9.194,9.800
1746584993.24,0.014,0.005,-0.071,0.932,0.299,-0.051,-76.085,8.590,8.897
1746584993.26,0.023,-0.005,-0.057,0.902,0.682,-0.051,-75.041,8.300,8.016
1746584993.28,0.003,-0.015,-0.072,0.761,0.501,-0.004,-74.114,8.426,7.388
1746584993.30,-0.048,-0.019,-0.103,0.726,0.490,-0.053,-73.279,8.463,6.878
1746584993.32,-0.085,-0.029,-0.018,0.779,0.511,-0.085,-72.446,8.340,6.138
1746584993.34,-0.048,-0.065,-0.009,0.832,0.665,0.001,-71.553,8.425,5.538
1746584993.36,0.009,-0.070,0.022,0.848,0.611,0.124,-70.581,8.983,5.254
1746584993.38,0.003,-0.028,-0.134,0.786,0.184,0.176,-69.616,9.497,5.300
1746584993.40,-0.003,-0.005,-0.069,0.615,0.680,0.138,-68.801,10.032,5.414
1746584993.42,0.042,-0.016,0.067,0.501,0.733,0.248,-68.158,11.139,5.653
1746584993.44,0.062,-0.032,0.105,0.843,0.621,0.307,-67.391,12.312,6.018
1746584993.46,0.043,-0.025,-0.132,0.983,-0.381,0.382,-66.201,12.852,6.370
1746584993.48,0.017,0.003,-0.127,0.664,0.062,0.264,-65.216,12.878,6.695
1746584993.50,-0.001,-0.046,0.036,0.536,0.561,0.206,-64.499,13.495,6.886
1746584993.52,-0.006,-0.052,0.081,0.666,0.476,0.279,-63.805,14.335,7.078
1746584993.54,-0.003,-0.015,0.084,0.981,0.175,0.451,-62.767,15.045,7.403
1746584993.56,-0.014,0.009,-0.019,0.904,-0.051,0.496,-61.548,15.554,7.948
1746584993.58,-0.045,-0.014,-0.034,0.731,0.199,0.426,-60.513,16.050,8.410
1746584993.60,0.027,-0.050,-0.004,0.552,0.380,0.495,-59.674,16.925,8.990
1746584993.62,0.092,-0.033,0.060,0.636,0.103,0.562,-58.875,17.884,9.754
1746584993.64,0.066,0.045,0.092,0.912,-0.151,0.415,-57.837,18.248,10.258
1746584993.66,-0.073,0.057,0.042,0.939,-0.156,0.318,-56.690,18.123,10.326
1746584993.68,-0.106,-0.007,-0.101,0.649,0.334,0.418,-55.684,18.335,10.531
1746584993.70,0.003,-0.019,0.028,0.491,0.382,0.481,-54.932,19.256,11.053
1746584993.72,0.029,0.022,0.013,0.553,0.285,0.477,-54.206,20.044,11.562
1746584993.74,0.025,0.017,0.024,0.800,0.153,0.437,-53.293,20.645,11.887
1746584993.76,-0.030,-0.020,-0.110,0.726,0.051,0.406,-52.271,20.892,12.094
1746584993.78,-0.017,-0.022,-0.005,0.709,0.102,0.336,-51.383,21.146,12.294
1746584993.80,-0.067,0.004,-0.009,0.753,0.159,0.283,-50.464,21.268,12.298
1746584993.82,-0.047,0.014,0.078,0.793,0.310,0.348,-49.541,21.595,12.335
1746584993.84,0.007,0.030,0.054,0.985,0.129,0.331,-48.437,21.824,12.309
1746584993.85,0.003,0.044,0.028,0.867,0.084,0.382,-47.275,21.891,12.256
1746584993.87,0.066,0.033,0.036,0.681,0.125,0.469,-46.287,22.151,12.445
1746584993.89,0.041,0.006,-0.029,0.632,0.088,0.483,-45.387,22.478,12.769
1746584993.91,0.012,0.007,0.007,0.681,0.167,0.389,-44.511,22.824,13.033
1746584993.93,-0.025,0.004,0.051,0.808,0.149,0.371,-43.575,23.055,13.104
1746584993.95,-0.045,-0.060,0.014,0.926,0.055,0.396,-42.462,23.159,13.057
1746584993.97,0.030,0.025,0.018,0.708,0.234,0.341,-41.419,23.366,12.993
1746584993.99,-0.003,0.086,0.054,0.580,0.290,0.369,-40.613,23.738,13.091
1746584994.01,-0.043,0.052,0.011,0.641,0.308,0.426,-39.800,24.172,13.205
1746584994.03,-0.067,-0.027,0.026,0.828,0.242,0.380,-38.861,24.580,13.314
1746584994.05,-0.093,-0.110,-0.020,0.927,0.171,0.302,-37.752,24.765,13.157
1746584994.07,-0.032,-0.042,-0.040,0.765,0.220,0.245,-36.746,24.871,12.896
1746584994.09,0.006,0.037,-0.026,0.711,0.262,0.330,-35.857,25.117,12.742
1746584994.11,-0.023,0.066,-0.023,0.777,0.210,0.368,-34.921,25.417,12.668
1746584994.13,-0.040,-0.004,-0.009,0.906,0.053,0.343,-33.878,25.544,12.615
1746584994.15,-0.032,-0.063,0.006,0.906,0.045,0.258,-32.782,25.483,12.437
1746584994.17,-0.009,-0.087,-0.019,0.722,0.172,0.323,-31.802,25.499,12.285
1746584994.19,0.062,-0.018,0.034,0.677,0.159,0.447,-30.915,25.785,12.376
1746584994.21,0.021,0.046,0.015,0.714,0.120,0.429,-29.964,26.005,12.494
1746584994.23,-0.039,-0.056,0.136,0.715,0.103,0.477,-29.003,26.164,12.618
1746584994.25,-0.014,-0.154,0.039,0.712,0.336,0.453,-28.030,26.487,12.766
1746584994.27,-0.026,-0.038,-0.101,0.636,0.543,0.428,-27.118,27.067,12.881
1746584994.29,-0.020,0.027,-0.014,0.747,0.267,0.389,-26.215,27.580,12.957
1746584994.31,0.048,-0.014,0.028,0.900,0.082,0.312,-25.193,27.745,12.860
1746584994.33,-0.010,-0.027,0.079,1.006,-0.181,0.248,-24.092,27.556,12.485
1746584994.35,-0.110,-0.017,0.025,0.875,0.096,0.449,-22.926,27.388,12.305
1746584994.37,-0.094,0.027,-0.048,0.682,0.370,0.587,-21.870,27.743,12.466
1746584994.39,0.013,0.002,0.013,0.754,0.289,0.464,-20.880,28.196,12.632
1746584994.41,0.123,-0.076,0.065,0.823,0.045,0.485,-19.842,28.389,12.641
1746584994.43,0.127,-0.075,0.067,0.807,-0.052,0.645,-18.715,28.400,12.779
1746584994.45,-0.055,0.000,-0.060,0.834,-0.056,0.650,-17.528,28.398,12.992
1746584994.47,-0.192,-0.053,-0.079,0.810,0.157,0.413,-16.424,28.508,13.081
1746584994.49,0.081,-0.024,-0.062,0.910,-0.108,0.357,-15.362,28.541,12.988
1746584994.51,0.212,0.006,0.053,0.868,-0.379,0.431,-14.240,28.205,12.768
1746584994.53,-0.033,-0.065,0.121,0.764,-0.399,0.533,-13.176,27.755,12.699
1746584994.55,-0.191,0.002,-0.002,0.808,-0.012,0.538,-12.095,27.551,12.820
1746584994.57,-0.062,0.032,-0.016,0.838,0.041,0.523,-10.995,27.599,12.909
1746584994.59,-0.008,0.132,0.036,0.924,0.025,0.590,-9.798,27.664,13.012
1746584994.61,-0.017,0.105,-0.062,0.961,0.120,0.576,-8.533,27.753,13.096
1746584994.63,0.004,-0.008,-0.064,0.937,0.113,0.502,-7.277,27.835,12.969
1746584994.65,-0.008,0.009,-0.047,0.978,0.109,0.508,-6.056,27.998,12.963
1746584994.67,-0.123,0.128,-0.011,0.988,0.170,0.467,-4.812,28.166,12.918
1746584994.69,-0.066,0.117,-0.046,0.994,0.198,0.435,-3.562,28.350,12.838
1746584994.71,0.014,0.017,-0.084,0.989,0.338,0.431,-2.329,28.632,12.722
1746584994.73,-0.013,-0.061,-0.126,0.961,0.430,0.370,-1.138,29.083,12.592
1746584994.75,0.037,0.048,-0.107,0.957,0.393,0.331,0.028,29.572,12.393
1746584994.77,-0.021,0.063,0.006,0.954,0.359,0.312,1.148,30.002,12.167
1746584994.79,-0.094,0.034,-0.045,1.036,0.294,0.311,2.302,30.394,11.730
1746584994.81,0.020,-0.006,-0.079,0.999,0.294,0.208,3.442,30.797,11.399
1746584994.83,0.090,-0.050,-0.178,0.875,0.231,0.161,4.466,31.114,11.015
1746584994.85,0.108,-0.011,-0.149,0.768,0.200,0.208,5.376,31.392,10.384
1746584994.87,0.012,0.054,-0.119,0.730,0.276,0.217,6.233,31.674,9.829
1746584994.89,-0.013,0.007,-0.009,0.723,0.312,0.134,7.037,32.045,9.418
1746584994.91,-0.024,-0.010,-0.045,0.735,0.269,0.007,7.784,32.438,8.708
1746584994.93,0.157,-0.052,-0.088,0.650,0.151,0.045,8.469,32.740,7.989
1746584994.95,0.112,-0.019,-0.135,0.538,0.107,0.110,9.090,32.917,7.390
1746584994.97,-0.005,-0.018,-0.071,0.432,0.175,0.132,9.623,33.093,6.917
1746584994.99,-0.074,-0.038,-0.019,0.397,0.237,0.044,10.075,33.366,6.745
1746584995.01,0.032,-0.079,-0.014,0.308,0.166,0.032,10.434,33.637,6.239
1746584995.03,0.119,-0.080,-0.062,0.250,0.066,0.091,10.740,33.790,5.827
1746584995.05,0.085,-0.035,-0.095,0.183,0.069,0.162,11.028,33.861,5.527
1746584995.07,-0.002,-0.018,-0.041,0.180,0.117,0.158,11.303,33.960,5.287
1746584995.09,-0.009,-0.010,0.020,0.172,0.120,0.132,11.562,34.091,5.034
1746584995.11,0.025,-0.030,0.025,0.102,0.074,0.130,11.780,34.206,4.793
1746584995.13,0.047,-0.024,-0.045,0.061,0.072,0.175,11.950,34.259,4.617
1746584995.15,0.026,-0.015,-0.059,0.053,0.070,0.147,12.110,34.329,4.485
1746584995.17,0.005,0.001,-0.079,0.021,0.027,0.107,12.235,34.368,4.318
1746584995.19,0.038,-0.032,-0.038,-0.051,-0.073,0.073,12.266,34.319,4.163
1746584995.21,0.068,-0.020,-0.108,-0.092,-0.072,0.019,12.242,34.205,4.015
1746584995.23,0.036,-0.051,-0.092,-0.159,-0.083,-0.055,12.106,34.104,3.839
1746584995.25,0.040,-0.031,-0.178,-0.271,-0.205,-0.144,11.856,33.945,3.648
1746584995.27,0.116,-0.079,-0.228,-0.394,-0.346,-0.241,11.408,33.615,3.450
1746584995.29,0.192,-0.119,-0.237,-0.507,-0.430,-0.372,10.782,33.158,3.211
1746584995.31,0.125,-0.105,-0.165,-0.718,-0.313,-0.402,9.957,32.731,3.000
1746584995.33,0.103,-0.018,-0.306,-0.959,-0.221,-0.329,8.928,32.398,2.964
1746584995.35,0.127,-0.022,-0.256,-1.181,-0.168,-0.324,7.692,32.136,3.123
1746584995.37,0.134,-0.102,-0.120,-1.365,-0.074,-0.377,6.245,31.935,3.355
1746584995.39,0.089,-0.116,-0.087,-1.505,-0.045,-0.402,4.629,31.827,3.682
1746584995.41,0.066,-0.045,-0.249,-1.612,-0.042,-0.478,2.853,31.757,4.019
1746584995.43,0.141,-0.057,-0.275,-1.698,-0.166,-0.534,0.933,31.618,4.368
1746584995.45,0.174,-0.045,-0.158,-1.805,-0.234,-0.497,-1.085,31.362,4.846
1746584995.47,0.052,-0.010,-0.049,-1.877,-0.118,-0.544,-3.186,31.193,5.313
1746584995.49,-0.027,-0.022,-0.087,-1.870,-0.109,-0.672,-5.385,31.112,5.829
1746584995.51,0.029,-0.014,-0.040,-1.770,-0.299,-0.779,-7.593,30.924,6.138
1746584995.53,0.042,-0.076,-0.024,-1.672,-0.400,-0.930,-9.770,30.531,6.221
1746584995.55,0.058,-0.174,-0.038,-1.714,-0.299,-0.889,-11.967,30.144,6.240
1746584995.57,0.060,-0.104,-0.005,-1.705,-0.319,-0.843,-14.164,29.827,6.381
1746584995.59,0.031,-0.053,0.036,-1.583,-0.335,-0.945,-16.291,29.471,6.351
1746584995.61,-0.027,-0.072,0.094,-1.386,-0.429,-0.949,-18.319,29.005,6.203
1746584995.63,-0.051,-0.183,-0.039,-1.451,-0.354,-0.955,-20.231,28.439,5.958
1746584995.65,-0.007,-0.154,0.027,-1.502,-0.072,-0.926,-22.239,28.191,5.794
1746584995.67,-0.039,-0.111,0.002,-1.378,-0.256,-1.021,-24.220,27.934,5.578
1746584995.69,-0.040,-0.122,-0.040,-1.272,-0.394,-1.075,-26.096,27.398,5.163
1746584995.71,-0.010,-0.136,-0.038,-1.401,-0.280,-1.053,-28.005,26.757,4.721
1746584995.73,-0.027,-0.160,0.084,-1.481,-0.002,-1.017,-30.023,26.441,4.378
1746584995.75,-0.053,-0.131,-0.022,-1.565,0.093,-0.958,-32.069,26.359,4.097
1746584995.77,0.001,-0.041,-0.021,-1.613,-0.096,-0.914,-34.178,26.290,3.925
1746584995.79,0.068,-0.010,-0.092,-1.599,-0.206,-0.910,-36.280,26.008,3.789
1746584995.81,0.088,-0.038,-0.049,-1.624,-0.135,-0.987,-38.412,25.677,3.573
1746584995.83,0.051,-0.144,0.019,-1.642,-0.155,-0.985,-40.583,25.324,3.284
1746584995.85,0.064,-0.219,0.065,-1.604,-0.113,-0.848,-42.705,25.037,3.056
1746584995.87,0.089,-0.197,-0.014,-1.692,-0.181,-0.754,-44.784,24.835,3.086
1746584995.89,0.064,-0.131,-0.018,-1.704,-0.269,-0.826,-46.934,24.602,3.128
1746584995.91,0.010,-0.069,-0.036,-1.585,-0.560,-0.960,-49.066,23.961,2.970
1746584995.93,0.008,-0.039,-0.016,-1.618,-0.695,-0.996,-51.178,22.835,2.569
1746584995.95,-0.012,-0.037,0.107,-1.662,-0.482,-0.974,-53.347,21.721,2.083
1746584995.97,0.043,-0.069,-0.012,-1.637,-0.474,-0.888,-55.494,20.770,1.580
1746584995.99,0.133,-0.095,-0.039,-1.607,-0.696,-0.772,-57.563,19.740,1.139
1746584996.01,0.126,-0.088,0.033,-1.589,-0.917,-0.676,-59.543,18.516,0.817
1746584996.03,0.069,-0.068,0.047,-1.605,-0.966,-0.680,-61.522,17.129,0.510
1746584996.05,0.015,-0.082,0.028,-1.535,-1.000,-0.672,-63.462,15.543,0.027
1746584996.07,0.014,-0.120,0.035,-1.620,-1.087,-0.470,-65.367,13.944,-0.419
1746584996.09,0.034,-0.177,0.112,-1.617,-1.057,-0.127,-67.253,12.941,-0.145
1746584996.11,0.029,-0.157,0.111,-1.629,-1.278,0.163,-69.044,12.750,1.057
1746584996.13,0.000,-0.092,0.084,-1.701,-1.374,0.239,-70.836,13.036,3.008
1746584996.15,-0.037,-0.047,0.141,-1.890,-1.251,0.118,-72.792,13.610,5.213
1746584996.17,-0.080,-0.040,0.077,-1.692,-0.962,-0.181,-74.822,13.952,6.897
1746584996.19,-0.123,-0.059,0.031,-1.467,-0.907,-0.431,-76.641,13.203,7.172
1746584996.21,-0.109,-0.025,0.053,-1.438,-1.235,-0.304,-78.352,11.480,6.664
1746584996.23,-0.034,-0.027,0.140,-1.369,-1.142,0.020,-79.967,10.967,7.579
1746584996.25,-0.088,-0.042,0.094,-1.238,-0.697,0.091,-81.399,12.265,9.992
1746584996.27,-0.141,-0.141,0.048,-1.268,-0.428,0.073,-82.764,14.619,12.994
1746584996.29,-0.166,-0.222,0.059,-1.195,-0.304,0.054,-84.101,18.422,17.231
1746584996.31,-0.216,-0.155,-0.116,-1.132,-0.245,-0.012,-85.330,23.388,22.539
1746584996.33,-0.131,-0.045,-0.031,-1.003,-0.246,-0.068,-86.450,30.250,29.693
1746584996.35,-0.061,0.082,-0.018,-0.688,-0.168,-0.097,-87.320,38.684,38.389
1746584996.37,-0.008,0.175,0.013,-0.404,-0.053,-0.067,-87.838,46.683,46.512
1746584996.39,-0.010,0.161,-0.053,-0.245,-0.099,-0.017,-88.105,53.721,53.625
1746584996.41,-0.011,0.025,-0.043,-0.130,-0.222,0.006,-88.229,58.762,58.856
1746584996.43,0.015,-0.066,0.020,-0.129,-0.314,0.085,-88.257,63.304,63.715
1746584996.45,0.012,-0.033,0.068,-0.164,-0.248,0.148,-88.195,69.568,70.307
1746584996.47,-0.016,0.017,0.079,-0.170,-0.148,0.128,-88.097,76.579,77.560
1746584996.49,-0.035,-0.021,0.115,-0.179,0.027,0.124,-87.998,82.815,83.863
1746584996.51,-0.060,-0.067,0.147,-0.218,0.161,0.176,-87.840,89.443,90.385
1746584996.53,-0.091,-0.014,0.108,-0.265,-0.061,0.164,-87.615,96.310,97.158
1746584996.55,-0.154,0.086,-0.022,-0.119,-0.475,-0.038,-87.501,101.176,102.346
1746584996.57,-0.158,0.082,-0.038,0.004,-0.388,-0.127,-87.606,102.448,104.181
1746584996.59,-0.072,-0.002,0.078,0.053,0.146,-0.039,-87.710,102.036,103.903
1746584996.61,-0.024,-0.035,0.048,0.105,0.232,0.023,-87.731,99.916,101.511
1746584996.63,-0.030,0.018,-0.006,0.062,0.089,-0.006,-87.733,97.694,99.108
1746584996.65,0.003,0.033,-0.058,0.081,0.033,-0.029,-87.764,95.837,97.202
1746584996.66,0.066,0.012,-0.020,0.084,0.162,-0.028,-87.805,93.623,94.881
1746584996.69,0.084,-0.048,0.073,0.077,0.178,0.026,-87.812,91.449,92.487
1746584996.70,0.060,-0.049,0.005,0.072,-0.094,0.041,-87.770,89.283,90.260
1746584996.72,0.033,-0.004,-0.077,0.076,-0.331,0.023,-87.729,86.897,88.133
1746584996.74,0.021,0.024,-0.022,0.116,-0.224,-0.001,-87.705,83.895,85.469
1746584996.76,-0.003,0.004,0.037,0.175,-0.179,-0.004,-87.675,79.693,81.467
1746584996.78,-0.057,-0.009,0.011,0.192,-0.366,-0.033,-87.640,74.231,76.306
1746584996.80,-0.073,0.003,0.016,0.243,-0.392,-0.062,-87.610,67.722,70.250
1746584996.82,-0.061,0.012,0.053,0.301,-0.169,-0.049,-87.532,60.033,62.891
1746584996.84,-0.046,0.000,0.107,0.342,0.070,0.004,-87.350,52.634,55.523
1746584996.86,-0.075,-0.015,0.096,0.320,0.100,0.051,-87.079,47.257,50.032
1746584996.88,-0.113,-0.002,0.074,0.325,0.147,0.036,-86.785,43.330,45.968
1746584996.90,-0.118,-0.004,0.099,0.435,0.321,-0.012,-86.462,39.044,41.417
1746584996.92,-0.083,0.005,0.068,0.642,0.534,-0.001,-85.973,33.837,35.704
1746584996.94,-0.047,-0.016,0.076,0.771,0.580,0.039,-85.269,29.169,30.371
1746584996.96,-0.039,-0.034,0.071,0.794,0.533,0.031,-84.439,25.646,26.189
1746584996.98,-0.077,-0.026,0.045,0.805,0.374,-0.030,-83.627,22.656,22.656
1746584997.00,-0.077,0.021,-0.059,0.897,0.503,-0.089,-82.722,19.615,19.141
1746584997.02,-0.090,-0.006,0.148,0.902,1.082,-0.149,-81.793,17.149,15.743
1746584997.04,-0.084,-0.008,0.158,0.859,1.070,-0.107,-80.860,15.599,12.841
1746584997.06,-0.080,0.028,-0.113,0.690,0.373,-0.081,-80.032,14.482,10.890
1746584997.08,-0.019,0.019,-0.035,0.661,0.788,-0.195,-79.343,13.240,9.037
1746584997.10,0.056,-0.053,0.178,0.821,0.955,-0.159,-78.575,12.230,6.934
1746584997.12,0.077,-0.020,0.022,1.011,0.679,-0.027,-77.556,11.695,5.386
1746584997.14,0.040,0.027,-0.132,0.987,0.211,0.054,-76.406,11.220,4.449
1746584997.16,-0.013,0.008,0.034,0.970,0.794,-0.047,-75.342,11.016,3.671
1746584997.18,-0.093,-0.040,-0.031,1.069,0.845,-0.112,-74.194,10.779,2.411
1746584997.20,-0.112,-0.101,-0.042,1.112,0.765,-0.020,-73.015,10.648,1.318
1746584997.22,-0.053,-0.084,-0.021,1.311,0.496,0.139,-71.605,10.726,0.640
1746584997.24,0.025,-0.008,0.024,0.943,0.878,0.274,-70.271,11.421,0.583
1746584997.26,0.047,-0.009,0.026,0.638,0.982,0.394,-69.359,13.025,1.143
1746584997.28,0.051,-0.043,0.057,0.741,1.024,0.415,-68.468,14.903,1.909
1746584997.30,0.080,-0.007,0.094,0.878,0.560,0.324,-67.481,16.275,2.329
1746584997.32,0.097,0.053,-0.122,0.957,-0.143,0.296,-66.354,16.547,2.408
1746584997.34,0.026,0.072,-0.126,0.780,0.077,0.173,-65.346,16.401,2.411
1746584997.36,-0.025,0.006,0.025,0.717,0.505,0.205,-64.443,16.614,2.272
1746584997.38,0.018,-0.079,0.113,0.655,0.326,0.480,-63.621,17.463,2.636
1746584997.40,0.061,-0.080,0.052,1.055,0.202,0.595,-62.509,18.336,3.314
1746584997.42,0.039,-0.023,-0.006,1.198,-0.150,0.422,-61.077,18.703,3.652
1746584997.44,-0.099,-0.019,-0.070,1.084,-0.174,0.287,-59.715,18.283,3.500
1746584997.46,-0.029,-0.084,0.021,0.747,0.534,0.508,-58.565,18.688,3.659
1746584997.48,0.082,-0.085,0.046,0.657,0.231,0.696,-57.621,19.843,4.457
1746584997.50,0.149,0.019,0.021,0.894,-0.040,0.654,-56.510,20.563,5.239
1746584997.52,0.085,0.058,0.089,1.071,-0.174,0.427,-55.235,20.742,5.595
1746584997.54,-0.083,-0.025,-0.086,1.051,-0.219,0.479,-53.901,20.508,5.588
1746584997.56,-0.015,-0.135,-0.089,0.678,0.318,0.693,-52.728,20.907,6.058
1746584997.58,0.033,-0.116,0.038,0.424,0.193,0.701,-51.872,21.957,6.948
1746584997.60,-0.032,0.026,0.070,0.547,0.317,0.560,-51.120,22.826,7.693
1746584997.62,-0.034,0.076,-0.030,0.793,0.126,0.529,-50.164,23.411,8.111
1746584997.64,-0.010,0.071,-0.086,0.715,0.134,0.504,-49.111,23.735,8.389
1746584997.66,-0.034,0.007,0.011,0.589,0.358,0.494,-48.217,24.285,8.742
1746584997.68,-0.054,0.003,0.002,0.737,0.200,0.428,-47.326,24.820,8.997
1746584997.70,-0.043,0.065,-0.006,0.908,0.075,0.355,-46.280,24.977,9.010
1746584997.72,-0.030,0.074,0.020,1.079,0.098,0.309,-45.094,24.936,8.817
1746584997.74,-0.037,0.005,0.013,1.164,0.169,0.322,-43.758,24.855,8.489
1746584997.76,0.005,-0.016,0.007,1.010,-0.041,0.388,-42.444,24.779,8.278
1746584997.78,0.069,0.017,0.060,0.981,-0.051,0.464,-41.224,24.720,8.238
1746584997.80,0.047,0.019,-0.051,0.829,0.061,0.455,-40.052,24.741,8.316
1746584997.82,-0.019,0.039,0.014,0.904,0.146,0.263,-39.012,24.858,8.281
1746584997.84,-0.063,-0.022,0.053,1.052,0.019,0.254,-37.863,24.786,7.986
1746584997.86,-0.068,-0.065,0.031,1.039,-0.019,0.307,-36.641,24.618,7.740
1746584997.88,-0.007,-0.041,-0.008,1.011,0.007,0.327,-35.410,24.501,7.525
1746584997.90,0.023,-0.002,-0.032,0.929,0.181,0.309,-34.262,24.501,7.376
1746584997.92,-0.103,0.039,0.022,0.899,0.364,0.223,-33.194,24.730,7.178
1746584997.94,-0.152,0.008,0.061,0.911,0.282,0.310,-32.135,25.017,6.982
1746584997.96,-0.099,-0.022,0.001,0.861,0.378,0.331,-31.058,25.306,6.866
1746584997.98,0.035,-0.016,-0.022,0.852,0.268,0.300,-30.010,25.625,6.722
1746584998.00,0.068,-0.010,-0.050,0.866,0.230,0.271,-28.991,25.816,6.546
1746584998.02,0.002,-0.008,-0.032,0.763,0.333,0.216,-28.038,26.068,6.312
1746584998.04,-0.022,-0.038,0.073,0.750,0.219,0.318,-27.143,26.326,6.183
1746584998.06,0.041,-0.074,0.087,0.775,0.211,0.482,-26.150,26.596,6.192
1746584998.08,0.003,-0.077,-0.017,0.766,0.198,0.471,-25.104,26.888,6.302
1746584998.10,-0.023,-0.127,-0.029,0.769,0.192,0.373,-24.114,27.097,6.322
1746584998.12,0.003,-0.157,0.006,0.805,0.247,0.327,-23.143,27.334,6.254
1746584998.14,-0.016,-0.038,0.046,0.812,0.197,0.481,-22.104,27.567,6.209
1746584998.16,0.030,0.079,0.032,0.840,0.135,0.589,-20.992,27.828,6.357
1746584998.18,-0.030,0.052,0.005,0.888,-0.006,0.512,-19.817,27.894,6.429
1746584998.20,-0.031,-0.097,0.037,0.812,-0.029,0.476,-18.696,27.900,6.476
1746584998.22,-0.030,-0.044,-0.032,0.862,0.039,0.500,-17.598,27.912,6.529
1746584998.24,-0.017,0.067,-0.072,0.910,0.069,0.486,-16.439,27.983,6.538
1746584998.26,-0.025,0.073,0.011,0.923,0.138,0.518,-15.252,28.124,6.563
1746584998.28,-0.103,0.040,0.035,1.028,0.144,0.411,-14.034,28.261,6.523
1746584998.30,-0.019,0.011,0.001,1.066,0.037,0.370,-12.759,28.336,6.329
1746584998.32,0.051,0.042,0.008,0.967,-0.161,0.346,-11.540,28.232,6.138
1746584998.34,0.013,0.061,-0.054,0.994,0.008,0.430,-10.343,28.089,6.004
1746584998.36,-0.131,0.050,-0.132,1.027,0.321,0.322,-9.115,28.277,5.837
1746584998.38,-0.048,-0.018,-0.015,0.983,0.407,0.330,-7.936,28.667,5.613
1746584998.40,0.050,0.022,-0.046,0.959,0.381,0.333,-6.781,29.110,5.413
1746584998.42,0.017,0.075,-0.035,0.854,0.164,0.286,-5.704,29.395,5.217
1746584998.44,0.162,0.025,-0.107,0.806,-0.071,0.323,-4.712,29.457,5.052
1746584998.46,0.163,-0.034,-0.129,0.735,-0.155,0.426,-3.730,29.291,4.988
1746584998.48,0.050,-0.001,-0.018,0.710,0.033,0.535,-2.750,29.228,5.061
1746584998.50,-0.150,0.072,0.092,0.713,0.238,0.488,-1.781,29.409,5.174
1746584998.52,-0.221,0.023,0.039,0.726,0.188,0.372,-0.802,29.675,5.227
1746584998.54,0.080,-0.094,-0.104,0.770,-0.051,0.298,0.116,29.771,5.112
1746584998.56,0.238,-0.091,-0.147,0.749,-0.185,0.417,1.079,29.618,5.033
1746584998.58,-0.013,-0.075,-0.010,0.684,0.102,0.407,2.025,29.572,5.046
1746584998.60,-0.128,-0.036,0.063,0.630,0.221,0.359,2.899,29.768,4.969
1746584998.62,-0.031,0.032,0.026,0.630,0.166,0.314,3.702,30.001,4.945
1746584998.64,0.076,0.072,-0.076,0.568,0.086,0.372,4.493,30.140,4.923
1746584998.66,0.120,-0.000,-0.105,0.501,0.166,0.474,5.265,30.244,5.042
1746584998.68,0.022,-0.035,-0.060,0.447,0.342,0.476,6.005,30.516,5.250
1746584998.70,-0.064,0.007,-0.041,0.489,0.373,0.346,6.710,30.933,5.302
1746584998.72,-0.046,0.049,-0.034,0.455,0.266,0.238,7.343,31.311,5.103
1746584998.74,0.107,-0.019,-0.131,0.453,0.134,0.214,7.909,31.530,4.960
1746584998.76,0.120,-0.029,-0.166,0.414,0.062,0.195,8.464,31.634,4.807
1746584998.78,-0.007,0.011,-0.117,0.337,0.038,0.131,8.934,31.700,4.740
1746584998.80,-0.018,0.039,-0.081,0.307,0.040,0.068,9.298,31.757,4.559
1746584998.82,0.068,0.059,-0.112,0.300,-0.030,0.002,9.621,31.796,4.309
1746584998.84,0.097,0.006,-0.117,0.254,-0.065,-0.001,9.889,31.771,4.047
1746584998.86,0.069,0.018,-0.138,0.175,-0.083,-0.011,10.095,31.704,3.716
1746584998.88,0.036,0.055,-0.116,0.089,-0.094,-0.056,10.201,31.620,3.521
1746584998.90,0.071,-0.015,-0.121,0.059,-0.150,-0.177,10.209,31.523,3.198
1746584998.92,0.112,-0.027,-0.112,-0.058,-0.247,-0.152,10.105,31.313,2.939
1746584998.94,0.056,-0.059,-0.185,-0.250,-0.187,-0.138,9.869,31.050,2.792
1746584998.96,0.021,-0.042,-0.233,-0.372,-0.150,-0.265,9.443,30.845,2.685
1746584998.98,0.049,-0.080,-0.210,-0.472,-0.151,-0.387,8.839,30.693,2.543
1746584999.00,0.126,-0.093,-0.172,-0.632,-0.160,-0.417,8.062,30.537,2.311
1746584999.02,0.171,-0.072,-0.198,-0.839,-0.136,-0.376,7.108,30.360,2.292
1746584999.04,0.092,-0.063,-0.261,-1.013,-0.110,-0.424,5.974,30.195,2.306
1746584999.06,0.136,-0.060,-0.143,-1.210,-0.063,-0.424,4.630,30.072,2.522
1746584999.08,0.098,-0.082,-0.152,-1.371,-0.016,-0.438,3.106,30.008,2.834
1746584999.10,0.182,-0.042,-0.183,-1.521,-0.090,-0.409,1.438,29.952,3.139
1746584999.12,0.136,-0.056,-0.153,-1.655,-0.184,-0.457,-0.380,29.792,3.511
1746584999.14,0.058,-0.027,-0.151,-1.724,-0.153,-0.488,-2.321,29.592,3.964
1746584999.16,0.017,-0.038,-0.173,-1.813,-0.098,-0.533,-4.367,29.483,4.444
1746584999.18,0.044,-0.031,-0.119,-1.867,-0.271,-0.566,-6.504,29.364,4.879
1746584999.20,0.022,-0.041,-0.087,-1.802,-0.435,-0.751,-8.705,29.000,5.253
1746584999.22,-0.015,-0.193,-0.154,-1.738,-0.460,-0.832,-10.893,28.515,5.409
1746584999.24,-0.075,-0.136,-0.129,-1.794,-0.321,-0.914,-13.154,28.053,5.492
1746584999.26,-0.039,-0.054,-0.015,-1.708,-0.263,-0.994,-15.436,27.761,5.475
1746584999.28,0.012,-0.096,-0.011,-1.600,-0.467,-1.017,-17.630,27.270,5.325
1746584999.30,0.023,-0.194,0.005,-1.704,-0.289,-1.031,-19.850,26.754,5.118
1746584999.32,0.041,-0.198,-0.043,-1.798,-0.156,-1.009,-22.151,26.472,4.959
1746584999.34,0.011,-0.084,0.060,-1.735,-0.176,-1.022,-24.491,26.239,4.814
1746584999.36,0.008,-0.034,0.020,-1.627,-0.256,-1.032,-26.728,25.888,4.574
1746584999.38,0.071,-0.045,-0.094,-1.619,-0.236,-0.998,-28.885,25.476,4.323
1746584999.40,0.059,-0.084,0.010,-1.654,-0.220,-1.059,-31.078,25.068,4.036
1746584999.42,-0.032,-0.155,0.061,-1.623,-0.222,-1.242,-33.333,24.570,3.551
1746584999.44,-0.091,-0.189,-0.016,-1.514,-0.233,-1.226,-35.547,23.899,2.859
1746584999.46,0.015,-0.151,-0.072,-1.596,-0.136,-1.090,-37.688,23.337,2.283
1746584999.48,0.091,-0.133,-0.044,-1.730,-0.150,-0.987,-39.911,22.882,1.878
1746584999.50,0.051,-0.178,0.056,-1.690,-0.086,-0.940,-42.147,22.538,1.621
1746584999.52,0.045,-0.202,0.003,-1.747,-0.037,-0.906,-44.337,22.224,1.382
1746584999.53,0.088,-0.221,0.124,-1.987,0.072,-0.821,-46.690,22.138,1.305
1746584999.55,0.106,-0.230,0.056,-2.029,0.087,-0.772,-49.166,22.285,1.456
1746584999.57,0.106,-0.167,0.068,-2.002,-0.059,-0.812,-51.650,22.363,1.594
1746584999.59,0.127,-0.103,-0.017,-1.944,-0.474,-0.812,-54.078,22.069,1.664
1746584999.61,0.188,-0.070,0.025,-1.957,-0.873,-0.710,-56.469,21.285,1.803
1746584999.63,0.158,-0.016,0.150,-1.980,-1.044,-0.650,-58.842,20.316,2.082
1746584999.65,0.056,0.031,0.103,-1.778,-1.159,-0.738,-61.150,19.037,2.179
1746584999.67,0.015,0.027,-0.070,-1.675,-1.175,-0.727,-63.261,17.284,1.826
1746584999.69,0.033,-0.073,0.098,-1.794,-1.200,-0.396,-65.348,15.784,1.769
1746584999.71,-0.009,-0.142,0.170,-1.796,-1.386,-0.055,-67.408,15.077,2.694
1746584999.73,-0.086,-0.127,-0.030,-1.664,-1.755,-0.052,-69.319,14.469,4.022
1746584999.75,-0.153,-0.143,-0.012,-1.609,-1.755,-0.199,-71.159,13.256,5.013
1746584999.77,-0.117,-0.188,0.104,-1.636,-1.258,-0.229,-73.013,11.963,5.599
1746584999.79,-0.086,-0.184,0.155,-1.738,-0.891,-0.164,-74.949,11.366,6.265
1746584999.81,-0.078,-0.075,0.081,-1.605,-0.987,-0.016,-76.875,11.370,7.353
1746584999.83,-0.062,0.015,0.039,-1.411,-1.021,0.180,-78.530,12.269,9.533
1746584999.85,-0.055,0.021,0.107,-1.390,-0.775,0.268,-80.013,14.578,12.936
1746584999.87,-0.094,-0.088,0.104,-1.413,-0.474,0.216,-81.479,18.274,17.412
1746584999.89,-0.083,-0.152,0.033,-1.196,-0.209,0.142,-82.824,23.229,22.790
1746584999.91,-0.079,-0.068,-0.069,-1.006,-0.335,0.143,-83.874,28.744,28.617
1746584999.93,-0.054,0.040,-0.008,-0.846,-0.469,0.232,-84.666,35.744,36.156
1746584999.95,-0.078,0.050,0.043,-0.733,-0.087,0.217,-85.178,44.086,44.876
1746584999.97,-0.145,0.002,-0.025,-0.724,0.304,0.188,-85.551,53.785,54.479
1746584999.99,-0.159,-0.041,0.020,-0.658,0.552,0.179,-85.785,64.850,65.074
1746585000.01,-0.122,-0.015,0.069,-0.450,0.684,0.171,-85.811,74.731,74.249
1746585000.03,-0.125,0.043,0.031,-0.318,0.398,0.066,-85.760,81.360,80.240
1746585000.05,-0.117,0.061,0.005,-0.314,0.049,-0.076,-85.806,86.365,85.024
1746585000.07,-0.064,-0.004,0.035,-0.327,-0.039,-0.118,-85.940,91.459,90.143
1746585000.09,0.030,-0.044,-0.050,-0.235,-0.125,-0.053,-86.017,96.233,95.009
1746585000.11,0.056,0.014,-0.138,-0.140,-0.170,-0.041,-86.036,99.018,97.995
1746585000.13,0.030,0.047,-0.075,-0.091,-0.039,-0.026,-86.058,100.926,100.029
1746585000.15,0.026,0.014,0.026,-0.015,-0.102,0.066,-86.029,101.639,100.803
1746585000.17,0.006,0.029,0.075,-0.032,-0.203,0.169,-85.898,101.289,100.640
1746585000.19,-0.068,-0.001,0.076,-0.061,-0.011,0.243,-85.645,101.292,100.799
1746585000.21,-0.163,-0.058,0.048,0.013,0.332,0.148,-85.402,101.366,100.675
1746585000.23,-0.208,-0.027,-0.019,0.176,0.354,-0.024,-85.358,100.240,99.128
1746585000.25,-0.128,0.089,0.005,0.168,0.290,-0.106,-85.473,98.190,96.699
1746585000.27,0.001,0.087,-0.046,0.207,0.200,-0.118,-85.632,96.162,94.377
1746585000.29,0.136,-0.015,-0.010,0.235,0.102,-0.060,-85.758,92.894,90.933
1746585000.31,0.172,-0.091,0.105,0.052,0.024,0.042,-85.772,90.454,88.418
1746585000.33,0.099,-0.074,0.125,-0.177,-0.150,0.089,-85.687,91.537,89.562
1746585000.35,-0.033,-0.031,0.047,-0.226,-0.307,0.046,-85.595,94.393,92.710
1746585000.37,-0.092,0.020,-0.001,-0.140,-0.143,0.008,-85.549,96.895,95.501
1746585000.39,-0.103,0.055,0.006,-0.019,0.054,-0.001,-85.527,97.954,96.605
1746585000.41,-0.099,0.029,0.034,0.030,0.096,-0.057,-85.566,97.924,96.475
1746585000.43,-0.045,-0.018,0.014,0.019,0.111,-0.052,-85.636,97.793,96.232
1746585000.45,0.037,-0.025,-0.002,0.046,0.118,-0.031,-85.693,97.606,95.903
1746585000.47,0.068,-0.012,0.010,0.040,0.034,0.006,-85.717,96.977,95.176
1746585000.49,0.044,0.005,-0.016,-0.020,-0.155,-0.015,-85.726,96.835,95.100
1746585000.51,0.010,-0.003,0.010,-0.054,-0.266,-0.042,-85.755,97.258,95.778
1746585000.53,-0.032,-0.019,0.056,-0.034,-0.305,-0.078,-85.812,97.799,96.649
1746585000.55,-0.058,-0.031,0.032,0.007,-0.392,-0.114,-85.918,97.809,97.056
1746585000.57,-0.059,-0.013,-0.037,0.024,-0.383,-0.120,-86.049,97.311,97.020
1746585000.59,-0.007,0.038,-0.008,0.102,-0.232,-0.080,-86.175,96.236,96.295
1746585000.61,0.036,0.029,0.059,0.199,-0.091,-0.007,-86.241,93.518,93.758
1746585000.63,0.009,-0.007,0.112,0.193,-0.076,0.067,-86.214,89.930,90.238
1746585000.65,-0.075,-0.009,0.062,0.147,-0.245,0.091,-86.107,87.028,87.507
1746585000.67,-0.167,0.005,-0.029,0.288,-0.241,0.008,-86.027,83.376,84.155
1746585000.69,-0.166,0.020,-0.007,0.439,0.113,-0.048,-85.987,77.240,78.104
1746585000.71,-0.092,0.028,0.075,0.489,0.467,-0.044,-85.886,70.072,70.563
1746585000.73,-0.042,0.027,0.086,0.491,0.482,-0.038,-85.705,63.382,63.274
1746585000.75,-0.009,0.000,0.038,0.499,0.292,-0.060,-85.473,57.101,56.533
1746585000.77,0.038,-0.038,0.048,0.534,0.223,-0.070,-85.189,50.988,50.118
1746585000.79,0.046,-0.054,0.083,0.577,0.201,-0.040,-84.811,45.308,44.172
1746585000.81,0.000,-0.047,0.061,0.695,0.210,0.012,-84.298,40.341,38.956
1746585000.83,-0.053,-0.011,-0.021,0.814,0.300,0.014,-83.590,35.674,33.974
1746585000.85,-0.109,0.007,0.026,0.752,0.452,-0.061,-82.852,31.722,29.566
1746585000.87,-0.136,0.010,0.086,0.787,0.650,-0.110,-82.166,28.414,25.604
1746585000.89,-0.115,0.014,0.052,1.052,0.988,-0.109,-81.282,25.303,21.524
1746585000.91,-0.100,0.025,0.040,1.087,1.174,-0.144,-80.196,22.664,17.560
1746585000.93,-0.083,0.026,-0.035,0.847,0.903,-0.164,-79.216,20.693,14.325
1746585000.95,-0.064,-0.020,0.012,0.716,0.875,-0.189,-78.480,19.205,11.830
1746585000.97,-0.014,-0.060,0.094,0.898,1.036,-0.206,-77.690,17.941,9.395
1746585000.99,0.040,-0.028,0.023,1.021,0.689,-0.161,-76.702,16.583,6.963
1746585001.01,0.141,0.002,-0.080,0.918,0.434,-0.050,-75.640,15.451,5.153
1746585001.03,0.137,0.008,-0.079,0.773,0.512,0.061,-74.732,15.022,4.214
1746585001.05,0.081,-0.063,0.079,0.854,0.858,0.174,-73.797,15.451,3.806
1746585001.07,0.008,-0.054,0.023,0.865,0.578,0.223,-72.797,16.159,3.671
1746585001.09,-0.049,-0.005,-0.034,0.925,0.491,0.151,-71.745,16.492,3.410
1746585001.11,-0.027,0.043,0.073,0.904,0.359,0.150,-70.692,16.617,2.935
1746585001.13,-0.053,0.021,-0.141,0.769,0.134,0.141,-69.729,16.499,2.646
1746585001.15,-0.100,-0.032,-0.008,0.724,0.483,0.124,-68.872,16.611,2.348
1746585001.17,-0.026,-0.040,-0.009,0.662,0.691,0.190,-68.068,17.124,2.237
1746585001.19,0.055,-0.026,0.045,0.985,0.610,0.262,-67.124,17.869,2.216
1746585001.21,0.082,-0.017,-0.054,1.113,0.456,0.298,-65.820,18.288,1.999
1746585001.23,0.090,-0.040,-0.125,0.650,-0.090,0.328,-64.759,18.462,2.125
1746585001.25,0.085,-0.094,0.052,0.526,0.620,0.443,-63.999,19.201,2.561
1746585001.27,0.105,-0.107,0.019,0.512,0.158,0.608,-63.253,20.478,3.438
1746585001.29,0.099,-0.015,0.014,0.867,0.137,0.455,-62.323,21.190,4.139
1746585001.31,0.045,0.015,0.054,1.106,-0.005,0.278,-61.089,21.305,4.057
1746585001.33,-0.095,-0.015,-0.227,0.899,-0.189,0.328,-59.896,20.833,3.929
1746585001.35,-0.072,-0.039,-0.052,0.634,0.289,0.426,-58.929,21.124,4.154
1746585001.37,0.029,-0.073,0.043,0.613,0.189,0.550,-58.085,21.853,4.741
1746585001.39,0.035,-0.039,0.085,0.845,0.249,0.558,-57.076,22.519,5.312
1746585001.41,0.004,0.026,0.036,0.916,0.142,0.466,-55.902,23.033,5.593
1746585001.43,-0.078,0.045,-0.040,0.738,-0.193,0.414,-54.831,23.044,5.706
1746585001.45,-0.036,-0.002,-0.081,0.615,0.002,0.541,-53.905,23.180,6.039
1746585001.47,0.062,-0.003,0.034,0.397,0.218,0.586,-53.132,23.859,6.696
1746585001.49,-0.028,0.016,0.050,0.583,0.274,0.420,-52.396,24.524,7.205
1746585001.51,-0.117,0.015,0.118,0.930,0.447,0.349,-51.452,25.017,7.254
1746585001.53,-0.112,-0.010,-0.022,0.977,0.182,0.446,-50.231,25.292,7.143
1746585001.55,-0.060,0.041,-0.117,0.659,0.397,0.510,-49.140,25.656,7.266
1746585001.57,0.070,0.001,0.028,0.533,0.333,0.613,-48.273,26.479,7.727
1746585001.59,0.026,-0.027,0.025,0.714,0.013,0.536,-47.351,26.965,8.147
1746585001.61,0.014,0.004,0.058,0.963,0.003,0.393,-46.268,27.010,8.209
1746585001.63,-0.036,-0.007,-0.021,1.142,-0.123,0.422,-44.955,26.761,7.962
1746585001.65,-0.027,0.010,-0.103,0.823,0.140,0.534,-43.687,26.712,7.939
1746585001.67,0.004,0.035,0.031,0.757,0.049,0.468,-42.657,27.014,8.118
1746585001.69,-0.041,0.016,0.019,0.868,0.080,0.390,-41.603,27.085,8.128
1746585001.71,-0.033,-0.030,0.102,1.043,0.041,0.379,-40.460,27.091,7.993
1746585001.73,-0.061,-0.057,-0.033,1.235,-0.204,0.435,-39.049,26.780,7.755
1746585001.75,-0.034,0.003,-0.053,0.974,0.274,0.381,-37.690,26.697,7.550
1746585001.77,-0.034,-0.021,0.030,0.859,0.216,0.360,-36.593,26.945,7.439
1746585001.79,0.007,-0.005,0.101,0.911,0.164,0.385,-35.508,27.113,7.331
1746585001.81,0.044,-0.006,0.113,0.982,0.072,0.450,-34.320,27.211,7.243
1746585001.83,0.047,0.017,0.039,1.067,0.002,0.413,-33.045,27.136,7.123
1746585001.85,-0.037,0.022,-0.024,0.818,0.315,0.420,-31.857,27.240,7.022
1746585001.87,-0.055,0.009,-0.021,0.648,0.455,0.509,-30.901,27.781,7.143
1746585001.89,-0.011,0.010,-0.020,0.800,0.315,0.513,-29.903,28.324,7.310
1746585001.91,0.037,0.017,0.040,0.920,0.007,0.459,-28.757,28.528,7.328
1746585001.93,-0.000,-0.002,0.088,0.936,-0.164,0.420,-27.593,28.352,7.252
1746585001.95,-0.086,-0.023,-0.057,0.770,0.224,0.469,-26.481,28.330,7.181
1746585001.97,-0.068,0.037,-0.098,0.637,0.434,0.501,-25.537,28.817,7.325
1746585001.99,-0.036,0.042,0.029,0.819,0.105,0.438,-24.557,29.139,7.388
1746585002.01,0.000,-0.073,0.111,0.920,-0.088,0.456,-23.428,29.138,7.336
1746585002.03,0.020,-0.132,-0.033,0.878,-0.073,0.390,-22.283,28.969,7.259
1746585002.05,-0.026,-0.044,-0.054,0.892,0.074,0.346,-21.193,28.941,7.075
1746585002.07,-0.054,-0.042,0.054,0.914,0.143,0.262,-20.138,29.033,6.833
1746585002.09,0.115,-0.035,0.041,0.986,-0.043,0.262,-19.036,28.989,6.473
1746585002.11,0.055,0.032,0.089,1.067,-0.164,0.352,-17.845,28.768,6.152
1746585002.13,-0.111,-0.014,0.031,1.033,-0.023,0.386,-16.572,28.559,5.888
1746585002.15,-0.052,-0.072,-0.044,0.968,0.059,0.439,-15.340,28.521,5.665
1746585002.17,0.018,-0.004,-0.080,0.935,0.233,0.442,-14.166,28.711,5.591
1746585002.19,0.070,-0.050,-0.043,0.911,0.196,0.549,-12.974,28.941,5.562
1746585002.21,-0.031,0.059,0.114,0.925,0.238,0.678,-11.702,29.163,5.665
1746585002.23,-0.088,0.009,-0.002,0.840,0.326,0.679,-10.439,29.592,5.877
1746585002.25,-0.034,0.009,-0.100,0.810,0.214,0.586,-9.264,29.911,6.024
1746585002.27,0.121,-0.005,-0.106,0.759,0.225,0.581,-8.151,30.195,6.074
1746585002.29,0.058,0.063,-0.073,0.773,0.234,0.636,-7.046,30.492,6.249
1746585002.31,-0.088,0.073,0.018,0.801,0.370,0.632,-5.903,30.844,6.414
1746585002.32,-0.163,0.021,-0.012,0.820,0.512,0.547,-4.764,31.387,6.459
1746585002.34,-0.066,0.002,-0.116,0.783,0.345,0.430,-3.696,31.884,6.367
1746585002.36,0.117,0.018,-0.201,0.830,0.070,0.378,-2.672,32.121,6.188
1746585002.38,0.117,0.046,-0.094,0.795,-0.099,0.440,-1.636,32.096,6.085
1746585002.40,-0.041,-0.039,0.002,0.760,0.048,0.427,-0.613,32.033,6.048
1746585002.43,-0.129,-0.061,0.033,0.712,0.278,0.354,0.334,32.194,5.899
1746585002.44,-0.055,-0.039,-0.026,0.685,0.346,0.298,1.214,32.598,5.615
1746585002.46,0.032,0.011,-0.088,0.592,0.181,0.225,1.994,32.908,5.296
1746585002.48,0.225,-0.047,-0.145,0.549,0.085,0.364,2.704,33.047,5.231
1746585002.50,0.078,0.008,-0.092,0.548,0.103,0.426,3.484,33.130,5.113
1746585002.52,-0.095,0.035,0.013,0.519,0.294,0.430,4.266,33.353,5.119
1746585002.54,-0.149,0.073,0.008,0.505,0.425,0.326,4.990,33.775,5.076
1746585002.56,0.056,0.030,-0.109,0.540,0.277,0.262,5.670,34.207,4.847
1746585002.58,0.145,0.020,-0.130,0.524,-0.004,0.258,6.348,34.383,4.742
1746585002.60,0.074,-0.037,-0.097,0.474,-0.100,0.259,6.988,34.301,4.509
1746585002.62,0.067,-0.006,-0.084,0.410,-0.048,0.272,7.579,34.201,4.326
1746585002.64,-0.065,0.041,-0.032,0.362,0.015,0.195,8.092,34.202,4.220
1746585002.66,0.061,-0.017,-0.102,0.305,0.089,0.150,8.509,34.259,3.994
1746585002.68,0.172,-0.024,-0.112,0.255,-0.108,0.102,8.857,34.220,3.831
1746585002.70,0.149,-0.042,-0.090,0.210,-0.140,0.108,9.138,34.083,3.641
1746585002.72,-0.012,0.016,-0.071,0.134,-0.046,0.043,9.354,33.965,3.470
1746585002.74,-0.010,0.027,-0.079,0.065,-0.038,-0.034,9.450,33.942,3.333
1746585002.76,0.080,-0.020,-0.155,-0.087,-0.034,-0.076,9.411,33.900,3.135
1746585002.78,0.183,-0.010,-0.280,-0.153,-0.291,-0.193,9.211,33.675,2.932
1746585002.80,0.115,-0.011,-0.237,-0.278,-0.309,-0.275,8.856,33.342,2.724
1746585002.82,0.062,-0.048,-0.218,-0.446,-0.241,-0.382,8.311,33.035,2.517
1746585002.84,0.089,-0.070,-0.178,-0.683,-0.140,-0.389,7.524,32.829,2.445
1746585002.86,0.145,-0.063,-0.289,-0.879,-0.142,-0.398,6.529,32.662,2.494
1746585002.88,0.232,-0.072,-0.258,-1.090,-0.218,-0.421,5.335,32.434,2.676
1746585002.90,0.132,-0.144,-0.179,-1.372,-0.209,-0.454,3.877,32.154,2.909
1746585002.92,0.174,-0.102,-0.206,-1.583,-0.157,-0.402,2.181,31.934,3.297
1746585002.94,0.262,-0.097,-0.194,-1.747,-0.232,-0.353,0.339,31.698,3.876
1746585002.96,0.200,-0.034,-0.080,-1.813,-0.206,-0.410,-1.620,31.430,4.498
1746585002.98,0.054,-0.100,-0.042,-1.888,-0.009,-0.396,-3.659,31.348,5.146
1746585003.00,0.015,-0.061,-0.148,-1.973,-0.002,-0.452,-5.801,31.418,5.869
1746585003.02,0.063,0.010,-0.151,-1.947,-0.152,-0.588,-8.022,31.430,6.502
1746585003.04,-0.022,0.010,-0.038,-1.749,-0.416,-0.814,-10.253,31.160,6.895
1746585003.06,-0.088,-0.071,-0.048,-1.679,-0.369,-0.901,-12.426,30.718,7.004
1746585003.08,-0.119,-0.078,-0.036,-1.690,-0.279,-0.898,-14.603,30.389,7.081
1746585003.10,-0.035,-0.035,-0.089,-1.652,-0.238,-0.929,-16.776,30.110,7.153
1746585003.12,-0.037,-0.032,-0.023,-1.565,-0.382,-1.045,-18.932,29.753,7.091
1746585003.14,-0.020,-0.122,-0.004,-1.542,-0.356,-1.028,-21.060,29.243,6.923
1746585003.16,0.004,-0.171,0.053,-1.507,-0.234,-0.990,-23.148,28.848,6.778
1746585003.18,-0.022,-0.192,0.005,-1.334,-0.297,-0.999,-25.119,28.466,6.554
1746585003.20,-0.047,-0.220,-0.104,-1.353,-0.407,-1.098,-27.008,27.875,6.224
1746585003.22,0.010,-0.229,-0.079,-1.530,-0.125,-1.079,-29.053,27.381,5.821
1746585003.24,0.087,-0.242,0.017,-1.542,-0.145,-0.957,-31.142,27.123,5.623
1746585003.26,0.106,-0.186,0.035,-1.677,-0.256,-1.021,-33.279,26.785,5.430
1746585003.28,0.075,-0.116,0.006,-1.811,-0.195,-1.071,-35.608,26.390,5.231
1746585003.30,0.001,-0.100,0.038,-1.757,-0.288,-0.944,-37.957,26.035,5.147
1746585003.32,-0.005,-0.087,0.032,-1.747,-0.281,-0.872,-40.200,25.643,5.069
1746585003.34,0.014,-0.102,0.101,-1.597,-0.354,-0.805,-42.352,25.277,5.127
1746585003.36,0.028,-0.077,-0.011,-1.536,-0.368,-0.789,-44.337,24.754,5.018
1746585003.38,0.068,-0.040,0.047,-1.648,-0.262,-0.744,-46.354,24.379,5.000
1746585003.40,0.030,-0.038,0.068,-1.583,-0.320,-0.761,-48.411,24.029,5.028
1746585003.42,0.016,-0.058,-0.008,-1.493,-0.461,-0.745,-50.349,23.474,4.959
1746585003.44,0.037,-0.074,-0.009,-1.508,-0.642,-0.744,-52.256,22.721,4.844
1746585003.46,0.062,-0.096,0.076,-1.501,-0.834,-0.843,-54.195,21.639,4.614
1746585003.48,0.029,-0.080,0.052,-1.455,-1.072,-0.941,-56.140,20.044,3.986
1746585003.50,-0.011,-0.043,-0.050,-1.376,-0.988,-0.888,-58.011,18.071,3.234
1746585003.52,-0.011,-0.041,0.042,-1.461,-0.688,-0.673,-59.805,16.486,2.559
1746585003.54,-0.011,-0.063,0.149,-1.633,-0.557,-0.446,-61.686,15.577,2.431
1746585003.56,0.001,-0.104,0.112,-1.562,-0.473,-0.302,-63.580,15.165,2.750
1746585003.58,0.043,-0.088,-0.087,-1.470,-0.645,-0.225,-65.307,14.870,3.155
1746585003.60,0.078,-0.078,0.017,-1.611,-0.861,-0.059,-67.038,14.639,3.974
1746585003.62,0.056,-0.060,0.106,-1.740,-1.017,-0.016,-68.923,14.728,5.294
1746585003.64,-0.014,-0.055,0.041,-1.529,-1.105,-0.178,-70.775,14.555,6.404
1746585003.66,-0.026,-0.083,-0.019,-1.225,-1.193,-0.332,-72.360,13.496,6.808
1746585003.68,0.004,-0.143,0.016,-1.181,-1.089,-0.415,-73.782,11.769,6.393
1746585003.70,-0.011,-0.163,0.032,-1.168,-0.837,-0.357,-75.186,9.926,5.622
1746585003.72,-0.061,-0.144,0.064,-1.112,-0.713,-0.079,-76.516,8.910,5.457
1746585003.74,-0.111,-0.090,0.040,-1.212,-0.719,0.235,-77.790,9.414,6.826
1746585003.76,-0.091,-0.027,0.133,-1.450,-0.430,0.397,-79.211,11.924,10.084
1746585003.78,-0.080,0.055,0.149,-1.520,-0.004,0.314,-80.785,16.423,14.906
1746585003.80,-0.066,0.071,0.168,-1.257,0.160,0.089,-82.229,21.523,19.932
1746585003.82,-0.071,0.048,0.090,-1.012,0.128,-0.101,-83.413,25.663,23.926
1746585003.84,-0.111,-0.021,-0.017,-0.938,0.057,-0.109,-84.444,29.327,27.518
1746585003.86,-0.117,-0.098,-0.021,-1.030,0.110,0.022,-85.425,35.886,34.010
1746585003.88,-0.144,-0.101,-0.090,-0.928,0.221,0.059,-86.240,46.784,44.758
1746585003.90,-0.127,-0.072,-0.127,-0.882,0.361,0.094,-86.775,61.745,59.399
1746585003.92,-0.044,-0.027,-0.112,-0.783,0.344,0.084,-86.994,79.528,76.797
1746585003.94,0.031,0.026,-0.101,-0.489,0.169,0.034,-86.965,94.166,91.139
1746585003.96,0.082,0.078,-0.059,-0.075,-0.124,0.015,-86.906,99.975,96.942
1746585003.98,0.104,0.083,-0.008,0.026,-0.199,0.132,-86.840,99.300,96.472
1746585004.00,0.009,0.007,-0.063,-0.050,-0.296,0.230,-86.618,98.921,96.361
1746585004.02,-0.057,-0.011,-0.091,0.100,-0.337,0.207,-86.366,97.683,95.519
1746585004.04,-0.042,0.018,0.091,0.228,0.020,0.184,-86.169,94.077,92.103
1746585004.06,-0.037,0.040,0.241,0.131,0.225,0.185,-85.967,90.848,88.689
1746585004.08,-0.089,-0.006,0.226,-0.090,0.040,0.117,-85.788,90.701,88.353
1746585004.10,-0.159,-0.077,0.109,-0.252,-0.415,0.011,-85.708,93.203,91.084
1746585004.12,-0.191,0.008,0.002,-0.256,-0.375,-0.053,-85.712,96.795,95.200
1746585004.14,-0.129,0.083,0.026,-0.094,0.062,-0.055,-85.744,99.509,98.102
1746585004.16,-0.051,0.020,0.053,-0.003,0.230,-0.059,-85.802,100.292,98.687
1746585004.18,0.014,-0.034,0.029,-0.099,0.203,-0.036,-85.851,101.413,99.554
1746585004.20,0.046,-0.035,0.032,-0.142,0.093,0.022,-85.824,103.567,101.545
1746585004.22,0.013,-0.012,0.030,-0.140,0.030,0.046,-85.743,105.603,103.517
1746585004.24,-0.016,-0.003,-0.028,-0.164,0.033,0.052,-85.641,107.629,105.522
1746585004.26,-0.028,0.031,-0.064,-0.174,0.094,0.045,-85.520,109.875,107.702
1746585004.28,-0.056,0.054,-0.087,-0.020,0.054,-0.041,-85.466,111.516,109.240
1746585004.30,-0.058,0.007,-0.061,0.159,0.080,-0.052,-85.557,110.786,108.458
1746585004.32,-0.012,-0.016,-0.005,0.182,0.225,0.017,-85.636,108.571,106.049
1746585004.34,-0.009,0.015,-0.011,0.247,0.088,-0.009,-85.706,105.605,102.877
1746585004.36,-0.034,0.015,0.006,0.257,-0.040,-0.031,-85.812,101.669,98.912
1746585004.38,-0.030,0.006,0.023,0.254,-0.128,-0.047,-85.917,97.704,95.037
1746585004.40,0.003,-0.018,0.028,0.290,-0.178,-0.046,-86.011,93.098,90.592
1746585004.42,0.012,-0.039,0.085,0.202,-0.177,-0.030,-86.061,88.807,86.499
1746585004.44,0.003,-0.038,0.084,0.132,-0.245,-0.002,-86.073,85.907,83.821
1746585004.46,-0.009,-0.011,0.024,0.152,-0.380,0.003,-86.060,83.348,81.614
1746585004.48,-0.023,0.017,0.031,0.170,-0.426,-0.025,-86.043,80.211,78.938
1746585004.50,-0.036,0.009,0.056,0.211,-0.380,-0.062,-86.050,76.615,75.804
1746585004.52,-0.045,-0.027,0.062,0.323,-0.312,-0.050,-86.031,71.718,71.290
1746585004.54,-0.063,-0.030,0.064,0.442,-0.197,-0.033,-85.916,65.421,65.274
1746585004.56,-0.093,0.008,0.011,0.560,-0.130,-0.012,-85.664,58.130,58.141
1746585004.58,-0.127,0.044,-0.025,0.594,-0.032,-0.025,-85.298,51.038,51.135
1746585004.60,-0.102,0.011,0.059,0.572,0.216,-0.040,-84.879,45.022,44.995
1746585004.62,-0.074,-0.034,0.152,0.605,0.431,-0.055,-84.432,40.172,39.745
1746585004.64,-0.080,-0.042,0.126,0.818,0.540,-0.036,-83.832,35.541,34.515
1746585004.66,-0.110,0.007,-0.031,0.906,0.416,-0.048,-83.004,30.985,29.371
1746585004.68,-0.144,0.028,-0.016,0.760,0.550,-0.112,-82.214,27.312,25.154
1746585004.70,-0.117,0.012,0.081,0.757,0.985,-0.155,-81.519,24.602,21.532
1746585004.72,-0.060,-0.006,0.090,0.849,1.204,-0.110,-80.737,22.606,18.212
1746585004.74,-0.028,-0.000,0.049,0.771,1.067,-0.091,-79.911,21.279,15.529
1746585004.76,-0.008,-0.017,0.053,0.912,1.033,-0.072,-79.077,20.192,13.247
1746585004.78,0.020,-0.026,-0.001,1.053,1.244,-0.099,-78.031,19.168,10.872
1746585004.80,0.022,-0.028,0.070,1.070,0.990,-0.126,-76.925,18.180,8.547
1746585004.82,0.056,0.011,-0.014,0.911,0.703,-0.052,-75.858,17.226,6.613
1746585004.84,0.048,0.043,-0.018,0.862,0.745,-0.065,-74.928,16.702,5.263
1746585004.86,0.057,0.018,0.093,0.819,1.019,-0.131,-74.039,16.376,3.821
1746585004.88,0.090,-0.024,0.087,0.913,0.575,-0.033,-73.154,16.040,2.500
1746585004.90,0.123,-0.010,-0.098,1.156,0.458,0.115,-71.986,15.691,1.584
1746585004.92,0.042,0.013,-0.058,1.020,0.569,0.127,-70.718,15.722,1.000
1746585004.94,-0.064,-0.036,-0.102,0.817,0.326,0.133,-69.690,15.767,0.572
1746585004.96,0.023,-0.112,0.085,0.922,0.846,0.250,-68.697,16.256,0.437
1746585004.98,0.120,-0.146,0.108,1.087,0.918,0.469,-67.499,17.475,0.582
1746585005.00,0.151,-0.097,-0.113,1.171,0.182,0.591,-66.032,18.561,1.099
1746585005.02,0.033,0.007,-0.205,0.681,0.032,0.442,-64.822,19.013,1.672
1746585005.04,-0.024,-0.044,0.058,0.469,0.308,0.538,-64.074,19.855,2.329
1746585005.06,0.019,-0.127,0.000,0.564,0.084,0.696,-63.285,21.134,3.491
1746585005.08,0.002,-0.007,-0.086,0.975,-0.402,0.472,-62.235,21.573,4.244
1746585005.10,-0.059,0.127,0.035,1.337,-0.465,0.043,-60.859,20.686,3.747
1746585005.12,-0.235,0.078,-0.186,1.151,-0.227,0.067,-59.470,19.301,2.801
1746585005.14,-0.179,-0.074,0.049,0.817,0.417,0.519,-58.320,19.385,2.668
1746585005.16,-0.068,-0.132,0.029,0.719,0.427,0.722,-57.267,20.539,3.496
1746585005.17,0.064,-0.063,0.018,0.911,0.358,0.640,-56.132,21.618,4.246
1746585005.20,0.090,-0.025,0.022,1.126,0.109,0.456,-54.787,22.083,4.482
1746585005.21,0.051,0.006,-0.052,0.907,0.102,0.427,-53.506,22.135,4.509
1746585005.23,0.103,-0.009,0.061,0.571,0.334,0.583,-52.528,22.740,4.877
1746585005.25,0.038,-0.008,0.074,0.665,0.154,0.593,-51.645,23.452,5.510
1746585005.27,-0.032,0.031,0.082,1.034,0.368,0.507,-50.505,24.005,5.811
1746585005.29,-0.058,0.049,-0.004,0.972,0.204,0.499,-49.191,24.353,5.845
1746585005.31,0.026,0.060,0.025,0.755,0.210,0.587,-48.065,24.796,6.086
1746585005.33,0.088,0.053,-0.002,0.726,0.004,0.631,-46.991,25.204,6.496
1746585005.35,0.037,0.053,0.041,0.757,0.004,0.545,-45.956,25.485,6.889
1746585005.37,-0.015,0.062,0.013,0.982,-0.043,0.414,-44.822,25.538,6.966
1746585005.39,-0.038,0.042,0.054,1.013,-0.160,0.505,-43.560,25.368,6.906
1746585005.41,-0.022,-0.002,0.030,0.977,-0.117,0.538,-42.273,25.203,6.999
1746585005.43,0.019,-0.048,0.062,0.911,0.034,0.425,-41.062,25.244,7.073
1746585005.45,-0.031,-0.035,0.021,0.917,0.216,0.293,-39.963,25.319,6.969
1746585005.47,-0.091,-0.016,0.008,0.873,0.175,0.327,-38.872,25.445,6.786
1746585005.49,-0.056,0.034,0.056,0.781,0.281,0.401,-37.861,25.681,6.777
1746585005.51,0.001,0.011,0.088,0.985,0.200,0.362,-36.778,25.949,6.725
1746585005.53,0.033,-0.062,0.021,1.072,-0.027,0.369,-35.508,25.948,6.546
1746585005.55,0.112,-0.004,-0.041,0.958,0.052,0.319,-34.293,25.826,6.348
1746585005.57,0.052,0.020,0.004,0.749,0.182,0.399,-33.243,25.924,6.271
1746585005.59,-0.038,0.004,0.072,0.764,0.253,0.512,-32.250,26.228,6.373
1746585005.61,-0.062,-0.052,0.074,0.753,0.238,0.616,-31.174,26.627,6.601
1746585005.63,-0.029,-0.043,0.047,0.723,0.096,0.544,-30.135,26.941,6.861
1746585005.65,0.032,-0.003,-0.079,0.785,0.102,0.506,-29.101,27.118,7.026
1746585005.67,-0.032,0.021,-0.104,0.785,0.328,0.473,-28.046,27.396,7.102
1746585005.69,-0.060,0.061,0.028,0.767,0.100,0.502,-26.988,27.716,7.194
1746585005.71,-0.033,0.072,0.105,0.757,-0.004,0.445,-25.970,27.822,7.277
1746585005.73,-0.034,-0.041,0.035,0.817,-0.212,0.371,-24.950,27.674,7.255
1746585005.75,0.041,-0.045,-0.066,0.818,-0.162,0.254,-23.978,27.406,7.114
1746585005.77,-0.025,0.026,-0.058,0.891,-0.177,0.278,-22.966,27.113,6.879
1746585005.79,-0.118,-0.014,0.006,0.773,0.036,0.411,-21.939,26.987,6.753
1746585005.81,-0.118,-0.046,0.038,0.729,0.155,0.432,-20.949,27.157,6.848
1746585005.83,-0.036,-0.105,-0.051,0.863,0.063,0.281,-19.959,27.259,6.728
1746585005.85,0.097,-0.088,-0.082,0.953,-0.086,0.262,-18.887,27.164,6.496
1746585005.87,0.105,0.025,-0.096,1.000,-0.182,0.322,-17.749,26.921,6.278
1746585005.89,-0.086,-0.013,0.026,1.012,-0.092,0.395,-16.527,26.679,6.077
1746585005.91,-0.176,0.011,0.087,0.926,0.194,0.395,-15.344,26.732,5.979
1746585005.93,-0.031,-0.013,-0.024,0.897,0.212,0.380,-14.226,26.961,5.891
1746585005.95,0.053,0.013,-0.053,0.942,0.054,0.253,-13.123,27.061,5.735
1746585005.97,0.134,-0.051,-0.116,0.933,-0.049,0.246,-12.035,27.004,5.458
1746585005.99,0.129,0.046,-0.016,0.959,-0.121,0.438,-10.895,26.834,5.224
1746585006.01,-0.083,0.078,0.080,0.874,0.133,0.639,-9.666,26.844,5.309
1746585006.03,-0.265,0.057,0.166,0.725,0.430,0.576,-8.538,27.197,5.461
1746585006.05,-0.058,0.027,-0.036,0.778,0.385,0.437,-7.539,27.699,5.519
1746585006.07,0.092,-0.061,-0.150,0.896,0.088,0.340,-6.496,27.982,5.421
1746585006.09,0.104,-0.047,-0.125,1.002,-0.099,0.405,-5.352,27.898,5.150
1746585006.11,-0.065,-0.036,0.053,0.965,0.090,0.397,-4.139,27.869,4.957
1746585006.13,-0.241,0.015,0.011,0.950,0.323,0.210,-2.986,28.113,4.704
1746585006.15,-0.065,0.029,-0.098,0.902,0.406,0.199,-1.930,28.531,4.320
1746585006.17,0.099,-0.002,-0.207,0.885,0.220,0.167,-0.940,28.873,3.832
1746585006.19,0.176,-0.014,-0.120,0.890,0.106,0.200,0.042,29.059,3.434
1746585006.21,0.075,-0.005,-0.028,0.838,0.128,0.245,1.025,29.173,3.170
1746585006.23,-0.072,-0.005,0.077,0.761,0.247,0.291,1.990,29.397,2.948
1746585006.25,0.014,-0.026,-0.060,0.618,0.280,0.288,2.836,29.707,2.788
1746585006.27,0.143,-0.037,-0.140,0.500,0.226,0.315,3.561,29.996,2.712
1746585006.29,0.150,-0.014,-0.148,0.456,0.162,0.335,4.215,30.216,2.665
1746585006.31,0.035,0.001,-0.072,0.413,0.143,0.319,4.833,30.386,2.621
1746585006.33,0.007,0.006,-0.018,0.342,0.187,0.347,5.398,30.550,2.622
1746585006.35,0.046,-0.010,-0.076,0.264,0.204,0.351,5.899,30.741,2.691
1746585006.37,0.062,0.001,-0.135,0.263,0.225,0.315,6.346,30.966,2.871
1746585006.39,0.040,0.025,-0.111,0.262,0.103,0.209,6.760,31.148,2.862
1746585006.41,0.077,0.050,-0.070,0.293,0.036,0.179,7.145,31.225,2.826
1746585006.43,0.020,0.027,0.002,0.217,0.038,0.196,7.503,31.228,2.808
1746585006.45,-0.024,-0.012,0.010,0.147,0.095,0.180,7.787,31.305,2.792
1746585006.47,-0.049,0.085,-0.074,0.178,0.086,0.114,8.035,31.403,2.837
1746585006.49,0.008,0.048,-0.060,0.213,0.014,0.067,8.267,31.466,2.690
1746585006.51,0.026,0.038,-0.031,0.251,-0.014,0.038,8.530,31.476,2.611
1746585006.53,-0.015,-0.005,-0.063,0.253,-0.005,-0.021,8.771,31.486,2.407
1746585006.55,-0.041,0.007,-0.098,0.252,-0.002,-0.095,8.985,31.518,2.139
1746585006.57,0.045,-0.045,-0.103,0.199,-0.016,-0.160,9.136,31.539,1.821
1746585006.59,0.072,-0.047,-0.156,0.067,-0.185,-0.222,9.157,31.469,1.453
1746585006.61,0.125,-0.064,-0.164,-0.054,-0.232,-0.278,9.020,31.266,1.106
1746585006.63,0.150,-0.123,-0.219,-0.204,-0.242,-0.340,8.710,31.036,0.874
1746585006.65,0.143,-0.117,-0.214,-0.449,-0.181,-0.339,8.198,30.818,0.654
1746585006.67,0.121,-0.094,-0.262,-0.635,-0.154,-0.408,7.443,30.633,0.562
1746585006.69,0.169,-0.076,-0.231,-0.878,-0.135,-0.418,6.460,30.466,0.549
1746585006.71,0.187,-0.069,-0.322,-1.145,-0.148,-0.412,5.233,30.280,0.699
1746585006.73,0.101,-0.070,-0.237,-1.393,-0.064,-0.446,3.721,30.140,0.992
1746585006.75,0.112,-0.056,-0.237,-1.565,-0.016,-0.486,1.994,30.093,1.341
1746585006.77,0.091,-0.012,-0.149,-1.663,-0.017,-0.585,0.097,30.054,1.708
1746585006.79,0.070,-0.076,-0.134,-1.774,0.036,-0.628,-1.950,30.074,2.045
1746585006.81,0.020,-0.005,-0.265,-1.890,0.080,-0.640,-4.125,30.169,2.430
1746585006.83,0.067,0.021,-0.262,-1.968,-0.116,-0.643,-6.402,30.172,2.949
1746585006.85,0.078,-0.034,-0.041,-1.854,-0.263,-0.756,-8.708,30.018,3.371
1746585006.87,-0.045,-0.168,-0.026,-1.805,-0.305,-0.876,-10.977,29.693,3.598
1746585006.89,0.032,-0.189,-0.076,-1.924,-0.193,-0.822,-13.305,29.480,3.816
1746585006.91,0.057,-0.073,-0.043,-1.902,-0.321,-0.853,-15.689,29.247,4.120
1746585006.93,0.011,-0.115,0.032,-1.723,-0.538,-0.999,-18.021,28.796,4.215
1746585006.95,0.051,-0.228,-0.062,-1.609,-0.636,-1.029,-20.226,28.034,4.089
1746585006.97,0.061,-0.256,-0.016,-1.697,-0.382,-0.986,-22.439,27.391,3.951
1746585006.99,0.036,-0.192,0.047,-1.730,-0.457,-0.970,-24.678,26.911,3.864
1746585007.01,-0.063,-0.111,0.094,-1.685,-0.410,-1.068,-26.948,26.295,3.670
1746585007.03,-0.051,-0.121,-0.015,-1.762,-0.131,-0.989,-29.217,25.863,3.425
1746585007.05,0.034,-0.092,0.092,-1.931,-0.022,-0.781,-31.577,25.820,3.449
1746585007.07,0.070,-0.064,0.054,-1.763,-0.131,-0.744,-33.855,25.839,3.641
1746585007.09,0.056,-0.024,0.023,-1.770,-0.197,-0.898,-36.063,25.678,3.677
1746585007.11,0.060,-0.069,-0.048,-1.880,-0.335,-0.973,-38.405,25.295,3.580
1746585007.13,0.033,-0.140,0.014,-1.905,-0.040,-0.965,-40.844,24.976,3.472
1746585007.15,-0.016,-0.167,0.064,-1.814,0.010,-0.945,-43.237,24.936,3.479
1746585007.17,-0.035,-0.108,-0.020,-1.734,-0.056,-0.941,-45.519,24.746,3.286
1746585007.19,0.044,-0.068,0.032,-1.972,0.110,-0.823,-47.835,24.734,3.217
1746585007.21,0.065,-0.072,0.186,-2.104,0.044,-0.727,-50.351,25.065,3.607
1746585007.23,0.082,-0.082,0.063,-1.976,-0.067,-0.680,-52.806,25.391,4.050
1746585007.25,0.119,-0.092,-0.012,-1.867,-0.124,-0.699,-55.111,25.601,4.502
1746585007.27,0.131,-0.119,0.023,-1.904,-0.369,-0.747,-57.399,25.624,4.929
1746585007.29,0.103,-0.117,0.041,-1.813,-0.875,-0.848,-59.736,25.090,5.136
1746585007.31,0.034,-0.066,-0.042,-1.685,-1.224,-0.941,-61.949,23.661,5.029
1746585007.33,-0.014,-0.033,0.002,-1.959,-1.417,-0.932,-64.258,21.717,4.568
1746585007.35,-0.034,-0.084,0.180,-2.083,-1.302,-0.683,-66.796,20.029,4.495
1746585007.37,-0.030,-0.114,0.040,-1.895,-1.315,-0.270,-69.109,19.190,5.235
1746585007.39,-0.032,-0.128,0.044,-2.051,-1.799,0.080,-71.246,19.220,7.137
1746585007.41,-0.045,-0.125,0.079,-2.038,-1.913,0.152,-73.439,20.026,10.349
1746585007.43,-0.070,-0.100,0.079,-1.902,-1.617,0.039,-75.474,21.166,13.641
1746585007.45,-0.070,-0.118,0.197,-1.907,-0.959,-0.110,-77.516,22.954,17.022
1746585007.47,-0.125,-0.110,0.130,-1.885,-0.640,-0.239,-79.581,25.594,20.565
1746585007.49,-0.172,-0.084,-0.034,-1.646,-0.876,-0.248,-81.530,28.627,24.526
1746585007.51,-0.119,-0.139,-0.106,-1.331,-0.672,0.078,-83.033,33.514,30.392
1746585007.53,-0.111,-0.122,-0.100,-1.215,-0.325,0.289,-84.040,42.301,39.803
1746585007.55,-0.078,-0.133,0.069,-1.033,0.034,0.386,-84.610,54.577,52.304
1746585007.57,-0.045,-0.127,0.131,-0.737,0.268,0.329,-84.739,66.519,64.107
1746585007.59,-0.101,-0.014,-0.005,-0.514,0.302,0.220,-84.670,75.061,72.346
1746585007.61,-0.171,0.095,-0.166,-0.376,0.071,0.050,-84.622,80.977,78.058
1746585007.63,-0.112,0.119,-0.083,-0.173,-0.108,-0.082,-84.691,84.203,81.347
1746585007.65,0.010,0.090,0.099,-0.024,-0.087,-0.051,-84.787,85.015,82.286
1746585007.67,0.078,0.036,0.157,-0.142,0.178,-0.009,-84.820,85.895,83.124
1746585007.69,0.082,-0.054,0.074,-0.166,0.052,0.012,-84.830,88.289,85.330
1746585007.71,0.062,-0.059,0.055,-0.085,-0.391,0.081,-84.783,89.551,86.813
1746585007.73,-0.007,0.000,0.091,-0.190,-0.439,0.167,-84.636,90.565,88.340
1746585007.75,-0.136,0.052,-0.043,-0.248,-0.249,0.157,-84.437,92.954,91.158
1746585007.77,-0.202,0.048,-0.060,-0.087,0.277,0.108,-84.269,94.881,93.100
1746585007.79,-0.147,0.043,0.066,0.047,0.614,0.027,-84.187,95.472,93.122
1746585007.81,-0.072,0.011,0.092,-0.017,0.436,-0.112,-84.237,95.790,92.823
1746585007.83,0.024,-0.041,0.097,-0.219,0.228,-0.193,-84.407,97.687,94.354
1746585007.85,0.147,-0.068,0.046,-0.345,0.007,-0.110,-84.537,101.551,98.096
1746585007.87,0.196,-0.068,0.010,-0.419,-0.166,0.050,-84.466,105.832,102.510
1746585007.89,0.104,-0.031,-0.013,-0.480,-0.374,0.176,-84.175,110.199,107.186
1746585007.91,-0.025,-0.012,-0.023,-0.340,-0.520,0.152,-83.809,113.197,110.750
1746585007.93,-0.065,-0.014,0.047,-0.156,-0.395,0.094,-83.574,114.440,112.529
1746585007.95,-0.106,0.023,0.059,-0.149,-0.260,0.118,-83.402,114.900,113.353
1746585007.97,-0.184,0.116,-0.075,-0.098,-0.386,0.010,-83.238,115.552,114.353
1746585007.99,-0.206,0.099,-0.039,0.181,-0.242,-0.194,-83.372,115.197,114.421
1746585008.01,-0.089,-0.024,0.163,0.277,0.157,-0.120,-83.664,113.597,112.834
1746585008.02,-0.008,-0.056,0.136,0.194,0.132,-0.060,-83.862,111.718,110.750
1746585008.04,-0.019,-0.032,0.069,0.000,-0.111,-0.077,-83.974,111.047,110.050
1746585008.06,-0.060,-0.033,0.000,0.007,-0.350,-0.096,-84.059,111.264,110.552
1746585008.08,-0.047,-0.022,0.020,0.135,-0.259,-0.084,-84.194,110.510,110.170
1746585008.10,-0.027,0.023,0.022,0.203,-0.107,-0.016,-84.312,108.684,108.525
1746585008.12,-0.056,0.061,-0.027,0.320,-0.129,-0.038,-84.422,105.736,105.697
1746585008.14,-0.054,0.001,0.048,0.398,-0.068,-0.069,-84.585,101.531,101.595
1746585008.16,-0.048,-0.018,0.084,0.391,-0.028,-0.075,-84.738,96.852,96.942
1746585008.18,-0.053,0.014,0.047,0.446,0.036,-0.076,-84.860,91.765,91.836
1746585008.20,-0.069,0.012,0.077,0.500,0.197,-0.065,-84.930,85.810,85.728
1746585008.22,-0.099,0.000,0.066,0.624,0.286,-0.057,-84.914,78.847,78.453
1746585008.24,-0.137,-0.013,-0.003,0.795,0.371,-0.096,-84.778,70.308,69.513
1746585008.26,-0.122,-0.014,0.002,0.862,0.548,-0.154,-84.514,60.944,59.584
1746585008.28,-0.053,-0.006,0.015,0.942,0.761,-0.183,-84.107,51.936,49.784
1746585008.30,-0.027,-0.038,0.106,0.942,1.024,-0.200,-83.547,44.175,40.954
1746585008.32,-0.023,-0.038,0.050,1.073,1.118,-0.140,-82.820,37.872,33.361
1746585008.34,0.016,-0.010,-0.053,1.036,1.334,-0.130,-81.894,33.049,27.101
1746585008.36,0.000,-0.009,0.059,0.815,1.349,-0.176,-81.085,29.942,22.355
1746585008.38,0.002,-0.011,0.024,0.853,0.736,-0.147,-80.369,27.426,18.578
1746585008.40,0.036,0.017,-0.019,0.975,0.746,-0.144,-79.482,24.754,15.102
1746585008.42,0.018,0.052,0.101,1.029,1.021,-0.221,-78.522,22.492,11.714
1746585008.44,-0.000,0.040,0.029,1.032,0.766,-0.264,-77.527,20.235,8.337
1746585008.46,-0.051,0.014,-0.088,0.930,0.544,-0.209,-76.540,18.219,5.533
1746585008.48,-0.102,0.009,-0.092,0.844,0.427,-0.216,-75.668,16.656,3.342
1746585008.50,-0.042,-0.015,-0.054,0.860,0.705,-0.199,-74.779,15.308,1.351
1746585008.52,0.033,-0.047,0.134,0.979,1.035,-0.126,-73.851,14.767,-0.325
1746585008.54,0.112,-0.112,-0.104,0.946,0.184,0.066,-72.755,14.417,-1.429
1746585008.56,0.104,-0.112,-0.014,0.838,0.594,0.117,-71.752,14.290,-1.870
1746585008.58,0.120,-0.056,0.128,0.493,0.969,0.244,-70.927,15.257,-1.944
1746585008.60,0.164,0.049,0.052,0.339,0.724,0.355,-70.443,16.834,-1.226
1746585008.62,0.142,0.107,0.075,0.794,0.561,0.279,-69.745,18.074,-0.756
1746585008.64,0.072,0.071,-0.160,1.018,-0.175,0.158,-68.632,18.058,-1.032
1746585008.66,-0.081,-0.009,-0.186,0.984,-0.076,-0.022,-67.514,17.069,-1.767
1746585008.68,-0.164,-0.078,0.033,0.865,0.632,0.016,-66.522,16.657,-2.637
1746585008.70,-0.164,-0.121,0.026,0.741,0.645,0.337,-65.590,17.207,-2.858
1746585008.72,-0.024,-0.056,0.059,0.685,0.584,0.550,-64.663,18.492,-2.245
1746585008.74,0.102,0.021,-0.015,0.700,-0.156,0.577,-63.712,19.502,-1.404
1746585008.76,0.075,0.021,0.001,0.947,-0.266,0.434,-62.643,19.668,-0.866
1746585008.78,0.061,0.003,0.028,0.854,0.122,0.289,-61.485,19.626,-0.801
1746585008.80,0.042,-0.002,0.034,0.799,0.099,0.309,-60.528,19.799,-0.789
1746585008.82,0.032,0.038,0.038,1.012,-0.117,0.371,-59.421,19.832,-0.750
1746585008.84,-0.059,0.032,0.029,0.960,-0.481,0.498,-58.166,19.556,-0.495
1746585008.86,-0.092,-0.044,-0.009,0.748,0.094,0.594,-57.040,19.731,0.023
1746585008.88,-0.014,-0.113,0.022,0.667,0.278,0.527,-56.079,20.520,0.692
1746585008.90,0.009,-0.078,-0.004,0.764,0.194,0.482,-55.125,21.138,1.173
1746585008.92,0.055,0.078,0.133,0.914,0.051,0.467,-54.016,21.525,1.427
1746585008.94,-0.063,0.075,-0.036,0.788,-0.149,0.602,-52.883,21.661,1.828
1746585008.96,-0.052,-0.052,-0.040,0.712,0.038,0.719,-51.812,22.151,2.489
1746585008.98,0.029,-0.064,-0.064,0.723,-0.004,0.632,-50.758,22.652,3.189
1746585009.00,0.040,-0.041,0.048,0.744,0.019,0.543,-49.733,23.020,3.669
1746585009.02,-0.002,-0.053,0.035,0.862,-0.073,0.570,-48.638,23.261,4.039
1746585009.04,-0.096,-0.047,-0.061,0.698,0.104,0.618,-47.519,23.547,4.458
1746585009.06,-0.042,0.007,-0.023,0.556,0.194,0.588,-46.617,24.124,5.022
1746585009.08,-0.000,0.089,0.037,0.669,-0.050,0.546,-45.720,24.523,5.447
1746585009.10,0.020,0.091,0.042,0.792,-0.101,0.552,-44.705,24.650,5.824
1746585009.12,-0.009,0.032,0.019,0.893,-0.072,0.523,-43.568,24.694,6.036
1746585009.14,-0.045,-0.042,0.053,0.982,-0.024,0.482,-42.347,24.745,6.185
1746585009.16,-0.076,-0.043,-0.006,0.819,0.212,0.387,-41.184,24.820,6.203
1746585009.18,-0.042,0.015,0.079,0.728,0.315,0.375,-40.227,25.192,6.255
1746585009.20,-0.073,0.086,0.034,0.801,0.247,0.460,-39.227,25.537,6.323
1746585009.22,-0.048,0.052,0.029,0.797,0.297,0.436,-38.181,25.925,6.433
1746585009.24,-0.014,-0.029,0.016,0.952,0.088,0.354,-37.100,26.124,6.385
1746585009.26,0.012,-0.065,-0.017,0.944,0.109,0.316,-35.940,26.098,6.237
1746585009.28,-0.024,0.031,0.016,0.849,0.138,0.401,-34.851,26.187,6.127
1746585009.30,-0.009,0.028,0.038,0.855,0.219,0.537,-33.738,26.431,6.229
1746585009.32,-0.023,-0.062,0.047,0.957,0.157,0.474,-32.560,26.703,6.324
1746585009.34,0.012,-0.154,-0.051,0.987,0.188,0.316,-31.355,26.825,6.211
1746585009.36,0.006,-0.011,-0.010,0.935,0.038,0.287,-30.223,26.863,5.982
1746585009.38,-0.065,0.064,-0.001,0.839,0.121,0.443,-29.130,26.861,5.879
1746585009.40,-0.033,0.087,0.073,0.864,0.051,0.510,-28.021,27.044,5.957
1746585009.42,-0.051,0.007,-0.020,0.864,0.086,0.502,-26.868,27.111,6.028
1746585009.44,-0.008,-0.099,-0.072,0.877,0.190,0.393,-25.742,27.291,6.043
1746585009.46,0.014,-0.029,0.038,0.901,-0.030,0.322,-24.662,27.344,5.898
1746585009.48,0.082,0.032,0.020,0.818,-0.096,0.443,-23.595,27.205,5.788
1746585009.50,0.014,0.096,0.014,0.809,-0.071,0.495,-22.509,27.146,5.877
1746585009.52,-0.064,0.061,-0.139,0.781,0.100,0.472,-21.445,27.200,5.938
1746585009.54,-0.077,-0.011,-0.067,0.857,-0.017,0.349,-20.403,27.256,5.936
1746585009.56,-0.023,-0.030,0.030,0.982,-0.120,0.211,-19.327,27.076,5.715
1746585009.58,0.079,-0.099,0.079,0.886,-0.242,0.181,-18.272,26.791,5.392
1746585009.60,0.113,-0.031,0.065,0.851,-0.419,0.322,-17.259,26.332,5.160
1746585009.62,0.060,0.027,-0.009,0.681,-0.280,0.503,-16.276,25.955,5.193
1746585009.64,-0.037,0.032,-0.008,0.746,-0.020,0.546,-15.289,25.836,5.367
1746585009.66,-0.014,-0.068,0.064,0.787,0.019,0.474,-14.246,25.887,5.520
1746585009.68,0.042,-0.065,0.104,0.892,-0.110,0.392,-13.177,25.871,5.510
1746585009.70,0.093,-0.023,0.064,0.954,-0.257,0.447,-12.019,25.631,5.431
1746585009.72,-0.007,0.051,0.045,0.959,0.062,0.527,-10.778,25.534,5.424
1746585009.74,-0.227,0.062,-0.015,0.983,0.325,0.451,-9.543,25.745,5.409
1746585009.76,-0.082,0.040,-0.108,1.114,0.234,0.287,-8.293,26.089,5.244
1746585009.78,0.074,0.012,-0.109,1.204,0.021,0.187,-6.990,26.188,4.843
1746585009.80,-0.003,0.052,-0.009,1.168,-0.173,0.185,-5.670,26.029,4.376
1746585009.82,-0.060,0.050,-0.005,1.064,0.140,0.218,-4.449,25.962,3.994
1746585009.84,-0.114,0.091,-0.182,1.049,0.365,0.125,-3.256,26.236,3.592
1746585009.86,0.019,-0.039,-0.099,0.992,0.370,0.157,-2.151,26.616,3.157
1746585009.88,0.179,-0.020,-0.073,0.918,0.192,0.256,-1.072,26.938,2.800
1746585009.90,0.028,0.001,0.041,0.733,0.199,0.322,-0.073,27.142,2.598
1746585009.92,-0.034,-0.012,-0.007,0.568,0.328,0.423,0.784,27.453,2.557
1746585009.94,-0.023,-0.005,-0.147,0.485,0.406,0.391,1.523,27.885,2.623
1746585009.96,0.091,-0.040,-0.281,0.498,0.136,0.273,2.214,28.223,2.606
1746585009.98,0.147,-0.068,-0.149,0.425,-0.111,0.250,2.808,28.204,2.522
1746585010.00,0.058,-0.012,-0.120,0.361,-0.022,0.247,3.342,28.088,2.486
1746585010.02,-0.042,-0.011,-0.103,0.288,0.155,0.225,3.802,28.121,2.465
1746585010.04,-0.060,-0.029,-0.136,0.240,0.162,0.146,4.165,28.310,2.430
1746585010.06,0.049,-0.033,-0.112,0.165,0.074,0.118,4.440,28.453,2.364
1746585010.08,0.153,-0.027,-0.134,0.087,-0.011,0.189,4.647,28.472,2.367
1746585010.10,-0.011,0.052,-0.097,0.019,0.053,0.196,4.812,28.463,2.459
1746585010.12,-0.085,0.023,-0.083,-0.016,0.164,0.133,4.901,28.589,2.537
1746585010.14,-0.008,0.017,-0.068,-0.032,0.144,0.078,4.930,28.760,2.589
1746585010.16,0.053,0.002,-0.065,-0.022,0.076,0.049,4.932,28.882,2.596
1746585010.18,0.032,-0.002,-0.060,-0.023,0.061,0.056,4.937,28.942,2.591
1746585010.20,-0.044,0.013,-0.038,-0.039,0.062,0.015,4.936,29.016,2.579
1746585010.22,-0.067,0.020,0.003,-0.011,0.065,-0.031,4.892,29.087,2.539
1746585010.24,0.014,0.024,-0.010,0.059,-0.010,-0.047,4.896,29.116,2.409
1746585010.26,-0.016,0.040,0.028,0.046,0.045,-0.125,4.909,29.130,2.229
1746585010.28,-0.007,-0.009,-0.077,0.061,0.088,-0.193,4.861,29.228,1.987
1746585010.30,-0.048,-0.108,-0.098,-0.108,-0.063,-0.305,4.705,29.243,1.675
1746585010.32,0.255,-0.039,-0.251,-0.184,-0.272,-0.306,4.381,29.062,1.438
1746585010.34,0.122,-0.071,-0.271,-0.353,-0.278,-0.417,3.910,28.736,1.153
1746585010.36,0.080,-0.070,-0.287,-0.601,-0.220,-0.411,3.205,28.462,0.929
1746585010.38,0.175,-0.063,-0.281,-0.874,-0.150,-0.401,2.248,28.265,0.904
1746585010.40,0.210,-0.030,-0.217,-1.122,-0.140,-0.384,1.024,28.091,1.013
1746585010.42,0.149,-0.063,-0.198,-1.327,-0.051,-0.373,-0.409,27.982,1.290
1746585010.44,0.094,-0.045,-0.232,-1.546,0.022,-0.423,-2.081,27.985,1.631
1746585010.46,0.123,-0.034,-0.210,-1.673,-0.036,-0.483,-3.954,27.986,2.030
1746585010.48,0.133,-0.084,-0.130,-1.728,-0.073,-0.555,-5.950,27.944,2.422
1746585010.50,0.002,-0.078,-0.167,-1.834,0.048,-0.583,-8.049,27.973,2.780
1746585010.52,0.036,0.017,-0.152,-1.955,0.010,-0.520,-10.261,28.095,3.274
1746585010.54,0.123,0.027,0.015,-1.940,-0.240,-0.538,-12.520,28.098,3.813
1746585010.56,0.050,-0.072,-0.023,-1.777,-0.355,-0.652,-14.704,27.801,4.264
1746585010.58,-0.027,-0.132,-0.025,-1.688,-0.288,-0.785,-16.843,27.506,4.489
1746585010.60,-0.092,-0.155,-0.076,-1.796,-0.124,-0.840,-19.031,27.259,4.575
1746585010.62,-0.011,-0.107,0.004,-1.723,-0.103,-0.858,-21.281,27.213,4.705
1746585010.64,0.030,-0.105,0.009,-1.590,-0.238,-0.989,-23.435,26.950,4.662
1746585010.66,0.006,-0.130,0.030,-1.548,-0.231,-1.054,-25.555,26.586,4.400
1746585010.68,0.016,-0.161,-0.016,-1.641,-0.038,-0.923,-27.699,26.308,4.191
1746585010.70,0.059,-0.130,0.033,-1.556,-0.039,-0.765,-29.751,26.268,4.179
1746585010.72,0.010,-0.113,-0.004,-1.572,-0.045,-0.933,-31.773,26.164,4.184
1746585010.74,-0.022,-0.140,-0.049,-1.600,-0.076,-1.122,-33.920,25.935,3.862
1746585010.76,0.010,-0.131,-0.063,-1.664,-0.166,-1.154,-36.163,25.519,3.490
1746585010.78,0.078,-0.059,0.072,-1.754,-0.022,-1.124,-38.486,25.134,3.054
1746585010.80,0.124,-0.066,0.113,-1.709,0.096,-1.039,-40.818,24.947,2.803
1746585010.82,0.133,-0.105,0.114,-1.600,0.164,-0.986,-43.023,24.891,2.590
1746585010.84,0.091,-0.156,-0.006,-1.634,-0.103,-0.914,-45.129,24.734,2.332
1746585010.86,0.064,-0.169,0.010,-1.797,-0.198,-0.867,-47.329,24.417,2.313
1746585010.88,0.055,-0.147,0.028,-1.889,-0.286,-0.776,-49.649,24.166,2.326
1746585010.89,0.056,-0.070,0.039,-1.984,-0.287,-0.680,-51.999,23.994,2.688
1746585010.91,0.005,0.021,0.084,-1.984,-0.241,-0.776,-54.427,23.957,3.082
1746585010.94,-0.062,0.067,0.037,-1.785,-0.238,-0.999,-56.796,23.602,3.029
1746585010.95,-0.041,0.047,0.081,-1.715,-0.421,-1.101,-59.107,22.701,2.392
1746585010.97,0.007,-0.014,0.080,-1.576,-0.674,-1.026,-61.322,21.336,1.539
1746585010.99,0.039,-0.031,-0.001,-1.475,-0.848,-0.907,-63.325,19.642,0.630
1746585011.01,0.023,-0.050,0.027,-1.564,-0.806,-0.818,-65.268,17.897,-0.186
1746585011.03,0.015,-0.097,0.039,-1.723,-0.708,-0.641,-67.317,16.458,-0.818
1746585011.05,-0.022,-0.174,0.070,-1.741,-0.759,-0.352,-69.382,15.642,-0.751
1746585011.07,-0.034,-0.207,0.059,-1.829,-0.875,-0.064,-71.398,15.617,0.288
1746585011.09,-0.025,-0.213,0.140,-1.884,-1.087,0.128,-73.439,16.528,2.423
1746585011.11,-0.022,-0.127,-0.004,-1.643,-1.120,0.062,-75.332,17.852,5.262
1746585011.13,-0.033,-0.078,-0.013,-1.715,-0.757,-0.129,-77.131,19.015,7.604
1746585011.15,-0.079,-0.087,0.099,-1.653,-0.502,-0.302,-79.070,20.266,9.587
1746585011.17,-0.083,-0.096,0.029,-1.431,-0.375,-0.201,-80.808,21.703,11.537
1746585011.19,-0.075,-0.046,0.016,-1.404,-0.435,-0.047,-82.338,24.697,15.029
1746585011.21,-0.036,-0.040,-0.031,-1.416,-0.453,-0.054,-83.795,29.942,20.832
1746585011.23,-0.002,-0.091,-0.042,-1.235,-0.446,-0.094,-85.117,37.415,28.859
1746585011.25,-0.016,-0.143,-0.017,-1.072,-0.481,-0.022,-86.135,47.567,39.563
1746585011.27,-0.051,-0.141,-0.059,-0.973,-0.466,0.126,-86.755,63.297,55.887
1746585011.29,-0.107,-0.055,-0.134,-0.840,-0.192,0.233,-86.871,81.772,74.777
1746585011.31,-0.074,0.014,-0.071,-0.738,-0.008,0.334,-86.547,97.551,90.690
1746585011.33,-0.019,0.059,0.044,-0.460,0.171,0.396,-85.988,106.673,99.749
1746585011.35,-0.039,0.103,0.084,-0.265,0.419,0.440,-85.410,109.935,102.675
1746585011.37,-0.108,0.098,0.016,-0.192,0.338,0.314,-84.890,111.433,103.708
1746585011.39,-0.141,0.079,-0.057,-0.035,0.063,0.094,-84.632,112.157,104.199
1746585011.41,-0.122,0.063,-0.015,0.058,-0.266,0.032,-84.590,111.399,103.571
1746585011.43,-0.098,0.070,0.047,-0.083,-0.248,0.041,-84.547,111.066,103.554
1746585011.45,-0.091,-0.000,0.012,0.030,-0.094,-0.012,-84.502,111.383,104.076
1746585011.47,-0.082,-0.092,0.052,0.225,0.054,-0.060,-84.611,109.929,102.638
1746585011.49,-0.033,-0.066,0.128,0.049,0.090,0.024,-84.693,108.201,100.805
1746585011.51,-0.028,0.044,0.051,-0.144,-0.017,-0.021,-84.646,109.090,101.649
1746585011.53,-0.039,0.039,0.018,0.013,-0.012,-0.096,-84.696,110.233,102.834
1746585011.55,-0.017,-0.021,0.088,-0.051,0.013,-0.076,-84.798,110.531,103.115
1746585011.57,-0.011,-0.011,0.021,-0.203,-0.190,-0.084,-84.818,112.618,105.301
1746585011.59,-0.002,-0.006,-0.006,-0.185,-0.166,-0.066,-84.812,115.178,108.102
1746585011.61,0.031,-0.009,0.012,-0.100,-0.087,-0.013,-84.782,116.927,109.989
1746585011.63,0.020,-0.016,0.017,-0.071,-0.125,0.018,-84.734,117.772,110.954
1746585011.65,-0.026,-0.016,0.017,-0.099,-0.165,0.009,-84.670,118.514,111.859
1746585011.67,-0.064,0.004,-0.017,-0.054,-0.182,-0.020,-84.636,119.190,112.757
1746585011.69,-0.048,0.024,0.005,0.013,0.024,-0.005,-84.637,119.374,113.041
1746585011.71,-0.014,0.016,0.015,0.062,0.083,0.043,-84.620,118.954,112.536
1746585011.73,-0.048,-0.005,-0.004,0.081,0.041,0.041,-84.621,117.996,111.505
1746585011.75,-0.083,-0.009,0.018,0.100,0.086,0.032,-84.640,116.939,110.378
1746585011.77,-0.064,-0.005,0.068,0.118,0.094,0.001,-84.692,115.833,109.158
1746585011.79,-0.019,-0.017,0.056,0.145,0.028,-0.011,-84.767,114.624,107.863
1746585011.81,-0.006,-0.019,0.029,0.128,-0.131,-0.001,-84.855,113.048,106.335
1746585011.83,-0.033,0.028,0.000,0.075,-0.239,-0.025,-84.933,111.953,105.454
1746585011.85,-0.038,0.037,-0.005,0.164,-0.240,-0.056,-85.037,110.967,104.752
1746585011.87,-0.032,-0.010,0.049,0.279,-0.211,-0.055,-85.192,108.444,102.462
1746585011.89,-0.038,-0.023,0.056,0.298,-0.310,-0.033,-85.334,104.611,98.902
1746585011.91,-0.070,0.000,0.002,0.281,-0.415,-0.033,-85.443,100.442,95.149
1746585011.93,-0.105,0.008,0.029,0.379,-0.306,-0.077,-85.556,95.514,90.631
1746585011.95,-0.119,0.010,0.060,0.528,-0.233,-0.121,-85.686,88.496,83.890
1746585011.97,-0.131,0.028,0.045,0.663,-0.168,-0.161,-85.771,78.994,74.608
1746585011.99,-0.108,0.018,0.069,0.799,0.120,-0.181,-85.715,67.393,63.002
1746585012.01,-0.092,0.001,0.051,0.902,0.217,-0.178,-85.424,55.216,50.570
1746585012.03,-0.101,-0.017,0.013,0.809,0.232,-0.213,-84.948,44.704,39.782
1746585012.05,-0.097,-0.070,0.130,0.640,0.584,-0.269,-84.509,37.071,31.675
1746585012.07,-0.069,-0.076,0.191,0.756,1.008,-0.249,-84.047,31.196,24.843
1746585012.09,-0.032,-0.009,0.059,1.054,1.131,-0.175,-83.247,26.103,18.446
1746585012.11,-0.044,0.049,-0.074,0.980,0.718,-0.215,-82.230,21.829,13.041
1746585012.13,-0.060,0.053,-0.102,0.685,0.515,-0.266,-81.444,18.365,8.895
1746585012.15,-0.014,-0.032,0.036,0.669,0.759,-0.212,-80.830,15.993,5.763
1746585012.17,0.050,-0.068,0.069,1.054,1.087,-0.073,-79.942,14.552,3.238
1746585012.19,0.092,-0.032,0.022,1.222,1.234,0.058,-78.636,14.175,1.438
1746585012.21,0.108,0.023,-0.139,0.927,0.239,0.112,-77.399,14.070,0.443
1746585012.23,0.109,0.008,-0.047,0.892,0.431,0.128,-76.415,13.832,-0.026
1746585012.25,0.117,-0.031,0.137,0.979,0.967,0.218,-75.310,14.405,-0.277
1746585012.27,0.075,-0.053,0.048,1.017,0.555,0.285,-74.130,15.302,-0.247
1746585012.29,0.017,-0.004,-0.072,0.891,-0.018,0.330,-72.962,15.707,-0.118
1746585012.31,-0.008,0.029,0.019,0.725,0.267,0.264,-72.016,16.090,0.222
1746585012.33,-0.037,-0.031,-0.006,0.712,0.383,0.254,-71.137,16.607,0.379
1746585012.35,-0.027,-0.093,-0.051,0.805,0.587,0.338,-70.230,17.346,0.664
1746585012.37,0.010,-0.025,-0.054,1.114,0.662,0.384,-69.063,18.266,0.982
1746585012.39,0.049,0.011,0.012,0.949,0.469,0.452,-67.728,19.096,1.125
1746585012.41,0.005,-0.036,-0.042,0.582,0.184,0.469,-66.759,19.919,1.685
1746585012.43,0.009,-0.108,0.040,0.443,0.718,0.599,-65.995,21.250,2.606
1746585012.45,0.078,-0.108,0.067,0.466,0.295,0.682,-65.293,23.085,3.875
1746585012.47,0.139,-0.014,-0.084,1.045,-0.318,0.539,-64.213,23.682,4.662
1746585012.49,0.090,0.075,-0.038,1.159,-0.301,0.284,-62.829,23.093,4.500
1746585012.51,-0.018,0.057,-0.084,0.910,-0.206,0.255,-61.603,22.408,4.040
1746585012.53,-0.047,-0.014,0.037,0.566,0.164,0.432,-60.713,22.470,4.129
1746585012.55,-0.038,-0.062,0.079,0.497,-0.104,0.717,-59.894,23.187,4.892
1746585012.57,-0.019,-0.003,0.015,0.684,-0.019,0.748,-58.973,23.972,5.998
1746585012.59,-0.040,0.032,-0.031,1.004,0.113,0.444,-57.776,24.462,6.493
1746585012.61,-0.132,0.048,-0.004,1.030,-0.098,0.164,-56.577,24.179,6.107
1746585012.63,-0.141,-0.035,-0.012,0.879,0.082,0.388,-55.455,23.845,5.885
1746585012.65,-0.039,0.006,0.007,0.658,0.234,0.510,-54.433,24.218,6.106
1746585012.67,0.001,0.043,0.058,0.743,0.224,0.498,-53.513,24.805,6.543
1746585012.69,-0.065,0.047,-0.006,1.081,0.266,0.357,-52.331,25.053,6.592
1746585012.71,-0.021,-0.005,0.085,1.212,0.154,0.312,-51.003,25.065,6.235
1746585012.73,0.012,-0.047,-0.033,1.162,0.149,0.357,-49.576,24.892,5.920
1746585012.75,0.112,-0.011,0.038,0.754,0.255,0.508,-48.364,25.111,5.891
1746585012.77,0.087,-0.018,0.096,0.544,0.165,0.568,-47.470,25.656,6.340
1746585012.79,0.016,0.008,0.089,0.795,0.200,0.409,-46.551,26.058,6.622
1746585012.81,0.017,-0.041,0.084,0.923,0.198,0.540,-45.429,26.310,6.697
1746585012.83,0.074,-0.060,0.004,0.933,0.046,0.617,-44.150,26.561,6.919
1746585012.85,0.096,0.001,-0.047,0.632,0.181,0.538,-43.044,26.885,7.207
1746585012.87,-0.032,0.032,-0.020,0.561,0.243,0.480,-42.208,27.349,7.573
1746585012.89,-0.116,0.025,0.035,0.805,0.198,0.459,-41.279,27.696,7.738
1746585012.91,-0.115,-0.016,0.144,1.033,-0.036,0.625,-40.066,27.848,7.807
1746585012.93,0.009,-0.041,-0.011,1.131,-0.025,0.568,-38.611,27.769,7.887
1746585012.95,0.107,-0.000,-0.003,0.939,0.181,0.388,-37.313,27.839,7.806
1746585012.97,-0.003,-0.022,0.024,0.861,0.046,0.413,-36.211,27.917,7.710
1746585012.99,-0.008,0.030,0.081,0.861,-0.049,0.588,-35.067,27.936,7.768
1746585013.01,0.026,0.030,0.040,0.815,-0.087,0.699,-33.863,28.015,8.034
1746585013.03,0.019,0.036,-0.099,0.715,0.093,0.593,-32.751,28.139,8.346
1746585013.05,-0.041,-0.026,-0.063,0.785,0.148,0.469,-31.707,28.356,8.509
1746585013.07,-0.100,-0.072,-0.000,0.796,0.097,0.404,-30.679,28.518,8.503
1746585013.09,-0.005,0.018,0.019,0.759,0.112,0.491,-29.664,28.651,8.511
