Time,AccX,AccY,AccZ,GyroX,GyroY,GyroZ,Pitch,Roll,Yaw
1747651743.80,-0.006,0.001,0.013,-0.002,0.014,-0.016,-85.586,22.739,-26.021
1747651743.82,-0.007,-0.001,0.016,-0.006,0.011,-0.010,-85.583,22.617,-26.151
1747651743.83,-0.014,-0.003,0.011,-0.021,-0.013,-0.007,-85.583,22.524,-26.244
1747651743.83,-0.023,-0.002,0.000,-0.035,-0.042,-0.001,-85.587,22.468,-26.284
1747651743.84,-0.028,-0.001,-0.008,-0.038,-0.065,-0.005,-85.595,22.449,-26.273
1747651743.85,-0.025,-0.002,-0.012,-0.035,-0.070,0.005,-85.602,22.478,-26.204
1747651743.87,-0.017,-0.006,-0.015,-0.025,-0.062,0.005,-85.612,22.529,-26.114
1747651743.87,-0.010,-0.008,-0.014,-0.014,-0.051,0.008,-85.621,22.589,-26.022
1747651743.88,-0.004,-0.003,-0.012,-0.011,-0.041,0.014,-85.629,22.668,-25.917
1747651743.89,0.000,0.002,-0.008,-0.007,-0.029,0.012,-85.636,22.765,-25.799
1747651743.90,0.003,0.009,-0.004,-0.007,-0.020,0.010,-85.641,22.828,-25.722
1747651743.92,0.005,0.010,-0.006,-0.010,-0.014,0.020,-85.644,22.870,-25.669
1747651743.92,0.005,0.009,-0.011,-0.018,-0.024,0.026,-85.647,22.961,-25.567
1747651743.93,0.006,0.017,-0.021,-0.023,-0.058,0.036,-85.650,23.118,-25.386
1747651743.94,0.005,0.031,-0.034,-0.017,-0.120,0.058,-85.648,23.371,-25.082
1747651743.95,0.003,0.040,-0.046,0.004,-0.205,0.082,-85.632,23.735,-24.623
1747651743.96,0.001,0.044,-0.059,0.028,-0.278,0.098,-85.599,24.127,-24.091
1747651743.97,0.004,0.046,-0.067,0.050,-0.334,0.124,-85.551,24.569,-23.471
1747651743.98,0.010,0.040,-0.072,0.063,-0.364,0.147,-85.489,25.081,-22.756
1747651743.99,0.012,0.027,-0.074,0.077,-0.392,0.163,-85.414,25.657,-21.961
1747651744.00,0.006,0.017,-0.074,0.095,-0.400,0.159,-85.329,26.195,-21.194
1747651744.02,0.000,0.010,-0.072,0.114,-0.394,0.139,-85.236,26.575,-20.585
1747651744.02,-0.001,0.007,-0.068,0.119,-0.389,0.120,-85.140,26.772,-20.162
1747651744.03,-0.002,0.010,-0.066,0.101,-0.388,0.085,-85.054,26.808,-19.903
1747651744.04,-0.001,0.023,-0.067,0.077,-0.402,0.060,-84.987,26.718,-19.768
1747651744.05,0.007,0.041,-0.081,0.063,-0.457,0.056,-84.934,26.581,-19.661
1747651744.07,0.015,0.043,-0.107,0.081,-0.548,0.063,-84.883,26.436,-19.519
1747651744.07,0.014,0.036,-0.135,0.123,-0.639,0.053,-84.816,26.142,-19.474
1747651744.08,0.012,0.022,-0.152,0.167,-0.710,0.030,-84.730,25.593,-19.638
1747651744.09,0.014,0.006,-0.152,0.191,-0.770,0.007,-84.632,24.803,-20.006
1747651744.10,0.013,0.001,-0.141,0.208,-0.845,-0.023,-84.531,23.816,-20.533
1747651744.11,0.006,0.004,-0.130,0.255,-0.951,-0.045,-84.418,22.573,-21.269
1747651744.12,-0.002,0.011,-0.106,0.278,-1.075,-0.061,-84.286,21.124,-22.142
1747651744.13,-0.007,0.018,-0.063,0.272,-1.137,-0.069,-84.151,19.603,-23.033
1747651744.14,-0.005,0.013,-0.014,0.240,-1.116,-0.073,-84.026,18.123,-23.870
1747651744.15,0.001,-0.004,0.019,0.203,-1.074,-0.055,-83.916,16.803,-24.569
1747651744.16,0.005,-0.030,0.028,0.167,-1.049,-0.023,-83.822,15.715,-25.055
1747651744.17,0.004,-0.056,0.036,0.124,-1.039,0.011,-83.742,14.894,-25.281
1747651744.18,0.002,-0.065,0.055,0.091,-1.011,0.022,-83.681,14.257,-25.333
1747651744.19,0.005,-0.065,0.072,0.051,-0.957,0.023,-83.638,13.725,-25.303
1747651744.20,0.009,-0.066,0.089,0.001,-0.922,0.023,-83.620,13.269,-25.222
1747651744.21,0.007,-0.067,0.099,-0.056,-0.904,0.013,-83.633,12.867,-25.103
1747651744.22,-0.003,-0.064,0.091,-0.103,-0.916,0.005,-83.676,12.486,-24.963
1747651744.23,-0.014,-0.059,0.073,-0.130,-0.951,-0.007,-83.741,12.086,-24.831
1747651744.24,-0.023,-0.053,0.059,-0.149,-0.989,-0.021,-83.821,11.613,-24.748
1747651744.25,-0.029,-0.055,0.050,-0.159,-0.998,-0.044,-83.910,11.041,-24.752
1747651744.26,-0.024,-0.053,0.050,-0.175,-1.012,-0.047,-84.009,10.391,-24.830
1747651744.27,-0.019,-0.050,0.050,-0.204,-1.035,-0.050,-84.120,9.724,-24.912
1747651744.28,-0.021,-0.044,0.050,-0.233,-1.064,-0.055,-84.249,9.036,-25.001
1747651744.29,-0.028,-0.040,0.043,-0.236,-1.079,-0.063,-84.387,8.291,-25.133
1747651744.30,-0.035,-0.036,0.035,-0.241,-1.069,-0.061,-84.527,7.509,-25.302
1747651744.31,-0.042,-0.037,0.034,-0.260,-1.035,-0.046,-84.672,6.758,-25.452
1747651744.32,-0.050,-0.040,0.032,-0.269,-1.020,-0.028,-84.825,6.131,-25.494
1747651744.33,-0.061,-0.038,0.023,-0.270,-1.011,-0.012,-84.980,5.598,-25.446
1747651744.34,-0.070,-0.027,0.013,-0.263,-1.018,-0.004,-85.132,5.131,-25.332
1747651744.35,-0.075,-0.014,0.012,-0.246,-1.022,0.000,-85.277,4.675,-25.204
1747651744.36,-0.080,-0.004,0.019,-0.228,-1.003,0.023,-85.412,4.294,-25.006
1747651744.37,-0.085,-0.011,0.015,-0.205,-0.965,0.044,-85.533,4.084,-24.652
1747651744.38,-0.092,-0.023,0.001,-0.225,-0.919,0.034,-85.651,3.944,-24.253
1747651744.39,-0.107,-0.028,-0.005,-0.297,-0.861,0.008,-85.799,3.713,-23.974
1747651744.40,-0.116,-0.042,-0.002,-0.386,-0.794,-0.004,-85.995,3.422,-23.793
1747651744.41,-0.119,-0.052,-0.000,-0.395,-0.748,0.008,-86.221,3.171,-23.603
1747651744.42,-0.129,-0.063,-0.008,-0.348,-0.660,0.033,-86.433,3.125,-23.244
1747651744.43,-0.132,-0.073,-0.002,-0.324,-0.573,0.049,-86.622,3.352,-22.666
1747651744.44,-0.135,-0.076,0.017,-0.331,-0.511,0.049,-86.807,3.737,-21.970
1747651744.45,-0.138,-0.083,0.029,-0.322,-0.440,0.049,-86.991,4.136,-21.297
1747651744.46,-0.110,-0.093,0.020,-0.302,-0.392,0.101,-87.166,5.021,-20.174
1747651744.47,-0.051,-0.072,-0.002,-0.282,-0.380,0.137,-87.326,6.582,-18.392
1747651744.48,-0.024,-0.053,-0.020,-0.250,-0.409,0.164,-87.465,8.700,-16.047
1747651744.49,-0.006,-0.030,-0.055,-0.174,-0.445,0.179,-87.570,11.175,-13.325
1747651744.50,0.008,0.006,-0.125,-0.047,-0.494,0.176,-87.611,13.613,-10.617
1747651744.51,0.019,0.048,-0.191,0.077,-0.536,0.171,-87.577,15.537,-8.396
1747651744.52,0.027,0.087,-0.210,0.147,-0.506,0.177,-87.486,16.989,-6.641
1747651744.53,0.038,0.110,-0.163,0.166,-0.385,0.202,-87.365,18.391,-4.981
1747651744.54,0.042,0.126,-0.082,0.107,-0.217,0.227,-87.249,20.089,-3.107
1747651744.55,0.043,0.156,0.023,-0.018,-0.077,0.286,-87.170,22.588,-0.523
1747651744.56,0.037,0.171,0.151,-0.168,-0.018,0.359,-87.142,26.375,3.292
1747651744.57,0.014,0.138,0.247,-0.266,-0.053,0.400,-87.147,31.418,8.357
1747651744.58,-0.024,0.073,0.238,-0.270,-0.205,0.403,-87.146,36.953,13.971
1747651744.59,-0.056,0.021,0.124,-0.215,-0.371,0.353,-87.116,41.894,19.084
1747651744.60,-0.078,0.013,0.001,-0.181,-0.427,0.308,-87.066,45.811,23.244
1747651744.61,-0.085,0.023,-0.051,-0.254,-0.426,0.432,-86.977,50.517,28.177
1747651744.62,-0.031,0.015,-0.025,-0.200,-0.210,0.239,-86.906,54.412,32.257
1747651744.63,-0.045,-0.058,0.072,-0.200,-0.129,0.205,-86.868,57.260,35.197
1747651744.64,0.007,-0.074,0.147,-0.231,-0.264,0.241,-86.823,60.278,38.329
1747651744.65,0.054,-0.072,0.191,-0.230,-0.414,0.256,-86.760,63.382,41.631
1747651744.66,0.106,-0.050,0.190,-0.202,-0.558,0.268,-86.677,66.163,44.696
1747651744.67,0.137,-0.022,0.142,-0.177,-0.561,0.275,-86.575,68.539,47.401
1747651744.68,0.140,0.007,0.082,-0.179,-0.250,0.341,-86.454,70.759,49.888
1747651744.69,0.105,0.048,0.056,-0.217,-0.398,0.378,-86.273,73.539,52.873
1747651744.70,0.054,0.059,0.019,-0.170,-0.281,0.196,-86.147,75.558,55.093
1747651744.71,-0.035,0.024,0.026,-0.182,-0.187,0.140,-86.082,77.179,56.846
1747651744.72,-0.019,0.037,0.030,-0.173,-0.189,0.153,-86.022,78.770,58.546
1747651744.73,-0.005,0.054,-0.010,-0.140,-0.211,0.163,-85.949,80.158,60.052
1747651744.74,0.020,0.053,-0.021,-0.103,-0.240,0.159,-85.869,81.177,61.201
1747651744.75,0.050,0.027,-0.011,-0.066,-0.270,0.151,-85.788,81.859,62.031
1747651744.76,0.073,-0.009,-0.009,-0.055,-0.292,0.144,-85.708,82.310,62.646
1747651744.77,0.086,-0.047,-0.006,-0.038,-0.285,0.136,-85.633,82.639,63.142
1747651744.78,0.106,-0.063,-0.000,0.002,-0.260,0.129,-85.560,82.755,63.414
1747651744.79,0.136,-0.048,-0.021,0.067,-0.268,0.128,-85.486,82.479,63.287
1747651744.80,0.162,-0.014,-0.065,0.104,-0.295,0.137,-85.404,81.815,62.783
1747651744.81,0.189,0.023,-0.095,0.124,-0.284,0.159,-85.311,81.010,62.141
1747651744.82,0.214,0.050,-0.093,0.137,-0.278,0.148,-85.211,80.143,61.432
1747651744.83,0.187,0.065,-0.089,0.125,-0.305,0.095,-85.129,79.232,60.686
1747651744.84,0.122,0.040,-0.073,0.081,-0.303,0.062,-85.074,78.479,60.105
1747651744.85,0.081,-0.015,-0.040,0.036,-0.268,0.048,-85.037,78.009,59.798
1747651744.86,0.071,-0.053,-0.016,0.007,-0.252,0.041,-85.009,77.812,59.749
1747651744.87,0.065,-0.049,-0.010,0.035,-0.261,0.028,-84.988,77.601,59.683
1747651744.88,0.056,-0.021,-0.031,0.052,-0.296,0.029,-84.966,77.181,59.421
1747651744.89,0.038,0.007,-0.038,0.035,-0.294,0.058,-84.938,76.787,59.198
1747651744.90,0.025,0.010,-0.002,-0.006,-0.255,0.088,-84.896,76.645,59.213
1747651744.91,0.004,-0.001,0.030,-0.041,-0.197,0.096,-84.847,76.808,59.507
1747651744.92,-0.014,-0.022,0.035,-0.050,-0.142,0.094,-84.800,77.137,59.933
1747651744.93,-0.001,-0.051,0.034,-0.047,-0.114,0.080,-84.758,77.490,60.361
1747651744.94,0.034,-0.047,0.034,-0.026,-0.124,0.052,-84.724,77.747,60.687
1747651744.95,0.070,-0.019,0.023,-0.009,-0.156,0.014,-84.708,77.815,60.834
1747651744.96,0.098,0.007,-0.004,0.010,-0.215,-0.020,-84.709,77.698,60.825
1747651744.97,0.112,0.024,-0.041,0.040,-0.247,-0.063,-84.728,77.345,60.604
1747651744.98,0.116,0.028,-0.061,0.068,-0.248,-0.093,-84.763,76.765,60.164
1747651744.99,0.114,0.022,-0.064,0.087,-0.238,-0.108,-84.809,76.022,59.557
1747651745.00,0.107,0.004,-0.062,0.094,-0.237,-0.110,-84.857,75.187,58.854
1747651745.01,0.098,-0.008,-0.061,0.148,-0.218,-0.090,-84.896,74.195,57.988
1747651745.02,0.098,-0.008,-0.062,0.198,-0.200,-0.051,-84.905,72.892,56.797
1747651745.03,0.098,0.018,-0.050,0.164,-0.250,-0.002,-84.883,71.630,55.657
1747651745.04,0.064,0.029,-0.020,0.133,-0.323,0.024,-84.843,70.642,54.829
1747651745.05,0.021,0.013,-0.015,0.125,-0.369,0.015,-84.801,69.729,54.113
1747651745.06,-0.015,-0.028,-0.003,0.087,-0.366,-0.011,-84.773,68.882,53.475
1747651745.07,-0.029,-0.061,0.040,0.054,-0.331,-0.028,-84.765,68.241,53.033
1747651745.08,-0.017,-0.060,0.070,0.069,-0.306,-0.044,-84.771,67.651,52.621
1747651745.09,-0.017,-0.021,0.058,0.115,-0.314,-0.075,-84.782,66.817,51.963
1747651745.10,-0.051,0.023,0.034,0.163,-0.311,-0.098,-84.795,65.625,50.947
1747651745.11,-0.094,0.048,0.011,0.199,-0.270,-0.102,-84.804,64.164,49.647
1747651745.12,-0.141,0.055,-0.001,0.192,-0.185,-0.085,-84.801,62.649,48.257
1747651745.13,-0.175,0.028,0.019,0.136,-0.056,-0.069,-84.796,61.427,47.100
1747651745.14,-0.165,-0.018,0.041,0.088,0.108,-0.043,-84.794,60.667,46.322
1747651745.15,-0.095,-0.047,0.056,0.068,0.244,-0.006,-84.785,60.277,45.826
1747651745.16,0.001,-0.032,0.066,0.073,0.275,0.017,-84.762,60.079,45.475
1747651745.17,0.068,0.022,0.056,0.079,0.225,0.019,-84.731,59.874,45.124
1747651745.18,0.088,0.065,0.050,0.069,0.149,0.001,-84.704,59.614,44.754
1747651745.19,0.068,0.052,0.069,0.051,0.067,-0.023,-84.692,59.323,44.399
1747651745.20,0.029,-0.005,0.075,0.028,-0.022,-0.053,-84.699,59.001,44.064
1747651745.21,-0.002,-0.055,0.065,-0.006,-0.083,-0.080,-84.729,58.702,43.794
1747651745.22,-0.003,-0.062,0.068,-0.031,-0.151,-0.093,-84.780,58.445,43.602
1747651745.23,0.013,-0.039,0.068,-0.017,-0.222,-0.102,-84.836,58.161,43.424
1747651745.24,0.025,-0.004,0.044,0.035,-0.273,-0.112,-84.887,57.634,43.038
1747651745.25,0.033,0.020,0.015,0.107,-0.258,-0.121,-84.920,56.721,42.275
1747651745.26,0.038,0.031,-0.005,0.162,-0.229,-0.125,-84.935,55.436,41.124
1747651745.27,0.031,0.023,-0.017,0.193,-0.200,-0.114,-84.933,53.952,39.756
1747651745.28,0.018,0.004,-0.026,0.225,-0.150,-0.092,-84.909,52.400,38.300
1747651745.29,0.012,-0.002,-0.035,0.254,-0.071,-0.072,-84.862,50.839,36.796
1747651745.30,0.006,0.007,-0.034,0.272,0.027,-0.053,-84.796,49.351,35.314
1747651745.31,-0.000,0.012,-0.017,0.288,0.114,-0.035,-84.713,47.965,33.881
1747651745.32,0.001,0.008,0.003,0.328,0.163,-0.012,-84.605,46.615,32.442
1747651745.33,0.008,0.009,0.022,0.354,0.122,-0.002,-84.470,45.239,30.976
1747651745.34,0.006,0.013,0.044,0.361,0.031,-0.004,-84.325,43.836,29.521
1747651745.35,0.006,0.008,0.069,0.391,-0.072,-0.009,-84.170,42.360,28.050
1747651745.36,0.013,-0.014,0.073,0.443,-0.137,-0.033,-83.999,40.691,26.434
1747651745.37,0.015,-0.029,0.079,0.499,-0.146,-0.076,-83.813,38.772,24.586
1747651745.38,0.002,-0.030,0.091,0.573,-0.121,-0.122,-83.605,36.593,22.472
1747651745.39,-0.015,-0.012,0.088,0.625,-0.111,-0.158,-83.371,34.216,20.144
1747651745.40,-0.040,0.019,0.091,0.651,-0.156,-0.176,-83.117,31.783,17.770
1747651745.41,-0.062,0.041,0.076,0.700,-0.172,-0.164,-82.836,29.416,15.482
1747651745.42,-0.058,0.042,0.051,0.775,-0.103,-0.151,-82.508,27.170,13.299
1747651745.43,-0.043,0.037,0.039,0.842,-0.014,-0.132,-82.129,25.090,11.232
1747651745.44,-0.039,0.028,0.034,0.881,0.052,-0.100,-81.707,23.243,9.356
1747651745.45,-0.025,0.015,0.056,0.913,0.109,-0.060,-81.250,21.702,7.751
1747651745.46,0.010,-0.011,0.079,0.889,0.103,-0.030,-80.776,20.448,6.416
1747651745.47,0.038,-0.038,0.088,0.838,0.009,-0.018,-80.317,19.392,5.312
1747651745.48,0.055,-0.059,0.092,0.798,-0.091,0.006,-79.877,18.482,4.412
1747651745.49,0.081,-0.063,0.084,0.802,-0.176,0.020,-79.442,17.678,3.672
1747651745.50,0.105,-0.033,0.058,0.872,-0.309,-0.024,-78.987,16.806,2.923
1747651745.51,0.092,0.010,0.003,0.949,-0.436,-0.093,-78.496,15.698,2.013
1747651745.52,0.070,0.046,-0.021,1.017,-0.485,-0.167,-77.974,14.387,0.947
1747651745.53,0.046,0.057,-0.001,1.090,-0.443,-0.249,-77.417,12.935,-0.265
1747651745.54,-0.003,0.053,0.035,1.129,-0.340,-0.310,-76.831,11.439,-1.571
1747651745.55,-0.078,0.018,0.078,1.155,-0.273,-0.331,-76.223,10.006,-2.866
1747651745.56,-0.161,-0.027,0.050,1.128,-0.219,-0.298,-75.607,8.727,-4.040
1747651745.57,-0.194,-0.047,0.063,1.100,-0.144,-0.222,-75.001,7.707,-4.986
1747651745.58,-0.155,-0.040,0.068,1.135,-0.039,-0.121,-74.382,7.000,-5.664
1747651745.59,-0.074,-0.022,0.041,1.110,0.033,-0.040,-73.746,6.580,-6.101
1747651745.60,0.003,0.000,0.054,1.012,-0.018,-0.027,-73.147,6.307,-6.396
1747651745.61,0.064,0.008,0.035,1.020,-0.067,-0.055,-72.577,6.003,-6.685
1747651745.62,0.152,-0.010,-0.024,1.052,0.001,-0.088,-71.991,5.666,-7.015
1747651745.63,0.253,-0.034,0.013,1.088,0.003,-0.119,-71.392,5.318,-7.390
1747651745.64,0.251,-0.040,0.031,1.213,-0.086,-0.129,-70.746,4.919,-7.787
1747651745.65,0.169,-0.007,-0.029,1.297,-0.147,-0.157,-70.034,4.463,-8.201
1747651745.66,0.051,0.036,-0.006,1.308,-0.217,-0.213,-69.299,3.928,-8.662
1747651745.67,-0.081,0.028,0.048,1.308,-0.311,-0.261,-68.562,3.299,-9.174
1747651745.68,-0.182,-0.008,0.025,1.272,-0.317,-0.273,-67.832,2.635,-9.691
1747651745.69,-0.221,-0.036,0.009,1.290,-0.198,-0.276,-67.112,2.030,-10.179
1747651745.70,-0.208,-0.069,0.009,1.345,0.078,-0.278,-66.361,1.571,-10.639
1747651745.71,-0.169,-0.087,0.032,1.301,0.217,-0.287,-65.608,1.263,-11.080
1747651745.72,-0.193,-0.062,0.037,1.288,0.230,-0.277,-64.874,1.005,-11.502
1747651745.73,-0.224,-0.001,-0.019,1.276,0.424,-0.224,-64.142,0.858,-11.864
1747651745.74,-0.138,0.059,0.027,1.202,0.600,-0.144,-63.435,0.923,-12.127
1747651745.75,-0.028,0.064,0.069,1.163,0.502,-0.125,-62.763,1.076,-12.320
1747651745.76,0.028,0.010,0.011,1.139,0.280,-0.117,-62.105,1.141,-12.498
1747651745.77,0.079,-0.052,-0.035,1.105,0.117,-0.103,-61.468,1.110,-12.657
1747651745.78,0.159,-0.085,-0.055,1.162,0.076,-0.096,-60.825,1.039,-12.798
1747651745.79,0.220,-0.082,-0.066,1.226,0.073,-0.119,-60.141,0.952,-12.944
1747651745.80,0.193,-0.051,-0.035,1.202,0.124,-0.147,-59.447,0.856,-13.117
1747651745.81,0.101,-0.037,0.013,1.169,0.114,-0.167,-58.773,0.764,-13.312
1747651745.82,0.020,-0.046,0.010,1.172,0.054,-0.148,-58.106,0.645,-13.504
1747651745.83,-0.009,-0.046,-0.034,1.135,0.103,-0.090,-57.445,0.570,-13.645
1747651745.84,0.042,-0.029,0.001,1.107,0.056,-0.059,-56.806,0.547,-13.733
1747651745.85,0.096,-0.003,0.014,1.098,-0.083,-0.065,-56.176,0.479,-13.806
1747651745.86,0.120,0.024,0.007,1.098,-0.204,-0.071,-55.550,0.329,-13.560
1747651745.87,0.123,0.031,-0.004,1.091,-0.280,-0.118,-54.924,0.112,-13.657
1747651745.88,0.090,0.019,-0.026,1.054,-0.389,-0.152,-54.313,-0.188,-13.477
1747651745.89,0.039,-0.004,-0.042,1.073,-0.343,-0.146,-53.705,-0.517,-13.618
1747651745.90,0.025,-0.029,-0.014,1.052,-0.236,-0.144,-53.096,-0.780,-13.619
1747651745.91,-0.000,-0.052,0.018,1.033,-0.226,-0.126,-52.500,-1.004,-13.735
1747651745.92,-0.054,-0.081,-0.027,1.025,-0.119,-0.073,-51.913,-1.165,-13.556
1747651745.93,-0.065,-0.102,-0.002,1.050,-0.047,-0.030,-51.319,-1.230,-13.580
1747651745.94,-0.065,-0.072,-0.013,1.019,-0.019,-0.015,-50.726,-1.247,-13.340
1747651745.95,-0.053,-0.008,-0.037,0.974,-0.022,-0.003,-50.159,-1.249,-13.328
1747651745.96,-0.003,0.059,-0.014,0.968,-0.071,-0.019,-49.604,-1.264,-13.091
1747651745.97,0.044,0.111,0.008,0.957,-0.118,-0.068,-49.054,-1.331,-13.107
1747651745.98,0.049,0.133,0.037,0.960,-0.164,-0.172,-48.506,-1.470,-12.977
1747651745.99,0.017,0.110,0.067,0.969,-0.276,-0.256,-47.952,-1.717,-13.140
1747651746.00,-0.041,0.048,0.047,0.988,-0.297,-0.283,-47.389,-2.035,-13.131
1747651746.01,-0.086,-0.022,0.038,0.995,-0.249,-0.314,-46.817,-2.353,-13.128
1747651746.02,-0.121,-0.059,0.022,0.980,-0.172,-0.357,-46.247,-2.649,-13.370
1747651746.03,-0.146,-0.068,-0.010,1.010,-0.083,-0.358,-45.668,-2.907,-13.411
1747651746.04,-0.125,-0.058,-0.002,0.946,0.024,-0.304,-45.097,-3.086,-13.639
1747651746.05,-0.057,-0.002,-0.011,0.859,0.112,-0.223,-44.575,-3.167,-13.617
1747651746.06,0.048,0.082,0.006,0.814,0.081,-0.109,-44.095,-3.174,-13.712
1747651746.07,0.130,0.157,0.029,0.795,-0.035,-0.111,-43.632,-3.193,-13.594
1747651746.08,0.179,0.207,0.010,0.788,-0.190,-0.113,-43.179,-3.294,-13.648
1747651746.09,0.168,0.184,0.008,0.791,-0.357,-0.144,-42.725,-3.492,-13.560
1747651746.10,0.101,0.130,0.003,0.813,-0.495,-0.195,-42.264,-3.798,-13.650
1747651746.11,0.029,0.049,0.006,0.855,-0.508,-0.278,-41.780,-4.182,-13.626
1747651746.12,-0.012,-0.033,0.021,0.873,-0.348,-0.373,-41.272,-4.561,-13.823
1747651746.13,-0.019,-0.090,0.023,0.838,-0.194,-0.433,-40.764,-4.879,-13.942
1747651746.14,-0.039,-0.136,-0.024,0.819,-0.126,-0.417,-40.272,-5.145,-14.211
1747651746.15,-0.074,-0.145,-0.038,0.799,-0.068,-0.321,-39.791,-5.345,-14.319
1747651746.16,-0.062,-0.110,-0.007,0.754,-0.040,-0.192,-39.336,-5.457,-14.455
1747651746.17,0.026,-0.041,0.027,0.753,-0.136,-0.086,-38.901,-5.532,-14.394
1747651746.18,0.123,0.040,0.005,0.773,-0.236,-0.061,-38.464,-5.637,-14.389
1747651746.19,0.190,0.093,-0.005,0.803,-0.310,-0.122,-38.011,-5.798,-14.301
1747651746.20,0.204,0.099,-0.002,0.831,-0.382,-0.184,-37.538,-6.029,-14.354
1747651746.21,0.181,0.053,-0.017,0.818,-0.437,-0.210,-37.056,-6.311,-14.334
1747651746.22,0.113,-0.014,-0.045,0.811,-0.439,-0.224,-36.581,-6.617,-14.422
1747651746.23,0.008,-0.076,-0.036,0.833,-0.322,-0.221,-36.100,-6.892,-14.432
1747651746.24,-0.054,-0.116,0.001,0.795,-0.150,-0.203,-35.621,-7.070,-14.510
1747651746.25,-0.079,-0.131,0.008,0.770,-0.126,-0.203,-35.166,-7.185,-14.514
1747651746.26,-0.104,-0.114,-0.019,0.743,-0.141,-0.184,-34.723,-7.303,-14.582
1747651746.27,-0.061,-0.072,-0.031,0.710,-0.178,-0.163,-34.299,-7.421,-14.590
1747651746.28,0.048,-0.032,-0.051,0.671,-0.306,-0.133,-33.898,-7.578,-14.629
1747651746.29,0.167,0.008,-0.071,0.662,-0.486,-0.114,-33.513,-7.817,-14.609
1747651746.31,0.233,0.054,-0.041,0.686,-0.583,-0.136,-33.121,-8.140,-14.633
1747651746.31,0.224,0.083,-0.013,0.706,-0.605,-0.116,-32.717,-8.487,-14.622
1747651746.32,0.130,0.072,0.001,0.730,-0.597,-0.078,-32.304,-8.828,-14.616
1747651746.33,0.004,0.035,-0.008,0.767,-0.481,-0.031,-31.875,-9.120,-14.539
1747651746.34,-0.044,-0.001,-0.012,0.732,-0.310,-0.001,-31.450,-9.307,-14.468
1747651746.35,-0.026,-0.021,-0.016,0.705,-0.218,0.002,-31.046,-9.417,-14.363
1747651746.36,-0.019,-0.004,-0.038,0.681,-0.185,-0.004,-30.656,-9.490,-14.288
1747651746.37,-0.002,0.049,-0.041,0.657,-0.224,0.000,-30.280,-9.568,-14.202
1747651746.38,0.004,0.100,-0.030,0.628,-0.265,-0.020,-29.917,-9.677,-14.135
1747651746.38,-0.016,0.128,-0.002,0.607,-0.291,-0.089,-29.564,-9.819,-14.071
1747651746.39,-0.065,0.127,0.041,0.622,-0.300,-0.167,-29.207,-9.996,-14.086
1747651746.41,-0.112,0.096,0.065,0.636,-0.238,-0.229,-28.832,-10.178,-14.101
1747651746.41,-0.130,0.065,0.062,0.618,-0.166,-0.301,-28.453,-10.338,-14.197
1747651746.42,-0.148,0.043,0.026,0.609,-0.109,-0.362,-28.074,-10.483,-14.338
1747651746.43,-0.160,0.038,0.012,0.573,-0.076,-0.384,-27.701,-10.612,-14.505
1747651746.45,-0.131,0.046,0.006,0.545,-0.111,-0.371,-27.350,-10.745,-14.685
1747651746.45,-0.066,0.052,0.006,0.564,-0.120,-0.385,-26.999,-10.891,-14.857
1747651746.46,0.001,0.050,-0.006,0.577,-0.085,-0.415,-26.635,-11.031,-15.086
1747651746.47,0.045,0.038,-0.006,0.578,-0.120,-0.425,-26.264,-11.173,-15.279
1747651746.48,0.037,-0.003,-0.014,0.554,-0.125,-0.422,-25.899,-11.329,-15.501
1747651746.49,0.032,-0.062,-0.022,0.569,-0.055,-0.404,-25.540,-11.465,-15.689
1747651746.50,0.048,-0.106,-0.001,0.555,-0.030,-0.377,-25.183,-11.560,-15.890
1747651746.52,0.089,-0.102,0.010,0.566,-0.054,-0.328,-24.829,-11.643,-16.037
1747651746.52,0.139,-0.049,0.027,0.560,-0.153,-0.292,-24.479,-11.749,-16.179
1747651746.53,0.158,0.021,-0.022,0.553,-0.235,-0.261,-24.136,-11.903,-16.277
1747651746.54,0.142,0.031,-0.061,0.563,-0.262,-0.254,-23.795,-12.080,-16.396
1747651746.55,0.112,0.002,-0.061,0.593,-0.248,-0.267,-23.439,-12.260,-16.477
1747651746.56,0.071,-0.026,-0.052,0.579,-0.271,-0.276,-23.079,-12.441,-16.606
1747651746.57,0.028,-0.063,-0.064,0.578,-0.252,-0.272,-22.723,-12.630,-16.695
1747651746.58,0.015,-0.115,-0.086,0.559,-0.142,-0.273,-22.372,-12.773,-16.837
1747651746.59,0.020,-0.156,-0.065,0.550,-0.107,-0.240,-22.032,-12.871,-16.917
1747651746.60,0.003,-0.160,-0.046,0.560,-0.106,-0.171,-21.696,-12.953,-17.010
1747651746.61,0.023,-0.059,0.001,0.560,-0.075,-0.132,-21.364,-13.008,-17.023
1747651746.62,0.077,0.129,0.073,0.567,-0.124,-0.125,-21.034,-13.066,-17.066
1747651746.63,0.071,0.240,0.078,0.558,-0.182,-0.121,-20.706,-13.152,-17.061
1747651746.64,-0.005,0.224,0.050,0.562,-0.229,-0.106,-20.380,-13.264,-17.097
1747651746.65,-0.060,0.130,-0.008,0.555,-0.231,-0.108,-20.056,-13.393,-17.080
1747651746.66,-0.052,0.024,-0.059,0.513,-0.192,-0.148,-19.741,-13.513,-17.131
1747651746.67,-0.011,-0.057,-0.089,0.481,-0.188,-0.185,-19.445,-13.629,-17.159
1747651746.68,-0.002,-0.124,-0.107,0.469,-0.152,-0.191,-19.155,-13.743,-17.269
1747651746.69,-0.017,-0.144,-0.089,0.439,-0.128,-0.164,-18.878,-13.832,-17.308
1747651746.70,-0.025,-0.115,-0.072,0.420,-0.159,-0.116,-18.621,-13.921,-17.392
1747651746.71,-0.025,-0.045,-0.037,0.410,-0.127,-0.074,-18.378,-14.003,-17.386
1747651746.72,0.006,0.078,0.020,0.383,-0.109,-0.055,-18.149,-14.061,-17.439
1747651746.73,0.030,0.172,0.026,0.372,-0.166,-0.034,-17.935,-14.130,-17.410
1747651746.74,0.003,0.165,0.018,0.376,-0.191,-0.026,-17.724,-14.222,-17.418
1747651746.75,-0.023,0.111,-0.001,0.370,-0.194,-0.044,-17.512,-14.321,-17.382
1747651746.76,-0.055,0.047,-0.051,0.353,-0.203,-0.089,-17.301,-14.429,-17.411
1747651746.77,-0.111,-0.033,-0.068,0.332,-0.150,-0.141,-17.097,-14.537,-17.426
1747651746.78,-0.134,-0.116,-0.053,0.323,-0.035,-0.206,-16.889,-14.603,-17.530
1747651746.79,-0.113,-0.165,-0.036,0.270,-0.000,-0.254,-16.692,-14.635,-17.620
1747651746.80,-0.100,-0.164,-0.063,0.251,-0.020,-0.251,-16.512,-14.672,-17.779
1747651746.81,-0.082,-0.099,-0.053,0.212,-0.002,-0.215,-16.349,-14.708,-17.879
1747651746.82,-0.027,0.004,-0.041,0.172,-0.005,-0.161,-16.217,-14.730,-18.034
1747651746.83,0.029,0.074,-0.054,0.144,-0.036,-0.113,-16.111,-14.755,-18.089
1747651746.84,0.046,0.110,-0.068,0.131,-0.073,-0.082,-16.022,-14.795,-18.168
1747651746.85,0.057,0.111,-0.086,0.149,-0.106,-0.071,-15.935,-14.852,-18.189
1747651746.86,0.055,0.079,-0.084,0.164,-0.101,-0.077,-15.836,-14.917,-18.262
1747651746.87,0.041,0.037,-0.066,0.134,-0.088,-0.067,-15.744,-14.976,-18.280
1747651746.88,0.018,-0.021,-0.041,0.145,-0.021,-0.057,-15.658,-15.013,-18.357
1747651746.89,0.006,-0.069,-0.011,0.140,0.050,-0.056,-15.572,-15.007,-18.367
1747651746.90,-0.001,-0.093,0.009,0.170,0.106,-0.049,-15.479,-14.963,-18.437
1747651746.91,-0.014,-0.075,0.017,0.178,0.128,-0.036,-15.375,-14.894,-18.433
1747651746.92,-0.014,-0.006,0.003,0.181,0.105,-0.044,-15.272,-14.824,-18.475
1747651746.93,0.007,0.061,-0.019,0.163,0.094,-0.072,-15.170,-14.767,-18.481
1747651746.94,0.008,0.086,-0.002,0.147,0.077,-0.100,-15.076,-14.722,-18.559
1747651746.95,-0.011,0.062,0.014,0.186,0.045,-0.115,-14.969,-14.696,-18.596
1747651746.96,-0.036,0.034,0.018,0.180,0.014,-0.118,-14.848,-14.688,-18.685
1747651746.97,-0.039,0.023,0.012,0.180,0.015,-0.134,-14.729,-14.695,-18.775
1747651746.98,-0.020,0.026,0.019,0.181,0.051,-0.157,-14.605,-14.689,-18.831
1747651746.99,-0.004,0.029,0.026,0.182,0.071,-0.175,-14.479,-14.670,-18.955
1747651747.00,-0.002,0.029,0.001,0.176,0.080,-0.179,-14.355,-14.647,-19.029
1747651747.01,0.006,0.046,0.008,0.171,0.068,-0.167,-14.238,-14.621,-19.161
1747651747.02,0.026,0.061,0.019,0.186,0.055,-0.162,-14.122,-14.603,-19.229
1747651747.03,0.047,0.066,0.016,0.189,0.023,-0.130,-14.002,-14.596,-19.343
1747651747.04,0.057,0.072,-0.017,0.195,-0.003,-0.093,-13.883,-14.601,-19.378
1747651747.05,0.070,0.074,-0.053,0.182,-0.039,-0.066,-13.770,-14.620,-19.465
1747651747.06,0.081,0.060,-0.059,0.174,-0.056,-0.042,-13.672,-14.651,-19.469
1747651747.07,0.084,0.030,-0.049,0.194,-0.071,-0.023,-13.572,-14.687,-19.526
1747651747.08,0.066,0.005,-0.027,0.209,-0.060,-0.007,-13.461,-14.719,-19.504
1747651747.09,0.053,-0.025,-0.007,0.209,-0.045,-0.008,-13.352,-14.742,-19.560
1747651747.10,0.057,-0.048,-0.016,0.203,-0.036,-0.011,-13.244,-14.757,-19.534
1747651747.11,0.064,-0.047,-0.025,0.188,-0.059,-0.008,-13.142,-14.775,-19.584
1747651747.12,0.050,-0.031,-0.046,0.170,-0.057,0.007,-13.049,-14.800,-19.556
1747651747.13,0.032,0.007,-0.059,0.144,-0.036,0.022,-12.970,-14.813,-19.605
1747651747.14,0.007,0.050,-0.054,0.123,-0.053,0.040,-12.906,-14.824,-19.567
1747651747.15,-0.033,0.066,-0.049,0.104,-0.065,0.060,-12.855,-14.842,-19.594
1747651747.16,-0.045,0.054,-0.044,0.085,-0.099,0.062,-12.813,-14.872,-19.544
1747651747.17,-0.029,0.031,-0.052,0.070,-0.121,0.046,-12.778,-14.924,-19.564
1747651747.18,-0.007,0.002,-0.051,0.064,-0.102,0.016,-12.741,-14.978,-19.537
1747651747.19,0.007,-0.024,-0.043,0.022,-0.083,-0.010,-12.713,-15.023,-19.579
1747651747.20,-0.020,-0.034,-0.046,-0.029,-0.071,-0.022,-12.709,-15.067,-19.589
1747651747.21,-0.068,-0.021,-0.062,-0.075,-0.032,-0.012,-12.736,-15.097,-19.657
1747651747.22,-0.093,-0.010,-0.081,-0.133,0.007,0.011,-12.796,-15.107,-19.672
1747651747.23,-0.103,0.012,-0.088,-0.186,0.044,0.055,-12.891,-15.094,-19.735
1747651747.24,-0.065,0.052,-0.096,-0.233,0.061,0.098,-13.020,-15.060,-19.723
1747651747.25,-0.002,0.077,-0.120,-0.298,0.029,0.130,-13.184,-15.028,-19.725
1747651747.26,0.022,0.081,-0.151,-0.375,-0.022,0.142,-13.389,-15.018,-19.698
1747651747.27,-0.002,0.073,-0.175,-0.447,-0.077,0.131,-13.636,-15.044,-19.728
1747651747.28,-0.057,0.029,-0.179,-0.492,-0.050,0.134,-13.914,-15.082,-19.725
1747651747.29,-0.079,-0.030,-0.152,-0.562,-0.043,0.151,-14.223,-15.109,-19.745
1747651747.30,-0.078,-0.065,-0.164,-0.620,-0.043,0.175,-14.575,-15.136,-19.745
1747651747.31,-0.051,-0.055,-0.164,-0.656,0.004,0.219,-14.955,-15.146,-19.740
1747651747.32,0.002,-0.006,-0.142,-0.712,0.043,0.272,-15.368,-15.121,-19.705
1747651747.33,0.024,0.029,-0.154,-0.746,-0.000,0.332,-15.817,-15.090,-19.664
1747651747.34,0.017,0.037,-0.179,-0.794,-0.022,0.384,-16.293,-15.075,-19.576
1747651747.35,0.029,0.045,-0.178,-0.841,0.004,0.396,-16.802,-15.052,-19.463
1747651747.36,0.053,0.038,-0.156,-0.898,-0.008,0.419,-17.341,-15.023,-19.365
1747651747.37,0.040,0.005,-0.130,-0.941,-0.009,0.445,-17.913,-14.996,-19.237
1747651747.38,0.010,-0.043,-0.106,-0.977,0.016,0.458,-18.509,-14.958,-19.124
1747651747.39,-0.019,-0.082,-0.090,-1.028,0.032,0.470,-19.130,-14.908,-18.972
1747651747.40,-0.033,-0.107,-0.088,-1.063,0.059,0.477,-19.778,-14.845,-18.857
1747651747.41,-0.021,-0.114,-0.069,-1.095,0.080,0.472,-20.443,-14.766,-18.700
1747651747.42,-0.003,-0.096,-0.053,-1.132,0.084,0.465,-21.125,-14.681,-18.597
1747651747.43,0.007,-0.061,-0.040,-1.147,0.080,0.460,-21.822,-14.599,-18.437
1747651747.44,0.007,-0.040,-0.035,-1.168,0.086,0.454,-22.527,-14.517,-18.342
1747651747.45,-0.017,-0.042,-0.036,-1.169,0.105,0.435,-23.238,-14.430,-18.188
1747651747.46,-0.055,-0.058,-0.029,-1.170,0.148,0.432,-23.945,-14.326,-18.107
1747651747.47,-0.066,-0.087,-0.018,-1.201,0.189,0.432,-24.663,-14.195,-17.959
1747651747.48,-0.067,-0.122,-0.029,-1.202,0.207,0.425,-25.389,-14.049,-17.882
1747651747.49,-0.047,-0.149,-0.037,-1.204,0.255,0.410,-26.113,-13.887,-17.734
1747651747.50,-0.006,-0.158,-0.013,-1.218,0.255,0.395,-26.839,-13.707,-17.669
1747651747.51,0.020,-0.155,-0.019,-1.204,0.181,0.408,-27.566,-13.552,-17.507
1747651747.52,0.023,-0.142,-0.024,-1.185,0.186,0.430,-28.285,-13.412,-17.424
1747651747.53,0.030,-0.125,-0.009,-1.166,0.259,0.427,-28.996,-13.239,-17.205
1747651747.54,0.042,-0.107,0.002,-1.161,0.298,0.417,-29.696,-13.033,-17.109
1747651747.55,0.033,-0.088,-0.021,-1.179,0.300,0.405,-30.399,-12.814,-16.891
1747651747.56,-0.001,-0.067,-0.044,-1.198,0.276,0.403,-31.112,-12.607,-16.806
1747651747.57,-0.029,-0.052,-0.033,-1.209,0.286,0.414,-31.834,-12.400,-16.568
1747651747.58,-0.021,-0.053,-0.005,-1.218,0.308,0.419,-32.562,-12.178,-16.468
1747651747.59,0.003,-0.058,-0.011,-1.242,0.314,0.429,-33.299,-11.941,-16.224
1747651747.60,0.039,-0.078,-0.054,-1.294,0.255,0.450,-34.058,-11.711,-16.107
1747651747.61,0.065,-0.106,-0.098,-1.349,0.199,0.470,-34.851,-11.508,-15.832
1747651747.62,0.076,-0.117,-0.080,-1.364,0.162,0.478,-35.665,-11.328,-15.694
1747651747.63,0.081,-0.103,-0.043,-1.389,0.181,0.474,-36.489,-11.147,-15.377
1747651747.64,0.071,-0.069,-0.006,-1.408,0.177,0.458,-37.324,-10.962,-15.242
1747651747.65,0.017,-0.037,-0.013,-1.417,0.154,0.479,-38.167,-10.782,-14.924
1747651747.66,-0.038,-0.019,-0.057,-1.437,0.146,0.527,-39.020,-10.594,-14.758
1747651747.67,-0.048,-0.015,-0.075,-1.456,0.169,0.560,-39.889,-10.375,-14.327
1747651747.68,-0.031,-0.024,-0.055,-1.482,0.228,0.549,-40.771,-10.123,-14.112
1747651747.69,-0.013,-0.044,-0.033,-1.486,0.282,0.503,-41.658,-9.844,-13.685
1747651747.70,-0.007,-0.066,-0.022,-1.516,0.305,0.458,-42.549,-9.563,-13.516
1747651747.71,-0.022,-0.087,-0.014,-1.533,0.327,0.447,-43.452,-9.278,-13.105
1747651747.72,-0.027,-0.096,-0.006,-1.520,0.309,0.475,-44.354,-8.983,-12.938
1747651747.73,-0.014,-0.085,0.003,-1.512,0.383,0.520,-45.252,-8.641,-12.572
1747651747.74,0.040,-0.054,0.021,-1.539,0.440,0.562,-46.158,-8.219,-12.317
1747651747.75,0.074,-0.025,0.021,-1.558,0.387,0.594,-47.081,-7.766,-12.021
1747651747.76,0.052,-0.011,-0.014,-1.568,0.366,0.603,-48.010,-7.309,-11.691
1747651747.77,0.042,0.005,-0.020,-1.609,0.361,0.578,-48.951,-6.847,-11.353
1747651747.78,0.035,0.013,0.008,-1.635,0.319,0.553,-49.909,-6.403,-11.025
1747651747.79,0.019,0.007,0.008,-1.637,0.287,0.534,-50.872,-5.979,-10.697
1747651747.80,0.021,-0.011,0.016,-1.645,0.271,0.490,-51.833,-5.574,-10.381
1747651747.81,0.022,-0.017,0.019,-1.673,0.316,0.466,-52.802,-5.169,-9.879
1747651747.82,0.015,-0.035,0.030,-1.661,0.257,0.411,-53.775,-4.778,-9.599
1747651747.83,-0.010,-0.035,-0.001,-1.670,0.202,0.380,-54.738,-4.444,-9.346
1747651747.84,0.006,-0.037,0.002,-1.694,0.187,0.356,-55.713,-4.137,-9.104
1747651747.85,0.034,-0.040,0.037,-1.688,0.217,0.371,-56.690,-3.816,-8.856
1747651747.86,0.054,-0.045,0.029,-1.675,0.213,0.390,-57.661,-3.449,-8.568
1747651747.87,0.032,-0.043,0.021,-1.690,0.226,0.380,-58.632,-3.060,-8.254
1747651747.88,0.031,-0.003,0.033,-1.693,0.168,0.360,-59.608,-2.670,-7.936
1747651747.89,0.024,0.031,-0.001,-1.720,0.078,0.361,-60.590,-2.320,-7.609
1747651747.90,0.022,0.026,-0.012,-1.739,0.068,0.355,-61.585,-1.977,-7.263
1747651747.91,0.022,-0.001,0.010,-1.710,0.061,0.345,-62.578,-1.622,-6.904
1747651747.92,0.028,-0.044,-0.014,-1.685,0.076,0.332,-63.551,-1.250,-6.530
1747651747.93,0.039,-0.075,-0.018,-1.644,0.094,0.300,-64.506,-0.868,-6.157
1747651747.94,0.035,-0.085,-0.025,-1.601,0.193,0.266,-65.433,-0.463,-5.801
1747651747.95,0.018,-0.083,0.002,-1.586,0.223,0.225,-66.343,-0.036,-5.467
1747651747.96,-0.032,-0.074,0.008,-1.568,0.240,0.195,-67.242,0.376,-5.160
1747651747.97,-0.079,-0.073,-0.000,-1.564,0.255,0.200,-68.136,0.806,-4.846
1747651747.98,-0.080,-0.078,0.018,-1.548,0.314,0.251,-69.023,1.335,-4.451
1747651747.99,-0.050,-0.071,0.044,-1.515,0.356,0.312,-69.892,2.027,-3.919
1747651748.00,-0.012,-0.052,0.023,-1.507,0.320,0.333,-70.745,2.844,-3.256
1747651748.01,0.019,-0.034,-0.030,-1.518,0.292,0.321,-71.597,3.709,-2.526
1747651748.02,0.066,-0.021,-0.030,-1.515,0.290,0.288,-72.450,4.607,-1.757
1747651748.03,0.101,-0.014,-0.018,-1.427,0.290,0.214,-73.276,5.475,-1.020
1747651748.04,0.097,0.007,-0.010,-1.294,0.276,0.148,-74.039,6.254,-0.378
1747651748.05,0.062,0.040,0.005,-1.204,0.231,0.092,-74.735,6.933,0.175
1747651748.06,-0.019,0.050,0.023,-1.246,0.212,0.035,-75.422,7.521,0.653
1747651748.07,-0.101,0.008,0.069,-1.270,0.244,0.018,-76.136,8.089,1.109
1747651748.08,-0.124,-0.069,0.083,-1.197,0.305,0.067,-76.831,8.764,1.642
1747651748.09,-0.085,-0.109,0.049,-1.161,0.374,0.139,-77.483,9.684,2.388
1747651748.10,-0.032,-0.088,0.052,-1.172,0.459,0.159,-78.123,10.866,3.353
1747651748.11,-0.000,-0.036,0.082,-1.141,0.516,0.130,-78.756,12.190,4.420
1747651748.12,-0.006,0.027,0.077,-1.085,0.465,0.101,-79.362,13.548,5.516
1747651748.13,-0.043,0.077,0.072,-1.009,0.438,0.067,-79.929,14.853,6.583
1747651748.14,-0.081,0.080,0.065,-0.975,0.521,0.049,-80.465,16.189,7.665
1747651748.15,-0.092,0.044,0.088,-0.951,0.627,0.024,-80.987,17.619,8.779
1747651748.16,-0.093,-0.007,0.082,-0.908,0.624,0.011,-81.487,19.119,9.931
1747651748.17,-0.085,-0.037,0.026,-0.890,0.530,0.008,-81.968,20.687,11.180
1747651748.18,-0.067,-0.044,0.020,-0.811,0.496,0.019,-82.420,22.324,12.542
1747651748.19,-0.010,-0.028,0.010,-0.755,0.554,0.036,-82.820,24.076,14.006
1747651748.20,0.050,0.007,0.092,-0.826,0.630,0.045,-83.217,26.149,15.756
1747651748.21,0.048,0.031,0.204,-0.885,0.667,0.081,-83.635,28.750,17.991
1747651748.22,0.027,0.047,0.155,-0.878,0.559,0.027,-84.053,31.717,20.625
1747651748.23,0.002,0.042,0.047,-0.883,0.560,-0.031,-84.475,34.762,23.369
1747651748.24,0.010,0.037,0.057,-0.887,0.585,-0.026,-84.893,38.160,26.450
1747651748.25,0.039,0.017,0.079,-0.898,0.576,0.092,-85.270,42.524,30.485
1747651748.26,0.049,-0.017,0.064,-0.845,0.605,0.100,-85.581,47.781,35.421
1747651748.27,0.027,-0.050,0.031,-0.747,0.661,0.084,-85.832,53.274,40.567
1747651748.28,0.018,-0.031,0.000,-0.642,0.670,0.077,-86.014,58.606,45.526
1747651748.29,0.001,0.004,0.009,-0.607,0.578,0.060,-86.152,63.791,50.362
1747651748.30,-0.039,0.015,0.007,-0.573,0.443,0.045,-86.259,68.921,55.213
1747651748.31,-0.038,-0.007,-0.031,-0.537,0.365,0.030,-86.341,73.888,59.961
1747651748.32,0.007,-0.033,-0.033,-0.506,0.341,0.034,-86.394,78.705,64.585
1747651748.33,0.064,-0.048,-0.014,-0.476,0.261,0.038,-86.418,83.352,69.069
1747651748.34,0.101,-0.041,-0.028,-0.429,0.174,0.038,-86.416,87.629,73.228
1747651748.35,0.114,-0.026,-0.029,-0.340,0.064,0.018,-86.402,91.205,76.744
1747651748.36,0.109,-0.000,-0.046,-0.263,-0.056,0.005,-86.388,93.918,79.460
1747651748.37,0.095,0.026,-0.038,-0.214,-0.171,-0.005,-86.376,95.995,81.606
1747651748.38,0.064,0.032,-0.011,-0.176,-0.264,-0.011,-86.368,97.612,83.352
1747651748.39,0.010,0.026,0.009,-0.147,-0.316,-0.016,-86.364,98.915,84.825
1747651748.40,-0.054,0.020,0.028,-0.106,-0.305,-0.044,-86.368,99.914,86.006
1747651748.41,-0.119,0.017,0.016,-0.071,-0.199,-0.092,-86.397,100.648,86.890
1747651748.42,-0.161,0.017,0.027,-0.041,-0.022,-0.115,-86.450,101.269,87.577
1747651748.43,-0.166,0.015,0.033,-0.020,0.148,-0.118,-86.512,101.795,88.067
1747651748.44,-0.153,-0.001,0.031,-0.002,0.285,-0.089,-86.571,102.239,88.387
1747651748.45,-0.109,-0.021,0.015,0.034,0.405,-0.023,-86.604,102.417,88.369
1747651748.46,-0.045,-0.032,0.005,0.059,0.529,0.042,-86.605,102.197,87.879
1747651748.47,0.015,-0.018,0.028,0.045,0.508,0.097,-86.572,101.837,87.215
1747651748.48,0.046,-0.001,0.026,-0.009,0.417,0.093,-86.520,101.759,86.873
1747651748.49,0.063,0.009,0.006,-0.034,0.397,0.088,-86.467,102.024,86.907
1747651748.50,0.102,0.006,0.020,-0.071,0.386,0.067,-86.416,102.560,87.219
1747651748.51,0.110,0.008,0.036,-0.097,0.280,0.019,-86.381,103.417,87.883
1747651748.52,0.068,0.019,0.022,-0.090,0.146,-0.033,-86.372,104.403,88.751
1747651748.53,0.027,0.018,0.015,-0.019,0.105,-0.067,-86.393,105.072,89.353
1747651748.54,0.017,0.001,0.041,0.031,0.114,-0.066,-86.432,105.229,89.448
1747651748.55,0.016,-0.021,0.052,0.034,0.079,-0.050,-86.470,105.103,89.263
1747651748.56,0.008,-0.034,0.031,0.004,-0.045,-0.025,-86.493,105.048,89.197
1747651748.57,-0.006,-0.026,0.005,-0.012,-0.163,0.006,-86.498,105.061,89.271
1747651748.58,0.011,-0.009,-0.019,-0.035,-0.251,0.028,-86.483,105.104,89.435
1747651748.59,0.043,-0.005,-0.016,-0.038,-0.296,0.043,-86.458,105.207,89.695
1747651748.60,0.070,-0.010,-0.012,-0.008,-0.320,0.029,-86.434,105.154,89.820
1747651748.61,0.085,-0.004,-0.030,0.039,-0.306,0.004,-86.427,104.799,89.645
1747651748.62,0.080,0.015,-0.027,0.070,-0.316,-0.011,-86.437,104.127,89.148
1747651748.63,0.051,0.040,-0.023,0.066,-0.328,-0.029,-86.457,103.362,88.564
1747651748.64,-0.003,0.052,-0.006,0.064,-0.343,-0.045,-86.484,102.727,88.119
1747651748.65,-0.055,0.034,0.016,0.059,-0.317,-0.031,-86.514,102.049,87.632
1747651748.66,-0.075,-0.022,0.012,0.017,-0.237,-0.009,-86.530,101.552,87.293
1747651748.67,-0.063,-0.070,0.020,-0.010,-0.164,0.002,-86.529,101.392,87.247
1747651748.68,-0.043,-0.071,0.015,-0.013,-0.144,0.004,-86.520,101.406,87.347
1747651748.69,-0.025,-0.028,0.008,0.033,-0.181,0.003,-86.515,101.197,87.229
1747651748.70,-0.004,0.025,-0.016,0.097,-0.209,-0.002,-86.518,100.434,86.578
1747651748.71,0.013,0.061,-0.021,0.160,-0.223,0.000,-86.529,99.100,85.365
1747651748.72,0.016,0.052,-0.025,0.224,-0.227,0.001,-86.545,97.163,83.554
1747651748.73,0.015,0.012,-0.046,0.263,-0.210,-0.001,-86.562,94.770,81.283
1747651748.74,0.018,-0.014,-0.047,0.319,-0.126,-0.002,-86.574,91.911,78.517
1747651748.75,0.022,-0.024,-0.004,0.364,-0.079,0.001,-86.575,88.574,75.229
1747651748.76,0.012,-0.024,0.049,0.403,-0.140,-0.005,-86.563,84.888,71.597
1747651748.77,-0.011,-0.012,0.047,0.451,-0.199,-0.027,-86.542,80.728,67.528
1747651748.78,-0.017,0.012,0.040,0.458,-0.225,-0.047,-86.511,76.309,63.224
1747651748.79,-0.021,0.014,0.065,0.450,-0.207,-0.060,-86.469,71.992,59.024
1747651748.80,-0.026,-0.008,0.084,0.459,-0.168,-0.081,-86.417,67.756,54.886
1747651748.81,-0.028,-0.013,0.062,0.486,-0.198,-0.109,-86.355,63.431,50.655
1747651748.82,-0.006,0.008,0.030,0.572,-0.243,-0.138,-86.271,58.714,46.056
1747651748.83,0.026,0.023,0.027,0.675,-0.213,-0.146,-86.139,53.413,40.874
1747651748.84,0.056,0.023,0.068,0.721,-0.220,-0.119,-85.946,48.115,35.686
1747651748.85,0.061,0.002,0.104,0.722,-0.355,-0.084,-85.698,43.346,31.062
1747651748.86,0.032,-0.017,0.086,0.708,-0.590,-0.094,-85.424,39.144,27.118
1747651748.87,-0.013,-0.031,0.052,0.749,-0.750,-0.128,-85.132,35.118,23.468
1747651748.88,-0.025,-0.046,0.013,0.827,-0.693,-0.165,-84.800,31.112,19.867
1747651748.89,0.009,-0.034,0.014,0.933,-0.536,-0.199,-84.413,27.211,16.301
1747651748.90,0.032,0.011,0.047,1.047,-0.465,-0.224,-83.951,23.480,12.834
1747651748.91,-0.004,0.045,0.057,1.082,-0.472,-0.247,-83.433,20.033,9.635
1747651748.92,-0.060,0.069,0.052,0.998,-0.469,-0.231,-82.909,17.077,6.930
1747651748.93,-0.089,0.070,0.097,0.847,-0.391,-0.158,-82.435,14.859,4.945
1747651748.94,-0.095,0.000,0.203,0.806,-0.265,-0.061,-81.998,13.388,3.649
1747651748.95,-0.068,-0.061,0.185,0.849,-0.202,-0.002,-81.542,12.421,2.803
1747651748.96,-0.033,-0.049,0.120,0.837,-0.232,0.019,-81.067,11.680,2.176
1747651748.97,-0.001,-0.002,0.079,0.800,-0.300,0.008,-80.607,11.023,1.666
1747651748.98,0.033,0.027,0.019,0.861,-0.258,-0.051,-80.147,10.283,1.081
1747651748.99,0.053,0.039,0.017,0.978,-0.176,-0.130,-79.639,9.375,0.283
1747651749.00,0.026,0.051,0.049,1.038,-0.175,-0.209,-79.083,8.292,-0.720
1747651749.01,-0.050,0.056,0.044,1.036,-0.156,-0.273,-78.513,7.099,-1.837
1747651749.02,-0.119,0.043,0.046,0.984,-0.061,-0.284,-77.957,5.943,-2.950
1747651749.03,-0.149,0.018,0.078,0.976,0.129,-0.196,-77.416,5.074,-3.856
1747651749.04,-0.124,-0.004,0.098,0.949,0.271,-0.055,-76.871,4.674,-4.388
1747651749.05,-0.072,-0.002,0.097,0.896,0.282,0.042,-76.348,4.648,-4.580
1747651749.06,-0.018,-0.002,0.070,0.909,0.247,0.102,-75.833,4.801,-4.578
1747651749.07,0.061,-0.015,0.037,0.947,0.209,0.126,-75.299,5.014,-4.494
1747651749.08,0.127,-0.030,0.032,0.980,0.079,0.095,-74.746,5.164,-4.429
1747651749.09,0.134,-0.037,0.004,1.033,-0.111,0.027,-74.172,5.100,-4.485
1747651749.10,0.098,-0.043,-0.019,1.116,-0.184,-0.066,-73.562,4.791,-4.713
1747651749.11,0.066,-0.052,0.010,1.224,-0.193,-0.152,-72.902,4.299,-5.115
1747651749.12,0.003,-0.051,0.006,1.316,-0.187,-0.188,-72.183,3.714,-5.612
1747651749.13,-0.069,-0.047,-0.039,1.319,-0.062,-0.185,-71.433,3.173,-6.102
1747651749.14,-0.103,-0.019,-0.063,1.266,0.119,-0.178,-70.702,2.777,-6.541
1747651749.15,-0.122,0.003,-0.023,1.232,0.254,-0.156,-69.994,2.526,-6.924
1747651749.16,-0.105,-0.005,-0.003,1.189,0.321,-0.119,-69.307,2.399,-7.237
1747651749.17,-0.036,-0.021,0.009,1.200,0.307,-0.071,-68.631,2.366,-7.467
1747651749.18,0.057,-0.037,-0.040,1.241,0.302,-0.030,-67.935,2.393,-7.622
1747651749.19,0.171,-0.051,-0.033,1.259,0.305,-0.025,-67.222,2.462,-7.739
1747651749.20,0.237,-0.064,-0.003,1.297,0.235,-0.049,-66.495,2.493,-7.874
1747651749.21,0.213,-0.065,-0.057,1.267,0.129,-0.073,-65.761,2.445,-8.041
1747651749.22,0.159,-0.044,-0.030,1.175,0.019,-0.040,-65.067,2.347,-8.194
1747651749.23,0.104,-0.030,0.004,1.140,-0.023,0.025,-64.407,2.277,-8.267
1747651749.24,0.067,-0.026,0.017,1.079,-0.046,0.053,-63.773,2.256,-8.270
1747651749.25,0.045,0.004,0.019,1.032,-0.120,0.042,-63.170,2.221,-8.259
1747651749.26,0.046,0.024,-0.033,1.026,-0.208,-0.008,-62.585,2.101,-8.286
1747651749.27,0.072,0.020,-0.007,1.068,-0.275,-0.066,-61.990,1.885,-8.375
1747651749.28,0.082,0.014,0.012,1.146,-0.346,-0.149,-61.362,1.557,-8.543
1747651749.29,0.034,0.011,-0.021,1.260,-0.177,-0.227,-60.678,1.174,-8.799
1747651749.30,-0.057,0.002,0.027,1.292,-0.063,-0.327,-59.948,0.814,-9.144
1747651749.31,-0.150,-0.006,0.093,1.287,-0.167,-0.353,-59.213,0.403,-9.551
1747651749.32,-0.214,-0.020,0.038,1.255,-0.080,-0.264,-58.487,0.021,-9.903
1747651749.33,-0.193,-0.028,0.022,1.178,0.078,-0.149,-57.791,-0.160,-10.123
1747651749.34,-0.096,-0.031,0.023,1.094,0.089,-0.075,-57.143,-0.204,-10.233
1747651749.35,-0.020,-0.022,0.001,1.047,0.056,-0.062,-56.533,-0.213,-10.297
1747651749.36,0.047,0.012,0.016,1.046,0.001,-0.099,-55.936,-0.261,-10.373
1747651749.37,0.082,0.042,0.008,1.056,-0.051,-0.142,-55.336,-0.367,-10.487
1747651749.38,0.068,0.037,-0.003,1.068,-0.137,-0.195,-54.729,-0.552,-10.646
1747651749.39,0.017,-0.006,-0.042,1.149,-0.105,-0.243,-54.098,-0.793,-10.727
1747651749.39,-0.006,-0.066,-0.046,1.238,0.118,-0.251,-53.410,-0.974,-10.949
1747651749.41,-0.024,-0.111,0.024,1.236,0.308,-0.238,-52.699,-1.017,-10.975
1747651749.41,-0.061,-0.128,0.027,1.139,0.311,-0.168,-52.014,-0.973,-11.150
1747651749.43,-0.071,-0.116,-0.073,1.018,0.234,-0.008,-51.400,-0.871,-11.046
1747651749.43,0.015,-0.066,-0.029,0.950,0.103,0.148,-50.839,-0.708,-10.963
1747651749.44,0.137,0.026,0.041,0.909,-0.040,0.188,-50.311,-0.563,-10.610
1747651749.45,0.235,0.123,0.066,0.914,-0.215,0.118,-49.793,-0.514,-10.456
1747651749.47,0.253,0.170,0.062,0.921,-0.463,-0.023,-49.269,-0.668,-10.218
1747651749.47,0.147,0.176,0.013,0.930,-0.657,-0.179,-48.741,-1.050,-10.294
1747651749.49,-0.018,0.130,-0.007,1.008,-0.638,-0.346,-48.186,-1.586,-10.337
1747651749.49,-0.135,0.050,0.015,1.060,-0.352,-0.493,-47.583,-2.118,-10.668
1747651749.51,-0.184,-0.039,0.048,1.049,-0.160,-0.527,-46.969,-2.549,-10.919
1747651749.51,-0.209,-0.124,0.005,0.999,-0.067,-0.424,-46.369,-2.877,-11.281
1747651749.52,-0.209,-0.178,-0.049,0.911,0.110,-0.259,-45.814,-3.038,-11.383
1747651749.53,-0.097,-0.191,-0.073,0.877,0.211,-0.177,-45.300,-3.037,-11.519
1747651749.54,0.031,-0.147,-0.045,0.899,0.147,-0.150,-44.790,-2.996,-11.500
1747651749.55,0.130,-0.041,-0.030,0.898,0.025,-0.181,-44.272,-3.008,-11.592
1747651749.56,0.197,0.094,-0.025,0.923,-0.142,-0.261,-43.747,-3.136,-11.630
1747651749.57,0.166,0.160,0.012,0.988,-0.248,-0.352,-43.193,-3.386,-11.828
1747651749.58,0.066,0.143,0.031,1.008,-0.294,-0.423,-42.608,-3.714,-12.002
1747651749.59,-0.036,0.076,0.029,0.994,-0.329,-0.453,-42.020,-4.087,-12.290
1747651749.60,-0.100,-0.009,0.007,0.962,-0.308,-0.438,-41.443,-4.463,-12.512
1747651749.61,-0.085,-0.082,-0.019,0.923,-0.200,-0.435,-40.888,-4.789,-12.784
1747651749.62,-0.010,-0.076,-0.007,0.868,-0.108,-0.426,-40.356,-5.048,-13.005
1747651749.63,0.077,-0.036,-0.002,0.832,-0.098,-0.343,-39.854,-5.249,-13.232
1747651749.64,0.136,0.026,-0.013,0.832,-0.174,-0.298,-39.361,-5.444,-13.369
1747651749.65,0.184,0.086,-0.017,0.832,-0.284,-0.249,-38.873,-5.665,-13.510
1747651749.66,0.223,0.128,-0.014,0.843,-0.326,-0.192,-38.385,-5.900,-13.576
1747651749.67,0.236,0.128,-0.005,0.876,-0.441,-0.179,-37.884,-6.157,-13.642
1747651749.68,0.200,0.093,-0.034,0.879,-0.445,-0.160,-37.375,-6.446,-13.676
1747651749.69,0.119,0.037,-0.029,0.861,-0.467,-0.165,-36.871,-6.731,-13.719
1747651749.70,0.013,-0.033,-0.015,0.844,-0.483,-0.184,-36.375,-7.036,-13.789
1747651749.71,-0.071,-0.103,0.002,0.809,-0.382,-0.179,-35.894,-7.318,-13.842
1747651749.72,-0.071,-0.133,0.019,0.807,-0.264,-0.184,-35.425,-7.529,-13.902
1747651749.73,-0.060,-0.108,0.014,0.809,-0.214,-0.179,-34.953,-7.694,-13.953
1747651749.74,-0.049,-0.031,-0.008,0.780,-0.238,-0.151,-34.490,-7.842,-13.976
1747651749.75,-0.001,0.060,-0.031,0.751,-0.321,-0.107,-34.047,-8.010,-13.991
1747651749.76,0.059,0.126,-0.049,0.719,-0.374,-0.085,-33.623,-8.205,-13.977
1747651749.77,0.088,0.151,0.003,0.761,-0.448,-0.110,-33.198,-8.435,-13.967
1747651749.78,0.059,0.134,0.034,0.783,-0.450,-0.171,-32.748,-8.701,-13.982
1747651749.79,0.012,0.088,0.052,0.744,-0.490,-0.240,-32.298,-8.997,-14.040
1747651749.80,-0.041,0.006,0.005,0.733,-0.525,-0.304,-31.857,-9.346,-14.167
1747651749.81,-0.122,-0.078,-0.005,0.740,-0.373,-0.349,-31.411,-9.680,-14.304
1747651749.82,-0.159,-0.127,0.029,0.728,-0.179,-0.346,-30.962,-9.910,-14.454
1747651749.83,-0.172,-0.139,0.029,0.705,-0.084,-0.341,-30.525,-10.055,-14.598
1747651749.84,-0.169,-0.082,0.014,0.675,-0.080,-0.312,-30.104,-10.166,-14.738
1747651749.85,-0.064,0.036,0.023,0.678,-0.144,-0.256,-29.697,-10.280,-14.844
1747651749.86,0.118,0.144,0.046,0.679,-0.245,-0.228,-29.290,-10.428,-14.930
1747651749.87,0.258,0.201,0.018,0.670,-0.337,-0.234,-28.888,-10.626,-14.998
1747651749.88,0.287,0.173,-0.020,0.723,-0.472,-0.263,-28.472,-10.892,-15.096
1747651749.89,0.177,0.105,-0.037,0.770,-0.570,-0.261,-28.025,-11.230,-15.172
1747651749.90,0.064,0.013,-0.029,0.803,-0.520,-0.254,-27.553,-11.575,-15.249
1747651749.91,0.020,-0.072,-0.016,0.805,-0.392,-0.265,-27.072,-11.862,-15.307
1747651749.92,-0.015,-0.130,-0.027,0.783,-0.273,-0.264,-26.597,-12.079,-15.419
1747651749.93,-0.049,-0.167,-0.053,0.763,-0.169,-0.233,-26.138,-12.232,-15.506
1747651749.94,-0.066,-0.161,-0.024,0.740,-0.059,-0.202,-25.692,-12.308,-15.538
1747651749.95,-0.050,-0.109,0.016,0.741,-0.029,-0.188,-25.255,-12.339,-15.604
1747651749.96,-0.053,-0.044,0.026,0.739,-0.045,-0.189,-24.820,-12.367,-15.619
1747651749.97,-0.060,0.007,0.018,0.756,-0.048,-0.205,-24.379,-12.402,-15.706
1747651749.98,-0.058,0.046,0.017,0.743,-0.072,-0.237,-23.933,-12.448,-15.738
1747651749.99,-0.055,0.050,0.012,0.716,-0.118,-0.291,-23.494,-12.530,-15.867
1747651750.00,-0.049,0.033,0.010,0.727,-0.128,-0.356,-23.053,-12.642,-15.966
1747651750.01,-0.019,0.034,0.050,0.744,-0.132,-0.392,-22.595,-12.764,-16.166
1747651750.02,0.005,0.051,0.056,0.729,-0.186,-0.367,-22.137,-12.902,-16.292
1747651750.03,0.021,0.065,0.003,0.719,-0.230,-0.326,-21.687,-13.064,-16.494
1747651750.04,0.043,0.083,-0.054,0.673,-0.195,-0.233,-21.262,-13.213,-16.565
1747651750.05,0.061,0.100,-0.105,0.650,-0.191,-0.138,-20.872,-13.327,-16.685
1747651750.06,0.054,0.122,-0.109,0.640,-0.184,-0.092,-20.498,-13.428,-16.659
1747651750.07,0.024,0.154,-0.066,0.627,-0.159,-0.106,-20.135,-13.511,-16.723
1747651750.08,0.014,0.138,-0.023,0.650,-0.194,-0.182,-19.763,-13.608,-16.716
1747651750.09,-0.009,0.065,0.027,0.648,-0.231,-0.268,-19.370,-13.742,-16.858
1747651750.10,-0.021,-0.020,0.058,0.636,-0.239,-0.379,-18.970,-13.909,-16.955
1747651750.11,-0.041,-0.127,0.045,0.616,-0.189,-0.461,-18.565,-14.084,-17.221
1747651750.12,-0.060,-0.224,0.022,0.595,-0.120,-0.460,-18.165,-14.227,-17.404
1747651750.13,-0.036,-0.243,-0.059,0.541,-0.196,-0.393,-17.790,-14.363,-17.696
1747651750.14,-0.013,-0.197,-0.161,0.508,-0.308,-0.295,-17.451,-14.546,-17.818
1747651750.15,0.023,-0.115,-0.200,0.498,-0.272,-0.212,-17.137,-14.738,-18.013
1747651750.16,0.075,-0.017,-0.156,0.484,-0.187,-0.197,-16.837,-14.878,-18.054
1747651750.17,0.090,0.080,-0.059,0.503,-0.155,-0.191,-16.538,-14.986,-18.218
1747651750.18,0.071,0.135,0.040,0.559,-0.082,-0.170,-16.217,-15.062,-18.239
1747651750.19,0.043,0.134,0.121,0.566,-0.002,-0.137,-15.883,-15.084,-18.363
1747651750.20,0.002,0.059,0.088,0.588,0.066,-0.093,-15.548,-15.061,-18.340
1747651750.21,-0.022,-0.026,0.006,0.562,0.124,-0.060,-15.218,-14.992,-18.418
1747651750.22,-0.003,-0.044,-0.068,0.521,0.112,-0.049,-14.912,-14.910,-18.365
1747651750.23,0.023,-0.003,-0.107,0.474,0.022,-0.047,-14.630,-14.857,-18.440
1747651750.24,0.036,0.043,-0.118,0.432,-0.100,-0.013,-14.375,-14.867,-18.390
1747651750.25,0.074,0.031,-0.104,0.406,-0.213,0.020,-14.145,-14.941,-18.439
1747651750.26,0.108,-0.009,-0.059,0.401,-0.276,0.014,-13.926,-15.066,-18.367
1747651750.27,0.083,-0.016,-0.004,0.438,-0.265,-0.012,-13.696,-15.206,-18.440
1747651750.28,0.008,-0.012,0.026,0.482,-0.207,-0.010,-13.439,-15.327,-18.376
1747651750.29,-0.074,-0.031,0.033,0.480,-0.059,-0.012,-13.174,-15.391,-18.447
1747651750.30,-0.119,-0.036,0.024,0.496,0.152,-0.042,-12.900,-15.349,-18.386
1747651750.31,-0.121,-0.031,0.025,0.479,0.235,-0.055,-12.622,-15.222,-18.473
1747651750.32,-0.136,-0.039,-0.017,0.447,0.173,-0.024,-12.360,-15.094,-18.425
1747651750.33,-0.116,-0.052,-0.089,0.385,0.125,0.004,-12.129,-14.997,-18.514
1747651750.34,-0.024,-0.043,-0.115,0.320,0.054,-0.013,-11.934,-14.932,-18.462
1747651750.35,0.079,-0.000,-0.101,0.303,-0.075,-0.034,-11.760,-14.929,-18.558
1747651750.36,0.119,0.032,-0.084,0.285,-0.200,-0.025,-11.592,-15.005,-18.531
1747651750.37,0.083,0.024,-0.066,0.256,-0.233,-0.022,-11.440,-15.126,-18.635
1747651750.38,0.005,0.002,-0.033,0.275,-0.167,-0.026,-11.291,-15.238,-18.608
1747651750.39,-0.063,-0.011,0.010,0.289,-0.022,-0.033,-11.130,-15.288,-18.719
1747651750.40,-0.108,-0.012,0.020,0.285,0.095,-0.023,-10.968,-15.259,-18.691
1747651750.41,-0.109,-0.014,-0.020,0.256,0.148,-0.016,-10.814,-15.181,-18.793
1747651750.42,-0.071,-0.011,-0.047,0.196,0.139,-0.008,-10.688,-15.092,-18.765
1747651750.43,-0.018,-0.003,-0.064,0.164,0.090,-0.003,-10.588,-15.020,-18.867
1747651750.44,0.023,0.001,-0.054,0.144,-0.017,0.010,-10.504,-14.993,-18.842
1747651750.45,0.052,0.009,-0.067,0.116,-0.132,0.029,-10.435,-15.029,-18.938
1747651750.46,0.089,0.028,-0.071,0.079,-0.230,0.030,-10.387,-15.129,-18.908
1747651750.47,0.098,0.045,-0.068,0.103,-0.225,0.019,-10.342,-15.258,-19.014
1747651750.48,0.057,0.057,-0.045,0.122,-0.154,0.014,-10.282,-15.363,-18.987
1747651750.49,-0.025,0.053,-0.021,0.143,-0.047,0.021,-10.212,-15.418,-19.088
1747651750.50,-0.093,0.027,-0.007,0.138,0.091,0.020,-10.136,-15.398,-19.055
1747651750.51,-0.091,-0.002,-0.015,0.110,0.138,0.022,-10.070,-15.322,-19.141
1747651750.52,-0.048,-0.018,-0.027,0.087,0.118,0.028,-10.020,-15.242,-19.112
1747651750.53,0.004,-0.017,-0.016,0.085,0.079,0.026,-9.978,-15.176,-19.185
1747651750.54,0.053,-0.006,-0.028,0.067,-0.019,0.017,-9.939,-15.150,-19.160
1747651750.55,0.071,0.015,-0.055,0.056,-0.106,0.010,-9.911,-15.183,-19.241
1747651750.56,0.063,0.047,-0.057,0.063,-0.096,0.015,-9.882,-15.239,-19.226
1747651750.57,0.041,0.069,-0.025,0.046,-0.078,0.037,-9.856,-15.285,-19.318
1747651750.58,0.006,0.054,-0.022,0.025,-0.049,0.085,-9.848,-15.319,-19.279
1747651750.59,-0.004,0.021,-0.031,0.004,-0.004,0.115,-9.855,-15.329,-19.326
1747651750.60,-0.004,0.014,-0.025,-0.030,0.029,0.118,-9.878,-15.311,-19.261
1747651750.61,-0.001,0.016,-0.036,-0.045,0.049,0.096,-9.914,-15.279,-19.332
1747651750.62,0.014,0.003,-0.047,-0.068,0.040,0.067,-9.956,-15.242,-19.294
1747651750.63,0.031,0.000,-0.062,-0.110,-0.001,0.065,-10.015,-15.221,-19.383
1747651750.64,0.033,0.003,-0.086,-0.161,-0.065,0.089,-10.103,-15.231,-19.361
1747651750.65,0.012,-0.013,-0.099,-0.206,-0.133,0.141,-10.227,-15.277,-19.430
1747651750.66,0.008,-0.031,-0.125,-0.241,-0.158,0.182,-10.379,-15.350,-19.375
1747651750.67,0.036,-0.018,-0.142,-0.257,-0.186,0.168,-10.542,-15.438,-19.417
1747651750.68,0.054,-0.006,-0.125,-0.304,-0.168,0.121,-10.719,-15.533,-19.379
1747651750.69,0.025,-0.036,-0.083,-0.333,-0.083,0.087,-10.910,-15.606,-19.455
1747651750.70,-0.033,-0.078,-0.063,-0.386,-0.001,0.103,-11.119,-15.629,-19.459
1747651750.71,-0.086,-0.110,-0.111,-0.440,0.084,0.171,-11.367,-15.603,-19.524
1747651750.72,-0.089,-0.092,-0.176,-0.484,0.138,0.256,-11.651,-15.525,-19.477
1747651750.73,-0.025,0.004,-0.202,-0.562,0.092,0.320,-11.980,-15.440,-19.472
1747651750.74,0.032,0.115,-0.222,-0.641,0.032,0.364,-12.364,-15.387,-19.373
1747651750.75,0.048,0.152,-0.187,-0.707,-0.019,0.373,-12.792,-15.360,-19.326
1747651750.76,0.021,0.110,-0.139,-0.759,-0.043,0.352,-13.252,-15.360,-19.236
1747651750.77,-0.022,0.015,-0.099,-0.822,0.010,0.322,-13.738,-15.355,-19.211
1747651750.78,-0.030,-0.066,-0.103,-0.876,0.041,0.308,-14.254,-15.330,-19.166
1747651750.79,-0.045,-0.100,-0.135,-0.928,0.061,0.341,-14.799,-15.290,-19.137
1747651750.80,-0.055,-0.088,-0.125,-0.978,0.044,0.402,-15.380,-15.244,-19.074
1747651750.81,-0.068,-0.047,-0.129,-1.019,0.080,0.432,-15.994,-15.187,-18.982
1747651750.82,-0.051,-0.001,-0.120,-1.057,0.121,0.425,-16.630,-15.105,-18.896
1747651750.83,-0.016,0.027,-0.097,-1.104,0.117,0.418,-17.288,-15.014,-18.796
1747651750.84,0.016,0.021,-0.089,-1.144,0.093,0.427,-17.970,-14.934,-18.726
1747651750.85,0.042,-0.005,-0.105,-1.186,0.076,0.452,-18.677,-14.861,-18.623
1747651750.86,0.047,-0.036,-0.116,-1.229,0.064,0.480,-19.412,-14.793,-18.538
1747651750.87,0.027,-0.054,-0.112,-1.263,0.080,0.493,-20.171,-14.722,-18.389
1747651750.88,-0.007,-0.054,-0.082,-1.285,0.120,0.477,-20.946,-14.633,-18.298
1747651750.89,-0.041,-0.049,-0.033,-1.304,0.158,0.458,-21.729,-14.526,-18.140
1747651750.90,-0.072,-0.055,-0.010,-1.355,0.200,0.441,-22.528,-14.400,-18.078
1747651750.91,-0.086,-0.077,-0.013,-1.377,0.224,0.443,-23.348,-14.257,-17.928
1747651750.92,-0.063,-0.102,-0.021,-1.391,0.252,0.440,-24.175,-14.098,-17.792
1747651750.93,-0.014,-0.106,-0.022,-1.410,0.239,0.442,-25.011,-13.931,-17.737
1747651750.94,0.032,-0.096,-0.014,-1.423,0.190,0.464,-25.859,-13.782,-17.570
1747651750.95,0.045,-0.084,-0.013,-1.430,0.190,0.478,-26.714,-13.640,-17.492
1747651750.96,0.025,-0.077,-0.023,-1.415,0.210,0.465,-27.569,-13.491,-17.309
1747651750.97,-0.037,-0.081,-0.024,-1.381,0.285,0.425,-28.403,-13.319,-17.237
1747651750.98,-0.095,-0.093,0.002,-1.397,0.389,0.384,-29.227,-13.102,-17.067
1747651750.99,-0.129,-0.112,-0.014,-1.427,0.426,0.349,-30.061,-12.854,-17.042
1747651751.00,-0.147,-0.133,-0.008,-1.423,0.430,0.344,-30.898,-12.603,-16.901
1747651751.01,-0.120,-0.147,0.010,-1.456,0.442,0.365,-31.743,-12.340,-16.877
1747651751.02,-0.047,-0.130,0.030,-1.495,0.424,0.384,-32.613,-12.072,-16.700
1747651751.03,0.024,-0.088,0.046,-1.501,0.366,0.384,-33.496,-11.820,-16.653
1747651751.04,0.059,-0.039,0.010,-1.502,0.303,0.357,-34.379,-11.608,-16.455
1747651751.05,0.054,-0.008,-0.036,-1.497,0.227,0.347,-35.258,-11.439,-16.426
1747651751.06,0.040,-0.015,-0.079,-1.514,0.150,0.355,-36.140,-11.314,-16.227
1747651751.07,0.020,-0.055,-0.097,-1.532,0.142,0.375,-37.035,-11.209,-16.184
1747651751.08,0.010,-0.105,-0.076,-1.549,0.253,0.406,-37.941,-11.062,-15.921
1747651751.09,0.028,-0.143,-0.037,-1.571,0.381,0.433,-38.861,-10.826,-15.836
1747651751.10,0.046,-0.154,-0.015,-1.586,0.453,0.473,-39.795,-10.517,-15.504
1747651751.11,0.057,-0.134,0.019,-1.572,0.489,0.524,-40.733,-10.146,-15.350
1747651751.12,0.077,-0.088,0.013,-1.586,0.416,0.584,-41.674,-9.746,-14.920
1747651751.13,0.087,-0.028,-0.024,-1.603,0.272,0.670,-42.630,-9.379,-14.649
1747651751.14,0.087,0.023,-0.038,-1.620,0.199,0.739,-43.605,-9.003,-14.070
1747651751.15,0.118,0.048,-0.031,-1.630,0.160,0.746,-44.586,-8.641,-13.684
1747651751.16,0.117,0.061,-0.028,-1.658,0.218,0.689,-45.576,-8.265,-13.039
1747651751.17,0.128,0.060,-0.003,-1.665,0.189,0.640,-46.568,-7.895,-12.691
1747651751.18,0.090,0.042,0.021,-1.679,0.169,0.570,-47.561,-7.562,-12.073
1747651751.19,0.019,0.025,0.064,-1.684,0.170,0.473,-48.552,-7.273,-11.816
1747651751.20,-0.032,-0.006,0.054,-1.703,0.109,0.402,-49.542,-7.049,-11.448
1747651751.21,-0.078,-0.043,0.015,-1.727,0.071,0.387,-50.543,-6.875,-11.287
1747651751.22,-0.105,-0.072,0.025,-1.723,0.079,0.389,-51.548,-6.707,-11.122
1747651751.23,-0.109,-0.079,0.032,-1.727,0.129,0.398,-52.553,-6.507,-10.943
1747651751.24,-0.094,-0.068,0.046,-1.709,0.180,0.405,-53.555,-6.259,-10.745
1747651751.25,-0.047,-0.039,0.020,-1.704,0.230,0.408,-54.548,-5.964,-10.527
1747651751.26,0.006,-0.002,0.024,-1.728,0.221,0.401,-55.548,-5.648,-10.299
1747651751.27,0.029,0.041,0.034,-1.721,0.205,0.383,-56.551,-5.335,-10.067
1747651751.28,0.030,0.064,0.023,-1.739,0.228,0.328,-57.553,-5.037,-9.858
1747651751.29,0.030,0.061,0.044,-1.747,0.282,0.255,-58.560,-4.762,-9.704
1747651751.30,0.026,0.026,0.067,-1.741,0.280,0.204,-59.564,-4.518,-9.609
1747651751.31,0.019,-0.043,0.041,-1.725,0.254,0.206,-60.560,-4.298,-9.531
1747651751.32,0.031,-0.112,0.001,-1.715,0.230,0.236,-61.547,-4.059,-9.418
1747651751.33,0.049,-0.141,-0.011,-1.713,0.176,0.276,-62.533,-3.796,-9.252
1747651751.34,0.055,-0.135,-0.038,-1.726,0.150,0.310,-63.524,-3.495,-9.018
1747651751.35,0.070,-0.094,-0.052,-1.753,0.157,0.306,-64.528,-3.163,-8.745
1747651751.36,0.072,-0.036,-0.035,-1.712,0.209,0.268,-65.526,-2.817,-8.478
1747651751.37,0.065,0.013,-0.007,-1.680,0.239,0.220,-66.500,-2.473,-8.242
1747651751.38,0.043,0.038,0.011,-1.651,0.267,0.176,-67.456,-2.153,-8.051
1747651751.39,0.010,0.015,-0.008,-1.645,0.343,0.157,-68.398,-1.831,-7.888
1747651751.40,-0.006,-0.047,-0.001,-1.655,0.463,0.185,-69.345,-1.421,-7.697
1747651751.41,-0.003,-0.118,0.039,-1.623,0.477,0.259,-70.284,-0.860,-7.389
1747651751.42,0.005,-0.162,0.009,-1.581,0.468,0.370,-71.199,-0.097,-6.867
1747651751.43,0.030,-0.145,-0.009,-1.584,0.417,0.456,-72.100,0.894,-6.091
1747651751.44,0.053,-0.084,-0.016,-1.592,0.400,0.486,-73.000,2.060,-5.112
1747651751.45,0.081,-0.025,-0.028,-1.583,0.437,0.433,-73.894,3.332,-4.032
1747651751.46,0.099,0.017,-0.012,-1.560,0.473,0.312,-74.775,4.572,-3.014
1747651751.47,0.079,0.036,-0.016,-1.481,0.462,0.190,-75.630,5.671,-2.153
1747651751.48,0.044,0.037,-0.026,-1.325,0.451,0.089,-76.420,6.590,-1.474
1747651751.49,-0.013,0.032,-0.034,-1.222,0.459,0.041,-77.132,7.371,-0.937
1747651751.50,-0.071,0.015,0.016,-1.306,0.502,0.044,-77.838,8.179,-0.390
1747651751.51,-0.121,-0.007,0.124,-1.450,0.465,0.095,-78.613,9.219,0.384
1747651751.52,-0.151,-0.047,0.149,-1.466,0.351,0.131,-79.426,10.528,1.481
1747651751.53,-0.142,-0.089,0.065,-1.408,0.309,0.175,-80.213,12.072,2.862
1747651751.54,-0.059,-0.093,0.009,-1.398,0.367,0.229,-80.966,14.032,4.655
1747651751.55,0.034,-0.082,0.034,-1.387,0.424,0.228,-81.700,16.476,6.897
1747651751.56,0.058,-0.068,0.016,-1.315,0.410,0.170,-82.402,19.194,9.397
1747651751.57,0.025,-0.041,-0.044,-1.160,0.309,0.088,-83.040,21.891,11.909
1747651751.58,-0.038,0.004,-0.104,-0.951,0.313,0.002,-83.584,24.270,14.132
1747651751.59,-0.106,0.056,-0.093,-0.808,0.452,-0.040,-84.039,26.354,16.010
1747651751.60,-0.156,0.096,-0.017,-0.822,0.501,-0.054,-84.462,28.501,17.890
1747651751.61,-0.223,0.080,0.042,-0.868,0.518,-0.063,-84.898,31.063,20.174
1747651751.62,-0.256,-0.001,0.049,-0.850,0.655,-0.051,-85.331,34.150,22.941
1747651751.63,-0.178,-0.080,0.079,-0.831,0.833,0.018,-85.725,38.064,26.439
1747651751.64,-0.031,-0.114,0.088,-0.814,0.817,0.123,-86.054,43.309,31.215
1747651751.65,0.085,-0.104,0.024,-0.771,0.703,0.112,-86.316,49.360,36.840
1747651751.66,0.131,-0.070,-0.023,-0.761,0.560,0.072,-86.540,55.783,42.914
1747651751.67,0.164,-0.002,-0.023,-0.762,0.450,0.034,-86.737,62.687,49.546
1747651751.68,0.174,0.073,-0.026,-0.679,0.465,-0.027,-86.902,69.807,56.418
1747651751.69,0.149,0.123,-0.029,-0.518,0.514,-0.083,-87.035,76.107,62.445
1747651751.70,0.090,0.131,-0.013,-0.402,0.478,-0.093,-87.137,81.182,67.240
1747651751.71,-0.008,0.090,0.025,-0.366,0.376,-0.105,-87.218,85.689,71.508
1747651751.72,-0.120,0.014,0.038,-0.321,0.284,-0.125,-87.291,89.943,75.580
1747651751.73,-0.183,-0.054,0.016,-0.240,0.283,-0.132,-87.360,93.615,79.098
1747651751.74,-0.174,-0.086,0.006,-0.130,0.398,-0.117,-87.421,96.259,81.552
1747651751.75,-0.125,-0.070,0.014,-0.050,0.500,-0.093,-87.475,97.767,82.802
1747651751.76,-0.070,-0.027,0.050,-0.039,0.527,-0.050,-87.512,98.753,83.495
1747651751.77,-0.012,0.016,0.098,-0.034,0.529,0.002,-87.524,99.569,84.009
1747651751.78,0.047,0.029,0.142,-0.046,0.515,0.056,-87.503,100.314,84.455
1747651751.79,0.092,0.020,0.137,-0.062,0.448,0.081,-87.458,101.093,84.957
1747651751.80,0.117,0.004,0.068,-0.095,0.370,0.070,-87.406,102.097,85.730
1747651751.81,0.137,-0.009,0.012,-0.131,0.344,0.036,-87.363,103.525,86.958
1747651751.82,0.164,-0.013,0.004,-0.148,0.353,0.004,-87.332,105.355,88.590
1747651751.83,0.182,-0.013,0.010,-0.139,0.295,-0.007,-87.310,107.250,90.298
1747651751.84,0.172,-0.016,0.006,-0.093,0.112,-0.004,-87.293,108.754,91.686
1747651751.85,0.132,-0.012,0.009,0.000,-0.118,-0.013,-87.288,109.315,92.249
1747651751.86,0.072,0.003,0.043,0.063,-0.304,-0.041,-87.310,108.883,91.941
1747651751.87,0.004,0.022,0.088,0.074,-0.410,-0.066,-87.352,108.086,91.350
1747651751.88,-0.062,0.015,0.081,0.079,-0.415,-0.088,-87.407,107.232,90.735
1747651751.89,-0.109,-0.018,0.039,0.063,-0.351,-0.079,-87.466,106.449,90.173
1747651751.90,-0.122,-0.046,0.031,0.033,-0.206,-0.042,-87.508,105.903,89.789
1747651751.91,-0.097,-0.049,0.044,-0.012,-0.024,0.006,-87.519,105.776,89.727
1747651751.92,-0.057,-0.037,0.069,-0.031,0.092,0.040,-87.503,106.001,89.928
1747651751.93,-0.030,-0.009,0.059,-0.029,0.074,0.073,-87.465,106.238,90.114
1747651751.94,-0.024,0.015,0.049,-0.017,-0.027,0.082,-87.418,106.241,90.102
1747651751.95,-0.029,0.029,0.038,-0.026,-0.130,0.078,-87.371,106.160,90.067
1747651751.96,-0.017,0.025,0.038,-0.033,-0.145,0.066,-87.326,106.203,90.191
1747651751.97,0.017,0.010,0.039,-0.035,-0.139,0.042,-87.292,106.354,90.422
1747651751.98,0.045,0.000,0.024,-0.022,-0.146,0.021,-87.273,106.548,90.699
1747651751.99,0.062,-0.007,0.011,0.047,-0.141,0.010,-87.269,106.363,90.595
1747651752.00,0.070,-0.002,0.011,0.122,-0.189,0.020,-87.276,105.315,89.638
1747651752.01,0.048,0.009,0.011,0.174,-0.273,0.033,-87.283,103.436,87.886
1747651752.02,-0.010,0.013,0.012,0.236,-0.354,0.032,-87.290,100.850,85.479
1747651752.03,-0.077,-0.001,0.018,0.295,-0.383,0.033,-87.297,97.430,82.267
1747651752.04,-0.116,-0.011,0.036,0.291,-0.375,0.036,-87.294,93.671,78.722
1747651752.05,-0.126,-0.019,0.049,0.267,-0.305,0.030,-87.279,90.159,75.401
1747651752.06,-0.097,-0.018,0.040,0.264,-0.200,0.023,-87.258,86.923,72.308
1747651752.07,-0.039,0.009,0.034,0.303,-0.092,0.014,-87.232,83.569,69.031
1747651752.08,0.021,0.047,0.054,0.352,-0.099,0.024,-87.192,79.800,65.307
1747651752.09,0.049,0.069,0.089,0.373,-0.217,0.040,-87.130,75.693,61.282
1747651752.10,0.041,0.066,0.108,0.388,-0.357,0.051,-87.043,71.585,57.334
1747651752.11,0.022,0.029,0.108,0.402,-0.459,0.056,-86.934,67.535,53.513
1747651752.12,0.018,-0.015,0.086,0.401,-0.519,0.031,-86.815,63.620,49.873
1747651752.13,0.018,-0.028,0.070,0.412,-0.566,-0.013,-86.700,59.768,46.326
1747651752.14,0.000,-0.024,0.054,0.434,-0.565,-0.049,-86.586,55.776,42.653
1747651752.15,-0.015,-0.027,0.056,0.418,-0.494,-0.035,-86.462,51.967,39.141
1747651752.16,-0.009,-0.029,0.093,0.406,-0.433,-0.022,-86.324,48.696,36.127
1747651752.17,-0.015,-0.013,0.094,0.446,-0.477,-0.025,-86.170,45.604,33.284
1747651752.18,-0.024,0.008,0.051,0.499,-0.575,-0.040,-85.988,42.373,30.347
1747651752.19,-0.005,0.018,0.011,0.540,-0.611,-0.039,-85.777,39.099,27.406
1747651752.20,0.041,0.012,-0.002,0.597,-0.615,-0.045,-85.535,35.902,24.553
1747651752.21,0.073,-0.005,-0.016,0.705,-0.607,-0.059,-85.248,32.674,21.665
1747651752.22,0.072,-0.005,-0.030,0.888,-0.561,-0.076,-84.877,29.235,18.551
1747651752.23,0.053,0.020,-0.003,1.031,-0.500,-0.106,-84.412,25.740,15.345
1747651752.24,-0.005,0.038,0.055,1.077,-0.498,-0.138,-83.887,22.427,12.297
1747651752.25,-0.099,0.037,0.059,1.052,-0.599,-0.159,-83.348,19.453,9.618
1747651752.26,-0.197,0.005,0.018,0.969,-0.605,-0.160,-82.827,16.892,7.391
1747651752.27,-0.223,-0.033,-0.004,0.877,-0.362,-0.143,-82.345,14.863,5.631
1747651752.28,-0.133,-0.072,0.034,0.839,-0.064,-0.111,-81.892,13.379,4.251
1747651752.29,-0.009,-0.083,0.055,0.930,0.055,-0.083,-81.415,12.262,3.115
1747651752.30,0.068,-0.045,0.005,1.047,-0.060,-0.096,-80.872,11.220,2.056
1747651752.31,0.080,-0.006,-0.015,1.211,-0.181,-0.140,-80.253,10.035,0.930
1747651752.32,0.089,0.028,-0.048,1.361,-0.187,-0.157,-79.538,8.772,-0.243
1747651752.33,0.115,0.060,-0.067,1.401,-0.106,-0.180,-78.769,7.607,-1.339
1747651752.34,0.068,0.046,0.013,1.395,0.023,-0.225,-77.988,6.544,-2.404
1747651752.35,-0.033,-0.019,0.083,1.376,0.000,-0.215,-77.218,5.598,-3.383
1747651752.36,-0.130,-0.077,0.058,1.389,-0.050,-0.142,-76.438,4.829,-4.156
1747651752.37,-0.165,-0.069,0.017,1.291,0.033,-0.038,-75.678,4.363,-4.627
1747651752.38,-0.105,-0.025,0.085,1.210,0.154,0.070,-74.968,4.250,-4.801
1747651752.39,-0.010,-0.015,0.087,1.219,0.233,0.127,-74.275,4.383,-4.778
1747651752.40,0.081,-0.040,0.044,1.307,0.243,0.096,-73.555,4.558,-4.740
1747651752.41,0.156,-0.051,0.021,1.439,0.161,0.001,-72.769,4.561,-4.860
1747651752.42,0.185,-0.007,0.021,1.461,0.138,-0.071,-71.942,4.366,-5.148
1747651752.43,0.180,0.037,0.127,1.455,0.244,-0.073,-71.116,4.161,-5.480
1747651752.44,0.120,0.042,0.164,1.422,0.244,-0.065,-70.296,4.023,-5.779
1747651752.45,-0.005,0.050,0.109,1.288,0.226,-0.058,-69.525,3.913,-6.037
1747651752.46,-0.101,0.059,0.100,1.193,0.197,-0.045,-68.822,3.829,-6.257
1747651752.47,-0.111,0.053,0.070,1.137,0.201,0.011,-68.160,3.800,-6.407
1747651752.47,-0.045,0.044,0.087,1.103,0.215,0.036,-67.521,3.858,-6.475
1747651752.49,0.028,0.042,0.085,1.074,0.087,-0.059,-66.900,3.847,-6.589
1747651752.49,0.065,0.040,0.062,1.049,-0.165,-0.236,-66.303,3.540,-6.900
1747651752.50,0.064,0.041,0.022,1.098,-0.299,-0.380,-65.702,2.923,-7.424
1747651752.51,0.037,0.037,-0.001,1.189,-0.278,-0.438,-65.062,2.177,-8.058
1747651752.52,-0.019,0.003,0.008,1.323,-0.108,-0.457,-64.353,1.469,-8.713
1747651752.53,-0.108,-0.033,-0.019,1.347,0.172,-0.443,-63.589,0.925,-9.339
1747651752.54,-0.207,-0.056,-0.007,1.210,0.453,-0.380,-62.861,0.615,-9.888
1747651752.55,-0.278,-0.069,0.029,1.119,0.668,-0.203,-62.202,0.600,-10.271
1747651752.56,-0.243,-0.064,-0.005,1.076,0.726,-0.013,-61.575,0.877,-10.413
1747651752.57,-0.100,-0.023,-0.107,0.996,0.681,0.107,-60.982,1.316,-10.372
1747651752.58,0.129,0.006,-0.111,0.968,0.530,0.107,-60.424,1.757,-10.270
1747651752.59,0.346,-0.020,-0.071,0.987,0.157,-0.001,-59.865,1.986,-10.241
1747651752.60,0.422,-0.068,-0.085,1.054,-0.183,-0.138,-59.287,1.866,-10.361
1747651752.61,0.385,-0.103,-0.078,1.203,-0.331,-0.234,-58.645,1.501,-10.608
1747651752.62,0.268,-0.128,-0.058,1.230,-0.308,-0.303,-57.946,1.048,-10.701
1747651752.63,0.100,-0.137,-0.023,1.130,-0.208,-0.314,-57.273,0.602,-11.054
1747651752.64,-0.059,-0.120,-0.035,1.059,-0.068,-0.237,-56.649,0.278,-11.265
1747651752.65,-0.142,-0.066,-0.124,0.962,-0.044,-0.111,-56.072,0.092,-11.451
1747651752.66,-0.135,-0.000,-0.150,0.881,0.028,0.015,-55.549,0.050,-11.302
1747651752.67,-0.013,0.021,-0.043,0.900,-0.010,0.078,-55.043,0.101,-11.254
1747651752.68,0.092,0.013,0.013,0.961,-0.159,0.056,-54.512,0.110,-11.098
1747651752.69,0.132,-0.005,0.002,1.024,-0.316,-0.002,-53.944,-0.006,-11.071
1747651752.70,0.126,-0.029,-0.028,1.042,-0.421,-0.109,-53.354,-0.259,-10.973
1747651752.71,0.056,-0.058,-0.061,1.047,-0.464,-0.228,-52.757,-0.638,-11.127
1747651752.72,-0.053,-0.076,-0.096,1.105,-0.429,-0.322,-52.142,-1.090,-11.219
1747651752.73,-0.143,-0.078,-0.073,1.114,-0.225,-0.375,-51.500,-1.520,-11.521
1747651752.74,-0.195,-0.066,-0.000,1.029,0.082,-0.333,-50.877,-1.793,-11.665
1747651752.75,-0.197,-0.083,0.046,0.901,0.160,-0.201,-50.325,-1.876,-11.880
1747651752.76,-0.174,-0.094,0.014,0.919,-0.002,-0.014,-49.806,-1.883,-11.816
1747651752.77,-0.095,-0.059,-0.057,0.902,-0.047,0.160,-49.285,-1.830,-11.719
1747651752.78,0.065,-0.026,-0.016,0.888,-0.031,0.154,-48.780,-1.721,-11.421
1747651752.79,0.203,0.005,0.054,0.913,-0.161,0.057,-48.268,-1.683,-11.304
1747651752.80,0.203,0.053,0.043,0.949,-0.393,-0.087,-47.735,-1.834,-11.180
1747651752.81,0.120,0.097,-0.009,0.962,-0.473,-0.217,-47.186,-2.164,-11.281
1747651752.82,0.057,0.096,-0.008,0.963,-0.396,-0.317,-46.631,-2.553,-11.385
1747651752.83,0.023,0.069,0.038,0.989,-0.337,-0.360,-46.065,-2.937,-11.629
1747651752.84,-0.023,0.024,0.070,1.004,-0.242,-0.347,-45.485,-3.282,-11.793
1747651752.85,-0.058,-0.034,0.058,0.968,-0.134,-0.289,-44.911,-3.537,-11.888
1747651752.86,-0.051,-0.084,-0.028,0.907,-0.163,-0.197,-44.370,-3.721,-12.037
1747651752.87,-0.040,-0.106,-0.075,0.878,-0.224,-0.081,-43.856,-3.877,-12.029
1747651752.88,-0.005,-0.061,-0.053,0.850,-0.219,-0.008,-43.363,-3.993,-12.014
1747651752.89,0.060,0.039,0.023,0.862,-0.234,-0.014,-42.875,-4.093,-11.906
1747651752.90,0.087,0.138,0.053,0.877,-0.287,-0.063,-42.377,-4.225,-11.885
1747651752.91,0.078,0.184,0.033,0.880,-0.401,-0.125,-41.874,-4.434,-11.827
1747651752.92,0.056,0.159,0.025,0.893,-0.410,-0.193,-41.362,-4.717,-11.893
1747651752.93,0.065,0.120,0.073,0.925,-0.304,-0.272,-40.834,-4.997,-11.958
1747651752.94,0.091,0.068,0.100,0.954,-0.334,-0.317,-40.283,-5.277,-12.118
1747651752.95,0.081,-0.017,0.010,0.972,-0.413,-0.300,-39.718,-5.596,-12.231
1747651752.96,0.063,-0.081,-0.054,0.941,-0.438,-0.238,-39.158,-5.923,-12.360
1747651752.97,0.074,-0.112,-0.071,0.918,-0.404,-0.161,-38.620,-6.210,-12.395
1747651752.98,0.081,-0.114,-0.028,0.924,-0.370,-0.118,-38.088,-6.447,-12.420
1747651752.99,0.048,-0.078,0.010,0.901,-0.346,-0.104,-37.563,-6.655,-12.404
1747651753.00,0.005,-0.020,0.016,0.888,-0.372,-0.116,-37.049,-6.860,-12.406
1747651753.01,-0.032,0.022,0.033,0.901,-0.374,-0.152,-36.531,-7.089,-12.414
1747651753.02,-0.034,0.053,0.029,0.906,-0.361,-0.187,-36.007,-7.320,-12.452
1747651753.03,-0.002,0.055,0.013,0.910,-0.392,-0.217,-35.479,-7.569,-12.523
1747651753.04,-0.002,0.058,0.015,0.902,-0.396,-0.232,-34.948,-7.835,-12.593
1747651753.05,-0.012,0.069,-0.021,0.854,-0.432,-0.256,-34.432,-8.116,-12.685
1747651753.06,-0.015,0.079,-0.053,0.869,-0.484,-0.247,-33.927,-8.431,-12.775
1747651753.07,-0.018,0.071,-0.021,0.876,-0.384,-0.205,-33.413,-8.718,-12.843
1747651753.08,0.003,0.048,0.021,0.889,-0.264,-0.214,-32.899,-8.924,-12.890
1747651753.09,-0.001,0.018,0.054,0.888,-0.251,-0.258,-32.373,-9.104,-12.966
1747651753.10,-0.030,-0.024,0.045,0.919,-0.290,-0.285,-31.841,-9.301,-13.049
1747651753.11,-0.040,-0.064,0.020,0.935,-0.321,-0.333,-31.287,-9.533,-13.176
1747651753.12,-0.072,-0.076,0.031,0.886,-0.255,-0.327,-30.741,-9.761,-13.294
1747651753.13,-0.042,-0.062,0.035,0.842,-0.192,-0.314,-30.226,-9.941,-13.458
1747651753.14,0.004,0.015,0.041,0.827,-0.169,-0.302,-29.726,-10.097,-13.563
1747651753.15,0.022,0.128,0.070,0.813,-0.169,-0.258,-29.235,-10.235,-13.710
1747651753.16,0.020,0.210,0.052,0.789,-0.187,-0.231,-28.760,-10.366,-13.773
1747651753.17,-0.004,0.223,0.013,0.784,-0.246,-0.228,-28.297,-10.515,-13.883
1747651753.18,-0.030,0.168,-0.023,0.776,-0.271,-0.245,-27.833,-10.692,-13.939
1747651753.19,-0.014,0.067,-0.048,0.762,-0.300,-0.314,-27.371,-10.889,-14.078
1747651753.20,0.010,-0.031,-0.051,0.817,-0.309,-0.388,-26.891,-11.123,-14.204
1747651753.21,0.030,-0.107,-0.012,0.823,-0.291,-0.454,-26.383,-11.368,-14.448
1747651753.22,0.037,-0.130,0.035,0.805,-0.284,-0.468,-25.875,-11.614,-14.634
1747651753.23,0.030,-0.119,0.027,0.787,-0.264,-0.437,-25.377,-11.848,-14.900
1747651753.24,0.044,-0.070,0.024,0.794,-0.297,-0.361,-24.891,-12.068,-15.046
1747651753.25,0.071,0.022,0.059,0.814,-0.345,-0.259,-24.402,-12.286,-15.229
1747651753.26,0.074,0.116,0.043,0.795,-0.314,-0.187,-23.926,-12.491,-15.257
1747651753.27,0.035,0.149,-0.034,0.816,-0.170,-0.131,-23.458,-12.624,-15.345
1747651753.28,0.000,0.091,-0.094,0.810,-0.127,-0.117,-22.988,-12.691,-15.308
1747651753.29,-0.063,0.004,-0.150,0.770,-0.087,-0.149,-22.531,-12.742,-15.381
1747651753.30,-0.097,-0.075,-0.106,0.756,-0.008,-0.211,-22.084,-12.772,-15.387
1747651753.31,-0.081,-0.111,-0.013,0.741,0.076,-0.261,-21.636,-12.768,-15.523
1747651753.32,-0.036,-0.126,0.025,0.687,0.071,-0.278,-21.202,-12.745,-15.590
1747651753.33,-0.008,-0.131,0.001,0.620,-0.026,-0.246,-20.806,-12.757,-15.775
1747651753.34,-0.009,-0.106,-0.049,0.583,-0.105,-0.203,-20.442,-12.814,-15.827
1747651753.35,0.027,-0.045,-0.132,0.555,-0.163,-0.155,-20.102,-12.902,-15.960
1747651753.36,0.110,0.022,-0.188,0.495,-0.230,-0.095,-19.792,-13.013,-15.962
1747651753.37,0.180,0.091,-0.202,0.490,-0.340,-0.033,-19.513,-13.166,-16.045
1747651753.38,0.184,0.118,-0.166,0.505,-0.360,0.014,-19.234,-13.348,-15.981
1747651753.39,0.136,0.078,-0.067,0.520,-0.301,0.048,-18.955,-13.509,-15.999
1747651753.40,0.103,0.042,0.027,0.562,-0.193,0.060,-18.662,-13.616,-15.891
1747651753.41,0.054,0.069,0.122,0.571,-0.080,0.057,-18.353,-13.657,-15.875
1747651753.42,-0.045,0.110,0.146,0.535,0.050,0.036,-18.052,-13.632,-15.769
1747651753.43,-0.142,0.073,0.090,0.530,0.170,0.017,-17.760,-13.539,-15.791
1747651753.44,-0.194,-0.027,-0.015,0.500,0.219,-0.007,-17.472,-13.404,-15.715
1747651753.45,-0.185,-0.085,-0.134,0.408,0.197,-0.064,-17.216,-13.268,-15.777
1747651753.46,-0.112,-0.057,-0.159,0.341,0.071,-0.138,-16.994,-13.191,-15.785
1747651753.47,-0.025,0.001,-0.119,0.296,-0.095,-0.173,-16.798,-13.212,-15.935
1747651753.48,0.036,0.024,-0.080,0.273,-0.243,-0.170,-16.618,-13.328,-15.996
1747651753.49,0.027,0.009,-0.038,0.290,-0.277,-0.171,-16.440,-13.499,-16.176
1747651753.50,-0.010,-0.006,0.003,0.289,-0.185,-0.174,-16.255,-13.650,-16.234
1747651753.51,-0.041,0.008,0.014,0.259,-0.085,-0.174,-16.081,-13.745,-16.405
1747651753.52,-0.081,0.013,-0.018,0.261,0.049,-0.144,-15.916,-13.773,-16.462
1747651753.53,-0.059,0.009,-0.044,0.261,0.148,-0.075,-15.756,-13.720,-16.603
1747651753.54,0.039,0.019,-0.069,0.255,0.119,0.001,-15.607,-13.635,-16.588
1747651753.55,0.160,0.054,-0.109,0.223,-0.002,0.046,-15.477,-13.589,-16.660
1747651753.56,0.234,0.087,-0.123,0.208,-0.137,0.072,-15.365,-13.611,-16.596
1747651753.57,0.209,0.071,-0.117,0.193,-0.210,0.088,-15.266,-13.693,-16.640
1747651753.58,0.128,0.015,-0.089,0.174,-0.217,0.091,-15.176,-13.797,-16.562
1747651753.59,0.055,-0.031,-0.035,0.170,-0.172,0.068,-15.093,-13.891,-16.573
1747651753.60,0.003,-0.062,0.002,0.200,-0.128,0.044,-15.000,-13.962,-16.515
1747651753.61,-0.026,-0.081,0.019,0.227,-0.090,0.027,-14.884,-14.010,-16.578
1747651753.62,-0.048,-0.054,0.039,0.226,-0.089,0.055,-14.764,-14.047,-16.522
1747651753.63,-0.060,0.006,0.011,0.213,-0.073,0.075,-14.651,-14.076,-16.562
1747651753.64,-0.059,0.044,-0.016,0.193,-0.041,0.061,-14.548,-14.092,-16.493
1747651753.65,-0.060,0.034,-0.005,0.185,-0.026,0.021,-14.450,-14.098,-16.543
1747651753.66,-0.076,0.008,0.011,0.188,-0.032,-0.013,-14.347,-14.106,-16.514
1747651753.67,-0.083,-0.026,0.004,0.177,-0.041,-0.048,-14.241,-14.124,-16.592
1747651753.68,-0.058,-0.061,-0.022,0.158,-0.043,-0.091,-14.139,-14.153,-16.608
1747651753.69,-0.006,-0.078,-0.045,0.124,-0.030,-0.137,-14.044,-14.185,-16.737
1747651753.70,0.018,-0.051,-0.027,0.121,-0.019,-0.149,-13.956,-14.214,-16.802
1747651753.71,-0.013,-0.016,0.017,0.128,0.028,-0.129,-13.867,-14.229,-16.951
1747651753.72,-0.039,0.004,0.034,0.139,0.053,-0.090,-13.781,-14.217,-16.995
1747651753.73,-0.015,0.031,0.014,0.135,0.077,-0.070,-13.696,-14.188,-17.097
1747651753.74,0.029,0.067,-0.019,0.105,0.023,-0.054,-13.625,-14.169,-17.118
1747651753.75,0.041,0.068,-0.082,0.079,-0.047,-0.037,-13.565,-14.188,-17.222
1747651753.76,0.013,0.031,-0.102,0.050,-0.039,-0.024,-13.519,-14.221,-17.232
1747651753.77,-0.006,-0.009,-0.077,0.037,0.005,-0.024,-13.481,-14.230,-17.318
1747651753.78,0.012,-0.032,-0.045,0.027,-0.016,-0.034,-13.453,-14.232,-17.330
1747651753.79,0.041,-0.024,-0.035,0.037,-0.029,-0.035,-13.430,-14.251,-17.428
1747651753.80,0.079,0.004,-0.027,0.039,-0.024,-0.029,-13.405,-14.275,-17.442
1747651753.81,0.076,0.036,-0.041,0.001,-0.054,0.003,-13.397,-14.299,-17.517
1747651753.82,0.027,0.056,-0.078,-0.030,-0.067,0.053,-13.419,-14.329,-17.579
1747651753.83,-0.007,0.043,-0.096,-0.056,-0.030,0.103,-13.461,-14.343,-17.538
1747651753.84,0.001,0.027,-0.095,-0.079,-0.020,0.123,-13.516,-14.339,-17.562
1747651753.85,0.016,0.020,-0.095,-0.117,-0.058,0.126,-13.586,-14.347,-17.505
1747651753.86,0.034,-0.008,-0.100,-0.150,-0.062,0.107,-13.672,-14.371,-17.543
1747651753.87,0.043,-0.036,-0.085,-0.189,-0.034,0.074,-13.775,-14.388,-17.515
1747651753.88,0.017,-0.047,-0.070,-0.235,-0.043,0.068,-13.902,-14.404,-17.565
1747651753.89,-0.043,-0.042,-0.061,-0.287,-0.055,0.094,-14.059,-14.427,-17.557
1747651753.90,-0.081,-0.023,-0.054,-0.308,-0.051,0.098,-14.239,-14.455,-17.610
1747651753.91,-0.092,0.012,-0.047,-0.346,-0.011,0.077,-14.431,-14.471,-17.608
1747651753.92,-0.091,0.046,-0.047,-0.387,-0.038,0.080,-14.645,-14.485,-17.673
1747651753.93,-0.064,0.039,-0.087,-0.424,-0.063,0.099,-14.880,-14.515,-17.681
1747651753.94,-0.009,0.008,-0.111,-0.458,-0.037,0.113,-15.137,-14.543,-17.740
1747651753.95,0.023,-0.010,-0.131,-0.497,-0.007,0.136,-15.413,-14.553,-17.739
1747651753.96,0.017,-0.013,-0.149,-0.548,-0.019,0.182,-15.722,-14.554,-17.759
1747651753.97,-0.020,0.004,-0.140,-0.585,-0.007,0.229,-16.065,-14.555,-17.726
1747651753.98,-0.045,0.023,-0.105,-0.626,0.042,0.250,-16.434,-14.530,-17.704
1747651753.99,-0.053,0.023,-0.076,-0.673,0.066,0.229,-16.828,-14.487,-17.662
1747651754.00,-0.058,-0.004,-0.088,-0.696,0.115,0.202,-17.237,-14.430,-17.657
1747651754.01,-0.039,-0.044,-0.086,-0.746,0.160,0.209,-17.664,-14.347,-17.645
1747651754.02,-0.014,-0.063,-0.109,-0.782,0.187,0.228,-18.119,-14.245,-17.651
1747651754.03,0.002,-0.057,-0.131,-0.816,0.225,0.260,-18.593,-14.119,-17.627
1747651754.04,0.013,-0.024,-0.117,-0.905,0.185,0.300,-19.109,-13.987,-17.579
1747651754.05,-0.004,0.013,-0.122,-0.927,0.141,0.333,-19.662,-13.880,-17.527
1747651754.06,-0.020,0.017,-0.085,-0.963,0.143,0.374,-20.233,-13.774,-17.427
1747651754.07,0.001,0.004,-0.069,-1.022,0.096,0.431,-20.839,-13.670,-17.333
1747651754.08,0.051,-0.027,-0.109,-1.046,0.037,0.474,-21.475,-13.590,-17.163
1747651754.09,0.104,-0.061,-0.140,-1.089,0.033,0.469,-22.131,-13.523,-17.034
1747651754.10,0.125,-0.083,-0.139,-1.121,0.048,0.448,-22.807,-13.456,-16.858
1747651754.11,0.087,-0.105,-0.095,-1.123,0.055,0.441,-23.489,-13.385,-16.753
1747651754.12,0.001,-0.137,-0.057,-1.149,0.101,0.449,-24.179,-13.301,-16.591
1747651754.13,-0.079,-0.163,-0.042,-1.190,0.212,0.473,-24.889,-13.164,-16.479
1747651754.14,-0.100,-0.175,-0.051,-1.264,0.263,0.521,-25.634,-12.970,-16.269
1747651754.15,-0.091,-0.162,-0.079,-1.308,0.242,0.599,-26.423,-12.752,-16.106
1747651754.16,-0.048,-0.131,-0.081,-1.296,0.215,0.663,-27.227,-12.525,-15.788
1747651754.17,0.012,-0.081,-0.036,-1.311,0.138,0.677,-28.035,-12.311,-15.545
1747651754.18,0.050,-0.025,-0.000,-1.317,0.078,0.641,-28.850,-12.136,-15.210
1747651754.19,0.052,0.011,0.011,-1.314,0.048,0.596,-29.658,-11.996,-14.995
1747651754.20,0.015,0.020,-0.001,-1.318,0.055,0.563,-30.461,-11.870,-14.664
1747651754.21,-0.041,-0.005,-0.030,-1.331,0.080,0.549,-31.266,-11.739,-14.482
1747651754.22,-0.073,-0.044,-0.039,-1.344,0.114,0.562,-32.079,-11.590,-14.137
1747651754.23,-0.072,-0.080,-0.011,-1.364,0.197,0.579,-32.901,-11.397,-13.941
1747651754.24,-0.038,-0.104,0.022,-1.370,0.213,0.587,-33.733,-11.161,-13.572
1747651754.25,-0.007,-0.113,0.021,-1.363,0.153,0.606,-34.564,-10.931,-13.349
1747651754.26,0.022,-0.109,-0.001,-1.362,0.077,0.635,-35.395,-10.724,-12.910
1747651754.27,0.064,-0.091,-0.021,-1.353,0.064,0.639,-36.224,-10.531,-12.644
1747651754.28,0.095,-0.063,-0.022,-1.342,0.103,0.609,-37.046,-10.326,-12.180
1747651754.29,0.093,-0.038,-0.009,-1.345,0.137,0.555,-37.859,-10.110,-11.940
1747651754.30,0.048,-0.022,-0.013,-1.381,0.147,0.527,-38.678,-9.896,-11.502
1747651754.31,-0.001,-0.020,-0.018,-1.424,0.131,0.535,-39.520,-9.684,-11.293
1747651754.32,-0.034,-0.035,0.004,-1.419,0.146,0.546,-40.373,-9.467,-10.873
1747651754.33,-0.045,-0.060,0.013,-1.410,0.267,0.558,-41.221,-9.193,-10.633
1747651754.34,-0.025,-0.077,0.009,-1.414,0.332,0.552,-42.067,-8.850,-10.171
1747651754.35,-0.013,-0.080,-0.019,-1.419,0.326,0.565,-42.914,-8.485,-9.909
1747651754.36,-0.014,-0.063,-0.020,-1.461,0.381,0.571,-43.774,-8.093,-9.399
1747651754.37,-0.010,-0.026,0.021,-1.491,0.428,0.544,-44.653,-7.666,-9.118
1747651754.38,-0.019,0.021,0.043,-1.495,0.454,0.513,-45.538,-7.227,-8.622
1747651754.39,-0.036,0.066,0.037,-1.518,0.453,0.491,-46.426,-6.779,-8.363
1747651754.40,-0.034,0.097,0.021,-1.542,0.376,0.468,-47.326,-6.357,-7.840
1747651754.41,-0.039,0.099,-0.010,-1.538,0.314,0.458,-48.230,-5.979,-7.590
1747651754.42,-0.015,0.073,-0.006,-1.539,0.373,0.466,-49.129,-5.588,-7.049
1747651754.43,0.035,0.047,0.023,-1.578,0.416,0.454,-50.039,-5.149,-6.772
1747651754.44,0.056,0.029,0.039,-1.609,0.381,0.418,-50.968,-4.713,-6.215
1747651754.45,0.044,0.011,0.037,-1.641,0.314,0.358,-51.910,-4.329,-5.978
1747651754.46,0.029,-0.013,0.024,-1.709,0.244,0.287,-52.877,-4.021,-5.470
1747651754.47,0.010,-0.033,0.036,-1.717,0.172,0.233,-53.867,-3.795,-5.335
1747651754.48,-0.015,-0.047,0.033,-1.666,0.134,0.210,-54.837,-3.623,-4.921
1747651754.49,-0.022,-0.045,0.006,-1.653,0.147,0.198,-55.790,-3.461,-4.820
1747651754.50,-0.017,-0.050,0.020,-1.668,0.194,0.213,-56.742,-3.273,-4.528
1747651754.51,-0.012,-0.057,0.003,-1.672,0.226,0.246,-57.704,-3.031,-4.383
1747651754.52,-0.002,-0.056,-0.002,-1.638,0.233,0.275,-58.654,-2.735,-4.189
1747651754.53,0.012,-0.031,-0.019,-1.685,0.253,0.281,-59.606,-2.403,-3.964
1747651754.54,0.033,-0.009,0.004,-1.734,0.305,0.280,-60.591,-2.030,-3.717
1747651754.55,0.059,-0.008,0.006,-1.737,0.347,0.261,-61.586,-1.621,-3.461
1747651754.56,0.080,-0.027,-0.014,-1.724,0.405,0.241,-62.578,-1.183,-3.208
1747651754.57,0.100,-0.056,0.011,-1.726,0.437,0.237,-63.564,-0.705,-2.945
1747651754.58,0.103,-0.088,0.018,-1.730,0.405,0.230,-64.552,-0.204,-2.658
1747651754.59,0.087,-0.108,-0.012,-1.738,0.303,0.235,-65.542,0.285,-2.343
1747651754.60,0.077,-0.109,-0.052,-1.750,0.183,0.261,-66.536,0.763,-1.972
1747651754.61,0.078,-0.087,-0.080,-1.762,0.119,0.287,-67.536,1.258,-1.524
1747651754.62,0.075,-0.055,-0.075,-1.724,0.144,0.293,-68.528,1.807,-1.011
1747651754.63,0.072,-0.021,-0.041,-1.674,0.217,0.276,-69.491,2.431,-0.452
1747651754.64,0.070,-0.002,-0.018,-1.611,0.307,0.221,-70.422,3.095,0.095
1747651754.65,0.053,-0.003,-0.004,-1.564,0.439,0.160,-71.319,3.770,0.587
1747651754.66,0.034,-0.018,0.028,-1.591,0.490,0.132,-72.210,4.486,1.056
1747651754.67,-0.008,-0.031,0.073,-1.587,0.413,0.146,-73.112,5.247,1.579
1747651754.68,-0.080,-0.052,0.035,-1.540,0.314,0.172,-73.989,6.054,2.207
1747651754.69,-0.118,-0.062,-0.035,-1.583,0.328,0.198,-74.859,6.972,2.973
1747651754.70,-0.116,-0.062,0.016,-1.603,0.433,0.204,-75.751,8.081,3.898
1747651754.71,-0.096,-0.069,0.049,-1.517,0.546,0.174,-76.617,9.346,4.910
1747651754.72,-0.075,-0.065,0.036,-1.442,0.615,0.151,-77.432,10.713,5.972
1747651754.73,-0.054,-0.042,0.038,-1.376,0.658,0.153,-78.203,12.205,7.125
1747651754.74,-0.034,-0.024,-0.004,-1.303,0.713,0.142,-78.928,13.861,8.415
1747651754.75,-0.022,-0.019,-0.029,-1.307,0.775,0.107,-79.628,15.651,9.800
1747651754.76,-0.024,-0.022,0.022,-1.348,0.707,0.080,-80.339,17.597,11.342
1747651754.77,-0.043,-0.025,0.054,-1.295,0.519,0.062,-81.045,19.665,13.079
1747651754.78,-0.054,-0.028,-0.029,-1.197,0.360,0.065,-81.697,21.811,14.999
1747651754.79,-0.008,-0.021,-0.113,-1.141,0.386,0.038,-82.298,24.050,17.051
1747651754.80,0.060,-0.017,-0.071,-1.103,0.531,0.006,-82.874,26.513,19.272
1747651754.81,0.091,-0.023,-0.022,-0.989,0.624,-0.031,-83.408,29.116,21.558
1747651754.82,0.062,-0.027,-0.049,-0.855,0.608,-0.037,-83.872,31.699,23.800
1747651754.83,-0.001,-0.011,-0.066,-0.782,0.595,-0.027,-84.270,34.320,26.093
1747651754.84,-0.068,0.013,-0.020,-0.824,0.637,-0.006,-84.646,37.344,28.781
1747651754.85,-0.128,0.030,0.067,-0.868,0.758,0.003,-85.022,41.130,32.184
1747651754.86,-0.163,0.005,0.086,-0.900,0.859,0.014,-85.385,45.764,36.368
1747651754.87,-0.150,-0.039,0.081,-0.918,0.896,0.045,-85.718,51.426,41.543
1747651754.88,-0.081,-0.060,0.055,-0.884,0.865,0.072,-85.988,58.029,47.654
1747651754.89,-0.000,-0.047,0.005,-0.832,0.747,0.067,-86.188,65.053,54.235
1747651754.90,0.042,-0.013,-0.046,-0.773,0.595,0.077,-86.314,72.277,61.093
1747651754.91,0.075,0.018,-0.056,-0.617,0.479,-0.011,-86.394,78.711,67.233
1747651754.92,0.062,0.029,-0.065,-0.478,0.408,-0.077,-86.468,83.800,72.079
1747651754.93,0.037,0.060,-0.031,-0.428,0.356,-0.080,-86.532,88.155,76.223
1747651754.94,-0.014,0.068,0.049,-0.414,0.295,-0.084,-86.576,92.344,80.233
1747651754.95,-0.069,0.033,0.025,-0.370,0.269,-0.115,-86.616,96.356,84.093
1747651754.96,-0.074,-0.011,-0.032,-0.309,0.328,-0.105,-86.653,99.948,87.525
1747651754.97,-0.008,-0.038,-0.021,-0.263,0.433,-0.068,-86.669,103.044,90.407
1747651754.98,0.069,-0.027,0.023,-0.289,0.452,-0.050,-86.661,106.055,93.167
1747651754.99,0.097,-0.003,0.091,-0.289,0.441,-0.050,-86.638,109.163,96.026
1747651755.00,0.098,0.025,0.116,-0.258,0.375,-0.067,-86.614,112.092,98.725
1747651755.01,0.089,0.053,0.105,-0.221,0.309,-0.098,-86.603,114.745,101.188
1747651755.02,0.054,0.065,0.080,-0.189,0.249,-0.110,-86.606,117.139,103.427
1747651755.03,0.026,0.055,0.043,-0.127,0.201,-0.103,-86.616,119.112,105.277
1747651755.04,0.001,0.035,-0.019,-0.062,0.201,-0.078,-86.635,120.444,106.500
1747651755.05,-0.031,0.002,-0.038,-0.037,0.301,-0.019,-86.645,121.210,107.125
1747651755.06,-0.071,-0.043,0.042,-0.061,0.406,0.018,-86.630,121.782,107.496
1747651755.07,-0.137,-0.060,0.109,-0.132,0.501,0.030,-86.589,122.681,108.137
1747651755.08,-0.165,-0.060,0.129,-0.205,0.563,0.039,-86.519,124.143,109.296
1747651755.09,-0.115,-0.073,0.115,-0.255,0.577,0.047,-86.423,125.979,110.809
1747651755.10,-0.027,-0.066,0.070,-0.280,0.560,0.049,-86.308,127.980,112.487
1747651755.11,0.066,-0.036,0.042,-0.244,0.480,0.044,-86.192,129.807,114.019
1747651755.12,0.127,0.006,0.020,-0.169,0.345,0.017,-86.100,131.221,115.200
1747651755.13,0.138,0.040,0.025,-0.064,0.201,-0.001,-86.052,132.054,115.879
1747651755.14,0.109,0.048,0.027,0.011,0.091,-0.013,-86.046,132.316,116.059
1747651755.15,0.057,0.029,0.045,0.028,0.021,-0.047,-86.067,132.345,116.057
1747651755.16,-0.003,0.003,0.051,-0.015,-0.044,-0.080,-86.096,132.651,116.370
1747651755.17,-0.035,-0.026,0.040,-0.038,-0.112,-0.094,-86.122,133.282,117.048
1747651755.18,-0.028,-0.046,0.007,-0.020,-0.169,-0.090,-86.149,133.923,117.771
1747651755.19,-0.008,-0.046,-0.017,-0.022,-0.213,-0.061,-86.175,134.373,118.332
1747651755.20,0.006,-0.030,-0.018,-0.035,-0.222,-0.020,-86.179,134.684,118.770
1747651755.21,0.016,-0.012,-0.016,-0.002,-0.205,0.035,-86.168,134.637,118.845
1747651755.22,0.020,0.004,-0.007,0.056,-0.182,0.075,-86.156,134.044,118.360
1747651755.23,0.013,0.026,-0.005,0.084,-0.173,0.097,-86.149,132.969,117.385
1747651755.24,-0.001,0.032,0.003,0.025,-0.131,0.088,-86.131,131.972,116.474
1747651755.25,0.007,0.021,0.023,-0.052,-0.074,0.060,-86.093,131.583,116.143
1747651755.26,0.043,0.003,0.018,-0.108,-0.048,0.037,-86.043,131.821,116.414
1747651755.27,0.078,-0.003,0.010,-0.121,-0.059,0.003,-85.991,132.392,117.017
1747651755.28,0.088,-0.006,0.004,-0.091,-0.099,-0.010,-85.951,132.984,117.655
1747651755.29,0.080,-0.009,-0.011,-0.029,-0.128,-0.010,-85.932,133.288,118.025
1747651755.30,0.041,-0.015,-0.005,0.017,-0.148,-0.001,-85.933,133.229,118.045
1747651755.31,-0.007,-0.017,0.019,0.031,-0.173,0.006,-85.943,132.942,117.849
1747651755.32,-0.037,-0.019,0.012,0.025,-0.207,0.001,-85.953,132.639,117.653
1747651755.33,-0.044,-0.018,-0.037,0.009,-0.227,-0.012,-85.960,132.476,117.615
1747651755.34,-0.023,-0.012,-0.062,0.007,-0.240,-0.015,-85.961,132.365,117.639
1747651755.35,0.001,0.001,-0.056,0.074,-0.251,0.002,-85.970,131.961,117.374
1747651755.36,0.025,0.017,-0.063,0.171,-0.240,0.010,-86.003,130.918,116.470
1747651755.37,0.031,0.027,-0.050,0.230,-0.214,0.007,-86.067,129.359,115.038
1747651755.38,0.022,0.026,-0.000,0.277,-0.181,0.011,-86.150,127.471,113.258
1747651755.39,0.020,0.008,0.030,0.268,-0.195,0.014,-86.236,125.471,111.357
1747651755.40,0.014,-0.002,0.050,0.243,-0.247,-0.005,-86.317,123.585,109.593
1747651755.41,0.008,0.004,0.071,0.257,-0.306,-0.015,-86.406,121.607,107.768
1747651755.42,0.006,0.011,0.077,0.279,-0.329,-0.014,-86.499,119.256,105.597
1747651755.43,0.009,0.006,0.095,0.289,-0.314,-0.007,-86.583,116.685,103.206
1747651755.44,0.002,-0.004,0.133,0.327,-0.304,-0.015,-86.662,113.863,100.555
1747651755.45,-0.027,-0.012,0.122,0.358,-0.301,-0.029,-86.748,110.604,97.466
1747651755.46,-0.063,-0.016,0.114,0.345,-0.295,-0.026,-86.828,107.148,94.175
1747651755.47,-0.080,-0.021,0.123,0.358,-0.300,-0.018,-86.893,103.526,90.716
1747651755.48,-0.079,-0.020,0.089,0.402,-0.322,-0.014,-86.945,99.432,86.795
1747651755.49,-0.063,-0.013,0.047,0.433,-0.339,-0.014,-86.982,94.797,82.341
1747651755.49,-0.030,-0.008,0.040,0.477,-0.357,-0.015,-87.000,89.659,77.395
1747651755.51,0.005,0.006,0.029,0.529,-0.352,-0.011,-86.992,83.976,71.907
1747651755.52,0.032,0.016,0.043,0.573,-0.362,-0.006,-86.947,77.907,66.032
1747651755.53,0.038,0.023,0.071,0.658,-0.399,0.007,-86.853,71.446,59.777
1747651755.53,0.033,0.040,0.055,0.720,-0.489,-0.001,-86.703,64.695,53.269
1747651755.54,0.007,0.059,0.051,0.727,-0.534,-0.015,-86.509,58.209,47.067
1747651755.55,-0.020,0.050,0.091,0.721,-0.521,-0.033,-86.285,52.393,41.543
1747651755.56,-0.036,0.013,0.117,0.735,-0.494,-0.072,-86.039,47.107,36.535
1747651755.57,-0.055,-0.021,0.102,0.754,-0.473,-0.115,-85.772,42.113,31.806
1747651755.58,-0.054,-0.026,0.071,0.737,-0.485,-0.143,-85.493,37.520,27.473
1747651755.59,-0.041,-0.016,0.062,0.715,-0.547,-0.162,-85.205,33.394,23.626
1747651755.60,-0.023,-0.014,0.053,0.722,-0.656,-0.171,-84.906,29.648,20.210
1747651755.62,-0.015,-0.026,0.026,0.847,-0.693,-0.170,-84.560,26.069,17.007
1747651755.62,0.002,-0.030,-0.024,1.023,-0.605,-0.187,-84.112,22.550,13.844
1747651755.63,0.024,0.002,-0.036,1.123,-0.529,-0.231,-83.579,19.160,10.758
1747651755.64,0.002,0.050,-0.037,1.130,-0.481,-0.217,-83.003,16.143,8.010
1747651755.65,-0.022,0.061,-0.009,1.135,-0.428,-0.128,-82.407,13.832,5.943
1747651755.66,-0.047,0.005,0.040,1.158,-0.342,-0.056,-81.778,12.189,4.508
1747651755.67,-0.085,-0.041,0.023,1.102,-0.217,-0.019,-81.148,11.024,3.493
1747651755.68,-0.101,-0.069,0.018,1.012,-0.062,0.011,-80.556,10.241,2.781
1747651755.69,-0.065,-0.086,0.004,0.992,0.075,0.018,-79.994,9.724,2.252
1747651755.70,0.021,-0.065,-0.013,1.027,0.107,0.011,-79.424,9.302,1.764
1747651755.71,0.120,-0.001,-0.001,1.057,0.028,-0.006,-78.835,8.860,1.274
1747651755.72,0.180,0.051,0.028,1.080,-0.001,0.012,-78.231,8.417,0.816
1747651755.73,0.207,0.064,0.060,1.063,-0.090,-0.012,-77.624,7.996,0.409
1747651755.74,0.136,0.027,0.089,1.091,-0.230,-0.090,-77.020,7.408,-0.100
1747651755.75,0.002,-0.023,0.059,1.157,-0.375,-0.139,-76.391,6.624,-0.727
1747651755.76,-0.099,-0.049,0.024,1.179,-0.530,-0.151,-75.735,5.735,-1.376
1747651755.77,-0.162,-0.049,-0.010,1.163,-0.569,-0.121,-75.076,4.875,-1.933
1747651755.78,-0.153,-0.043,-0.030,1.171,-0.428,-0.103,-74.418,4.166,-2.368
1747651755.79,-0.100,-0.033,-0.030,1.199,-0.237,-0.129,-73.747,3.592,-2.770
1747651755.80,-0.055,-0.017,-0.013,1.203,-0.155,-0.163,-73.066,3.068,-3.204
1747651755.81,-0.002,-0.005,-0.006,1.196,-0.087,-0.171,-72.388,2.579,-3.642
1747651755.82,0.060,0.005,0.006,1.242,0.053,-0.150,-71.697,2.192,-4.035
1747651755.83,0.083,0.014,0.026,1.220,0.143,-0.115,-70.992,1.954,-4.353
1747651755.84,0.044,0.015,0.044,1.159,0.027,-0.060,-70.317,1.798,-4.574
1747651755.85,-0.013,0.005,0.015,1.184,-0.059,0.025,-69.650,1.701,-4.662
1747651755.86,-0.008,-0.015,-0.017,1.176,-0.018,0.093,-68.973,1.716,-4.621
1747651755.87,0.063,-0.037,0.021,1.137,-0.008,0.081,-68.313,1.799,-4.529
1747651755.88,0.116,-0.068,0.013,1.101,-0.127,-0.017,-67.674,1.762,-4.532
1747651755.89,0.109,-0.095,-0.032,1.093,-0.277,-0.143,-67.051,1.495,-4.694
1747651755.90,0.077,-0.107,-0.065,1.144,-0.342,-0.276,-66.417,1.004,-5.034
1747651755.91,0.026,-0.095,-0.139,1.213,-0.292,-0.349,-65.746,0.388,-5.503
1747651755.92,-0.047,-0.059,-0.182,1.204,-0.035,-0.296,-65.053,-0.129,-5.961
1747651755.93,-0.103,-0.028,-0.068,1.152,0.250,-0.151,-64.380,-0.332,-6.257
1747651755.94,-0.165,-0.016,0.055,1.092,0.279,0.019,-63.740,-0.242,-6.338
1747651755.95,-0.217,0.008,0.071,1.075,0.136,0.157,-63.122,-0.015,-6.219
1747651755.96,-0.134,0.038,0.039,1.058,0.024,0.223,-62.512,0.241,-5.979
1747651755.97,0.045,0.053,0.054,1.034,0.001,0.179,-61.915,0.463,-5.733
1747651755.98,0.176,0.028,0.104,1.064,-0.021,0.025,-61.316,0.567,-5.613
1747651755.99,0.190,-0.017,0.047,1.062,-0.212,-0.212,-60.708,0.402,-5.731
1747651756.00,0.096,-0.023,-0.053,1.086,-0.355,-0.383,-60.098,-0.080,-6.090
1747651756.01,0.000,-0.008,-0.060,1.133,-0.235,-0.408,-59.463,-0.646,-6.540
1747651756.02,-0.057,0.002,-0.004,1.137,0.044,-0.359,-58.808,-1.054,-6.950
1747651756.03,-0.114,0.002,0.061,1.079,0.226,-0.284,-58.172,-1.250,-7.150
1747651756.04,-0.167,0.011,0.036,1.073,0.176,-0.198,-57.557,-1.327,-7.385
1747651756.05,-0.145,0.009,-0.007,1.081,0.229,-0.121,-56.939,-1.345,-7.529
1747651756.06,-0.040,-0.004,0.003,1.064,0.306,-0.119,-56.327,-1.255,-7.614
1747651756.07,0.070,-0.017,0.033,1.115,0.228,-0.227,-55.704,-1.227,-7.563
1747651756.08,0.070,-0.018,0.022,1.132,0.198,-0.320,-55.056,-1.316,-7.817
1747651756.09,0.052,-0.021,0.044,1.115,0.190,-0.351,-54.411,-1.457,-8.068
1747651756.10,0.018,-0.009,0.032,1.103,0.224,-0.311,-53.771,-1.584,-8.365
1747651756.11,-0.008,0.023,0.021,1.046,0.325,-0.231,-53.151,-1.612,-8.452
1747651756.12,0.003,0.068,0.047,0.927,0.344,-0.151,-52.583,-1.541,-8.608
1747651756.13,0.025,0.100,0.043,0.837,0.254,-0.077,-52.082,-1.432,-8.597
1747651756.14,0.079,0.104,0.063,0.848,0.089,-0.055,-51.601,-1.363,-8.637
1747651756.15,0.117,0.082,0.057,0.860,-0.120,-0.051,-51.111,-1.393,-8.570
1747651756.16,0.064,0.055,0.021,0.859,-0.266,-0.128,-50.619,-1.548,-8.623
1747651756.17,-0.022,0.041,-0.016,0.879,-0.282,-0.281,-50.120,-1.833,-8.699
1747651756.18,-0.075,0.037,-0.011,0.908,-0.166,-0.419,-49.603,-2.182,-8.982
1747651756.19,-0.104,0.030,0.021,0.909,-0.012,-0.524,-49.073,-2.523,-9.291
1747651756.20,-0.129,0.020,0.029,0.880,0.073,-0.554,-48.547,-2.831,-9.728
1747651756.21,-0.126,-0.011,-0.010,0.856,0.143,-0.487,-48.038,-3.077,-10.065
1747651756.22,-0.057,-0.045,-0.035,0.839,0.193,-0.379,-47.541,-3.223,-10.394
1747651756.23,0.053,-0.057,-0.031,0.824,0.174,-0.289,-47.057,-3.290,-10.592
1747651756.24,0.147,-0.042,-0.035,0.815,0.075,-0.263,-46.579,-3.353,-10.779
1747651756.25,0.198,-0.009,-0.039,0.806,-0.056,-0.258,-46.110,-3.473,-10.937
1747651756.26,0.221,0.020,-0.049,0.841,-0.199,-0.223,-45.634,-3.658,-11.094
1747651756.27,0.219,0.027,-0.067,0.867,-0.287,-0.186,-45.138,-3.887,-11.209
1747651756.28,0.178,0.021,-0.032,0.849,-0.273,-0.156,-44.643,-4.113,-11.297
1747651756.29,0.128,0.011,-0.001,0.844,-0.251,-0.146,-44.156,-4.310,-11.346
1747651756.30,0.082,-0.012,-0.006,0.832,-0.230,-0.126,-43.671,-4.487,-11.401
1747651756.31,0.055,-0.031,-0.031,0.778,-0.233,-0.109,-43.207,-4.647,-11.434
1747651756.32,0.067,-0.048,-0.053,0.753,-0.321,-0.080,-42.768,-4.818,-11.461
1747651756.33,0.088,-0.057,-0.020,0.775,-0.358,-0.023,-42.330,-5.008,-11.451
1747651756.34,0.122,-0.039,0.015,0.757,-0.367,0.003,-41.893,-5.182,-11.403
1747651756.35,0.132,-0.000,0.035,0.754,-0.406,-0.026,-41.464,-5.372,-11.356
1747651756.36,0.077,0.032,0.037,0.761,-0.437,-0.050,-41.031,-5.597,-11.331
1747651756.37,0.041,0.045,0.016,0.765,-0.459,-0.063,-40.594,-5.844,-11.322
1747651756.38,0.019,0.041,0.013,0.790,-0.463,-0.054,-40.150,-6.098,-11.306
1747651756.39,0.007,0.030,0.014,0.796,-0.434,-0.038,-39.695,-6.336,-11.277
1747651756.40,0.022,0.018,0.000,0.778,-0.375,-0.015,-39.246,-6.542,-11.232
1747651756.41,0.063,0.016,0.001,0.750,-0.304,0.008,-38.813,-6.693,-11.188
1747651756.42,0.083,0.022,0.002,0.748,-0.310,0.002,-38.389,-6.824,-11.120
1747651756.43,0.055,0.022,0.018,0.764,-0.337,-0.016,-37.958,-6.970,-11.085
1747651756.44,0.024,0.011,0.013,0.737,-0.380,-0.024,-37.531,-7.141,-11.033
1747651756.45,0.010,-0.026,-0.029,0.723,-0.455,-0.072,-37.115,-7.361,-11.004
1747651756.46,-0.027,-0.022,-0.061,0.728,-0.468,-0.133,-36.696,-7.632,-11.010
1747651756.47,-0.069,-0.006,-0.033,0.739,-0.375,-0.166,-36.271,-7.894,-11.056
1747651756.48,-0.087,0.004,0.001,0.721,-0.332,-0.211,-35.840,-8.128,-11.117
1747651756.49,-0.095,0.027,0.002,0.687,-0.343,-0.197,-35.427,-8.364,-11.206
1747651756.50,-0.078,0.053,0.038,0.707,-0.350,-0.149,-35.019,-8.590,-11.256
1747651756.51,-0.015,0.069,0.057,0.728,-0.321,-0.121,-34.604,-8.790,-11.293
1747651756.52,0.053,0.069,0.053,0.718,-0.276,-0.158,-34.183,-8.968,-11.308
1747651756.53,0.054,0.055,0.020,0.699,-0.299,-0.241,-33.765,-9.160,-11.394
1747651756.54,-0.035,0.017,-0.017,0.720,-0.372,-0.294,-33.341,-9.412,-11.499
1747651756.55,-0.125,-0.025,-0.022,0.720,-0.303,-0.317,-32.905,-9.679,-11.660
1747651756.56,-0.130,-0.051,0.034,0.697,-0.136,-0.357,-32.473,-9.881,-11.803
1747651756.57,-0.091,-0.051,0.069,0.678,-0.036,-0.412,-32.049,-10.019,-12.032
1747651756.58,-0.074,-0.015,0.063,0.685,-0.007,-0.424,-31.624,-10.135,-12.230
1747651756.59,-0.057,0.040,0.044,0.687,-0.043,-0.398,-31.196,-10.245,-12.459
1747651756.60,-0.023,0.077,0.010,0.661,-0.111,-0.379,-30.777,-10.379,-12.633
1747651756.61,-0.005,0.101,-0.030,0.647,-0.149,-0.378,-30.372,-10.541,-12.865
1747651756.62,0.004,0.089,-0.024,0.663,-0.151,-0.393,-29.965,-10.714,-13.036
1747651756.63,-0.007,0.060,0.006,0.673,-0.121,-0.394,-29.547,-10.878,-13.270
1747651756.64,-0.012,0.009,0.015,0.652,-0.138,-0.385,-29.132,-11.031,-13.439
1747651756.65,-0.019,-0.028,-0.013,0.649,-0.220,-0.352,-28.728,-11.209,-13.670
1747651756.66,-0.014,-0.047,-0.044,0.664,-0.251,-0.328,-28.322,-11.409,-13.801
1747651756.67,0.031,-0.040,-0.029,0.663,-0.228,-0.319,-27.913,-11.603,-13.986
1747651756.68,0.092,-0.016,-0.025,0.665,-0.247,-0.306,-27.507,-11.785,-14.089
1747651756.69,0.115,-0.019,-0.012,0.693,-0.239,-0.316,-27.090,-11.979,-14.274
1747651756.70,0.120,-0.044,-0.004,0.695,-0.211,-0.274,-26.668,-12.147,-14.367
1747651756.71,0.116,-0.100,-0.023,0.756,-0.182,-0.208,-26.235,-12.283,-14.507
1747651756.72,0.093,-0.125,-0.046,0.756,-0.155,-0.154,-25.788,-12.382,-14.514
1747651756.73,0.072,-0.114,-0.068,0.718,-0.138,-0.112,-25.362,-12.458,-14.587
1747651756.74,0.073,-0.075,-0.064,0.703,-0.119,-0.094,-24.953,-12.517,-14.553
1747651756.75,0.085,-0.037,-0.045,0.684,-0.147,-0.083,-24.556,-12.575,-14.615
1747651756.76,0.078,-0.030,-0.055,0.687,-0.194,-0.065,-24.166,-12.654,-14.566
1747651756.77,0.055,-0.037,-0.035,0.692,-0.181,-0.051,-23.773,-12.739,-14.615
1747651756.78,0.030,-0.018,-0.000,0.675,-0.145,-0.054,-23.386,-12.806,-14.635
1747651756.79,-0.003,0.003,0.011,0.656,-0.105,-0.044,-23.009,-12.852,-14.574
1747651756.80,-0.028,0.011,0.005,0.641,-0.087,-0.005,-22.645,-12.876,-14.600
1747651756.81,-0.033,0.023,-0.011,0.644,-0.087,0.016,-22.288,-12.891,-14.506
1747651756.82,-0.029,0.044,-0.031,0.619,-0.087,-0.006,-21.937,-12.906,-14.523
1747651756.83,-0.003,0.064,-0.060,0.581,-0.104,-0.084,-21.595,-12.939,-14.467
1747651756.84,-0.014,0.077,-0.044,0.529,-0.155,-0.158,-21.272,-13.011,-14.556
1747651756.85,-0.081,0.081,-0.026,0.518,-0.180,-0.173,-20.960,-13.121,-14.584
1747651756.86,-0.156,0.056,-0.001,0.507,-0.164,-0.156,-20.653,-13.228,-14.700
1747651756.87,-0.148,0.026,0.001,0.489,-0.151,-0.147,-20.356,-13.324,-14.720
1747651756.88,-0.040,-0.003,-0.039,0.464,-0.187,-0.151,-20.071,-13.426,-14.816
1747651756.89,0.091,-0.014,-0.093,0.431,-0.203,-0.150,-19.803,-13.548,-14.843
1747651756.90,0.146,-0.018,-0.114,0.418,-0.178,-0.123,-19.551,-13.664,-14.947
1747651756.91,0.116,-0.007,-0.089,0.427,-0.127,-0.064,-19.303,-13.750,-14.942
1747651756.92,0.061,0.054,-0.017,0.398,-0.040,-0.009,-19.069,-13.784,-14.982
1747651756.93,0.004,0.137,0.048,0.381,0.031,0.027,-18.854,-13.765,-14.921
1747651756.94,-0.061,0.147,0.007,0.349,0.059,0.032,-18.656,-13.715,-14.933
1747651756.95,-0.093,0.048,-0.065,0.304,0.059,-0.012,-18.477,-13.662,-14.878
1747651756.96,-0.071,-0.060,-0.103,0.259,0.021,-0.084,-18.314,-13.633,-14.963
1747651756.97,-0.030,-0.106,-0.132,0.225,-0.040,-0.153,-18.163,-13.650,-14.999
1747651756.98,-0.007,-0.110,-0.127,0.211,-0.081,-0.181,-18.020,-13.707,-15.153
1747651756.99,0.002,-0.075,-0.084,0.185,-0.070,-0.187,-17.885,-13.777,-15.232
1747651757.00,-0.014,-0.010,-0.022,0.171,-0.050,-0.183,-17.763,-13.837,-15.415
1747651757.01,-0.048,0.022,0.016,0.200,0.009,-0.154,-17.638,-13.873,-15.487
1747651757.02,-0.063,0.005,0.022,0.195,0.074,-0.118,-17.507,-13.865,-15.641
1747651757.03,-0.039,0.005,-0.009,0.161,0.082,-0.100,-17.394,-13.829,-15.679
1747651757.04,0.008,0.044,-0.070,0.140,0.054,-0.084,-17.298,-13.799,-15.809
1747651757.05,0.049,0.076,-0.097,0.102,0.025,-0.055,-17.221,-13.783,-15.832
1747651757.06,0.079,0.084,-0.082,0.093,-0.059,-0.017,-17.163,-13.792,-15.938
1747651757.07,0.087,0.080,-0.055,0.096,-0.132,0.012,-17.109,-13.845,-15.926
1747651757.08,0.086,0.075,-0.036,0.082,-0.158,0.021,-17.062,-13.923,-16.013
1747651757.09,0.077,0.055,-0.015,0.086,-0.167,0.018,-17.020,-14.012,-15.991
1747651757.10,0.030,0.026,0.010,0.103,-0.129,0.016,-16.972,-14.095,-16.073
1747651757.11,-0.035,-0.006,0.016,0.122,-0.053,0.005,-16.912,-14.144,-16.052
1747651757.12,-0.084,-0.029,0.017,0.139,0.001,-0.007,-16.842,-14.149,-16.138
1747651757.13,-0.090,-0.026,0.011,0.139,0.004,-0.025,-16.767,-14.140,-16.125
1747651757.14,-0.050,-0.003,0.022,0.124,0.012,-0.065,-16.692,-14.132,-16.207
1747651757.15,-0.009,0.021,0.061,0.130,0.004,-0.093,-16.618,-14.130,-16.234
1747651757.16,0.000,0.004,0.064,0.160,-0.023,-0.109,-16.527,-14.141,-16.363
1747651757.17,-0.018,-0.016,0.040,0.156,-0.067,-0.115,-16.428,-14.172,-16.403
1747651757.18,-0.023,-0.012,-0.024,0.146,-0.116,-0.132,-16.333,-14.237,-16.549
1747651757.19,-0.006,-0.007,-0.069,0.171,-0.089,-0.163,-16.226,-14.319,-16.612
1747651757.20,0.021,-0.010,-0.046,0.204,-0.016,-0.171,-16.096,-14.373,-16.768
1747651757.21,0.026,-0.022,0.014,0.212,-0.002,-0.162,-15.956,-14.399,-16.835
1747651757.22,-0.002,-0.041,0.039,0.237,-0.002,-0.148,-15.811,-14.420,-16.994
1747651757.23,0.004,-0.051,0.020,0.230,-0.008,-0.134,-15.667,-14.436,-17.041
1747651757.24,0.040,-0.043,0.003,0.216,-0.035,-0.140,-15.532,-14.464,-17.199
1747651757.25,0.062,-0.011,0.004,0.211,-0.040,-0.146,-15.396,-14.502,-17.251
1747651757.26,0.059,0.012,-0.004,0.210,-0.043,-0.137,-15.258,-14.540,-17.415
1747651757.27,0.042,0.013,-0.029,0.203,-0.055,-0.115,-15.125,-14.576,-17.456
1747651757.28,0.037,0.008,-0.043,0.231,-0.060,-0.101,-14.991,-14.613,-17.595
1747651757.29,0.044,0.012,-0.042,0.230,-0.046,-0.097,-14.846,-14.645,-17.616
1747651757.30,0.042,0.017,-0.041,0.211,-0.065,-0.070,-14.713,-14.681,-17.744
1747651757.31,0.023,0.009,-0.049,0.203,-0.074,-0.043,-14.584,-14.722,-17.744
1747651757.32,0.002,0.010,-0.033,0.156,-0.033,-0.036,-14.473,-14.742,-17.830
1747651757.33,-0.000,0.004,-0.019,0.127,-0.030,-0.049,-14.393,-14.742,-17.829
1747651757.34,-0.012,-0.016,-0.025,0.139,-0.040,-0.059,-14.322,-14.752,-17.929
1747651757.35,-0.023,-0.029,-0.036,0.126,-0.017,-0.053,-14.246,-14.758,-17.938
1747651757.36,-0.002,-0.015,-0.045,0.108,-0.016,-0.047,-14.179,-14.755,-18.046
1747651757.37,0.028,0.020,-0.050,0.123,-0.053,-0.032,-14.116,-14.759,-18.048
1747651757.38,0.045,0.068,-0.060,0.111,-0.105,0.018,-14.053,-14.789,-18.141
1747651757.39,0.042,0.102,-0.081,0.055,-0.167,0.092,-14.016,-14.852,-18.095
1747651757.40,0.019,0.100,-0.112,0.001,-0.179,0.129,-14.018,-14.934,-18.134
1747651757.41,0.007,0.059,-0.123,-0.046,-0.170,0.130,-14.050,-15.017,-18.063
1747651757.42,-0.002,-0.004,-0.115,-0.071,-0.123,0.117,-14.101,-15.086,-18.109
1747651757.43,-0.012,-0.032,-0.067,-0.125,-0.075,0.109,-14.168,-15.130,-18.060
1747651757.44,-0.032,-0.021,-0.040,-0.187,-0.061,0.119,-14.271,-15.158,-18.118
1747651757.45,-0.066,-0.011,-0.050,-0.216,0.003,0.148,-14.402,-15.165,-18.073
1747651757.46,-0.095,0.013,-0.067,-0.281,0.070,0.163,-14.564,-15.130,-18.122
1747651757.47,-0.111,0.029,-0.114,-0.324,0.086,0.167,-14.761,-15.068,-18.073
1747651757.48,-0.099,0.017,-0.150,-0.355,0.067,0.165,-14.974,-15.012,-18.119
1747651757.49,-0.061,0.021,-0.165,-0.383,0.043,0.158,-15.202,-14.968,-18.084
1747651757.50,-0.013,0.041,-0.151,-0.411,-0.022,0.142,-15.439,-14.955,-18.142
1747651757.51,-0.009,0.066,-0.118,-0.495,-0.045,0.131,-15.707,-14.974,-18.133
1747651757.52,-0.028,0.068,-0.072,-0.555,-0.015,0.135,-16.017,-14.994,-18.223
1747651757.53,-0.045,0.057,-0.053,-0.591,0.011,0.167,-16.356,-14.995,-18.226
1747651757.54,-0.065,0.037,-0.084,-0.638,0.058,0.208,-16.722,-14.971,-18.293
1747651757.55,-0.069,0.022,-0.130,-0.681,0.126,0.249,-17.119,-14.910,-18.262
1747651757.56,-0.037,0.019,-0.147,-0.735,0.159,0.265,-17.547,-14.815,-18.280
1747651757.57,-0.013,0.012,-0.142,-0.804,0.166,0.270,-18.011,-14.710,-18.242
1747651757.58,0.015,-0.002,-0.113,-0.864,0.171,0.285,-18.510,-14.602,-18.252
1747651757.59,0.056,-0.026,-0.100,-0.890,0.128,0.312,-19.040,-14.503,-18.212
1747651757.60,0.071,-0.051,-0.091,-0.891,0.104,0.381,-19.581,-14.417,-18.183
1747651757.61,0.095,-0.048,-0.075,-0.916,0.075,0.494,-20.142,-14.324,-18.061
1747651757.62,0.133,-0.010,-0.117,-0.938,0.034,0.602,-20.735,-14.229,-17.898
1747651757.63,0.138,0.029,-0.150,-0.938,0.029,0.666,-21.343,-14.126,-17.660
1747651757.64,0.106,0.051,-0.154,-0.933,0.035,0.677,-21.954,-14.011,-17.377
1747651757.65,0.044,0.036,-0.134,-0.971,0.057,0.649,-22.573,-13.888,-17.120
1747651757.66,-0.011,-0.024,-0.097,-1.031,0.090,0.618,-23.215,-13.755,-16.858
1747651757.67,-0.042,-0.111,-0.076,-1.080,0.086,0.602,-23.883,-13.618,-16.644
1747651757.68,-0.068,-0.184,-0.072,-1.135,0.087,0.580,-24.577,-13.489,-16.402
1747651757.69,-0.093,-0.228,-0.072,-1.190,0.067,0.566,-25.298,-13.368,-16.222
1747651757.70,-0.107,-0.226,-0.056,-1.230,0.042,0.565,-26.046,-13.265,-15.997
1747651757.71,-0.113,-0.196,-0.029,-1.256,0.079,0.561,-26.810,-13.156,-15.828
1747651757.72,-0.113,-0.150,-0.001,-1.282,0.118,0.530,-27.588,-13.028,-15.589
1747651757.73,-0.127,-0.095,0.019,-1.291,0.151,0.490,-28.369,-12.889,-15.453
1747651757.74,-0.139,-0.053,0.035,-1.304,0.212,0.454,-29.151,-12.732,-15.261
1747651757.75,-0.140,-0.030,0.059,-1.306,0.291,0.413,-29.934,-12.543,-15.171
1747651757.76,-0.137,-0.024,0.062,-1.284,0.361,0.397,-30.706,-12.317,-14.976
1747651757.77,-0.123,-0.043,0.034,-1.279,0.398,0.430,-31.471,-12.055,-14.819
1747651757.78,-0.081,-0.085,-0.001,-1.268,0.409,0.498,-32.236,-11.756,-14.691
1747651757.79,0.005,-0.115,-0.057,-1.307,0.428,0.556,-33.015,-11.423,-14.410
1747651757.80,0.106,-0.116,-0.068,-1.353,0.454,0.576,-33.824,-11.056,-14.204
1747651757.81,0.173,-0.100,-0.049,-1.361,0.416,0.559,-34.647,-10.687,-13.864
1747651757.82,0.166,-0.066,-0.030,-1.352,0.335,0.525,-35.465,-10.356,-13.665
1747651757.83,0.105,-0.031,-0.024,-1.343,0.215,0.499,-36.274,-10.090,-13.331
1747651757.84,0.027,-0.024,-0.034,-1.345,0.145,0.486,-37.079,-9.882,-13.150
1747651757.85,-0.038,-0.040,-0.019,-1.361,0.170,0.490,-37.886,-9.686,-12.805
1747651757.86,-0.052,-0.070,-0.011,-1.402,0.262,0.522,-38.711,-9.443,-12.609
1747651757.87,-0.018,-0.093,-0.027,-1.445,0.336,0.571,-39.565,-9.127,-12.198
1747651757.88,0.041,-0.100,-0.036,-1.458,0.346,0.619,-40.437,-8.756,-11.928
1747651757.89,0.097,-0.085,-0.027,-1.478,0.340,0.656,-41.321,-8.356,-11.422
1747651757.90,0.130,-0.051,-0.019,-1.513,0.346,0.658,-42.220,-7.933,-11.085
1747651757.91,0.120,-0.008,-0.019,-1.534,0.266,0.642,-43.133,-7.523,-10.524
1747651757.92,0.056,0.024,-0.024,-1.544,0.129,0.631,-44.050,-7.173,-10.182
1747651757.93,-0.022,0.044,-0.032,-1.560,0.067,0.643,-44.974,-6.875,-9.573
1747651757.94,-0.046,0.036,-0.024,-1.550,0.090,0.661,-45.900,-6.561,-9.193
1747651757.95,-0.035,0.016,-0.004,-1.553,0.141,0.648,-46.822,-6.208,-8.537
1747651757.96,-0.035,-0.008,0.015,-1.557,0.207,0.614,-47.743,-5.822,-8.144
1747651757.97,-0.046,-0.034,0.010,-1.563,0.274,0.564,-48.662,-5.408,-7.513
1747651757.98,-0.064,-0.062,-0.004,-1.568,0.323,0.515,-49.579,-4.977,-7.169
1747651757.99,-0.086,-0.077,-0.044,-1.595,0.377,0.474,-50.502,-4.532,-6.552
1747651758.00,-0.099,-0.079,-0.020,-1.617,0.443,0.449,-51.436,-4.059,-6.245
1747651758.01,-0.087,-0.067,0.021,-1.632,0.458,0.439,-52.378,-3.556,-5.613
1747651758.02,-0.037,-0.058,0.012,-1.662,0.435,0.442,-53.331,-3.041,-5.286
1747651758.03,0.022,-0.058,0.019,-1.672,0.414,0.424,-54.297,-2.521,-4.615
1747651758.04,0.083,-0.050,0.036,-1.660,0.318,0.433,-55.256,-2.018,-4.257
1747651758.05,0.091,-0.037,0.007,-1.658,0.195,0.434,-56.211,-1.551,-3.532
1747651758.06,0.049,-0.016,-0.001,-1.647,0.110,0.385,-57.159,-1.142,-3.142
1747651758.07,0.012,0.009,-0.033,-1.662,0.159,0.301,-58.106,-0.785,-2.438
1747651758.08,0.010,0.018,0.004,-1.674,0.275,0.236,-59.060,-0.424,-2.165
1747651758.09,0.007,0.005,0.038,-1.689,0.282,0.214,-60.019,-0.055,-1.708
1747651758.10,-0.028,-0.007,-0.001,-1.715,0.272,0.237,-60.992,0.334,-1.441
1747651758.11,-0.041,-0.015,-0.008,-1.749,0.309,0.271,-61.978,0.785,-1.117
1747651758.12,-0.013,-0.027,0.022,-1.788,0.363,0.306,-62.987,1.328,-0.720
1747651758.13,0.029,-0.039,0.065,-1.751,0.405,0.320,-63.995,1.970,-0.250
1747651758.14,0.075,-0.052,0.039,-1.705,0.425,0.300,-64.971,2.662,0.254
1747651758.15,0.101,-0.050,0.013,-1.744,0.433,0.267,-65.944,3.374,0.766
1747651758.16,0.081,-0.037,0.019,-1.776,0.328,0.235,-66.941,4.071,1.285
1747651758.17,0.017,-0.032,-0.021,-1.712,0.240,0.230,-67.927,4.728,1.827
1747651758.18,-0.031,-0.031,-0.067,-1.646,0.325,0.236,-68.867,5.433,2.418
1747651758.19,-0.036,-0.028,-0.049,-1.651,0.486,0.214,-69.790,6.260,3.055
1747651758.20,-0.041,-0.027,-0.033,-1.637,0.575,0.152,-70.711,7.162,3.688
1747651758.21,-0.047,-0.041,-0.017,-1.608,0.605,0.109,-71.619,8.071,4.293
1747651758.22,-0.030,-0.051,-0.010,-1.614,0.670,0.086,-72.520,9.028,4.916
1747651758.23,-0.007,-0.065,0.029,-1.619,0.685,0.066,-73.424,10.050,5.580
1747651758.24,-0.006,-0.097,0.040,-1.597,0.648,0.081,-74.322,11.151,6.327
1747651758.25,-0.005,-0.122,0.028,-1.532,0.590,0.148,-75.184,12.404,7.260
1747651758.26,0.013,-0.115,-0.026,-1.469,0.573,0.199,-75.995,13.872,8.435
1747651758.27,0.033,-0.077,-0.061,-1.437,0.609,0.210,-76.768,15.552,9.819
1747651758.28,0.038,-0.016,-0.053,-1.384,0.700,0.126,-77.512,17.339,11.269
1747651758.29,0.002,0.037,-0.039,-1.352,0.719,0.015,-78.241,19.054,12.606
1747651758.30,-0.051,0.042,0.000,-1.280,0.742,-0.027,-78.953,20.713,13.874
1747651758.31,-0.082,-0.004,0.046,-1.177,0.758,0.021,-79.604,22.483,15.237
1747651758.32,-0.075,-0.026,0.055,-1.163,0.713,0.068,-80.203,24.532,16.890
1747651758.33,-0.059,-0.027,0.001,-1.160,0.685,0.070,-80.784,26.864,18.854
1747651758.34,-0.017,-0.029,-0.055,-1.157,0.774,0.097,-81.345,29.527,21.128
1747651758.35,0.068,-0.023,-0.014,-1.144,0.858,0.052,-81.883,32.556,23.715
1747651758.36,0.099,-0.028,0.071,-1.101,0.837,-0.002,-82.409,35.740,26.438
1747651758.37,0.078,-0.022,0.114,-1.005,0.727,-0.003,-82.888,39.005,29.276
1747651758.38,0.058,-0.016,0.054,-1.011,0.612,0.005,-83.320,42.482,32.396
1747651758.39,0.033,-0.019,0.045,-1.023,0.591,-0.005,-83.737,46.434,36.029
1747651758.40,0.008,-0.023,0.054,-0.978,0.535,-0.018,-84.120,50.746,40.038
1747651758.41,-0.017,-0.033,0.015,-0.910,0.444,-0.001,-84.450,55.319,44.351
1747651758.42,-0.021,-0.027,-0.040,-0.799,0.436,-0.024,-84.717,59.865,48.666
1747651758.43,-0.016,-0.012,-0.026,-0.765,0.413,-0.038,-84.940,64.366,52.939
1747651758.44,-0.015,0.013,0.023,-0.734,0.340,-0.088,-85.142,68.966,57.340
1747651758.45,-0.028,0.015,-0.028,-0.677,0.283,-0.118,-85.329,73.501,61.713
1747651758.46,-0.010,0.005,-0.059,-0.631,0.228,-0.104,-85.483,77.944,66.024
1747651758.47,0.023,-0.001,-0.043,-0.621,0.154,-0.080,-85.596,82.437,70.421
1747651758.48,0.037,-0.005,-0.039,-0.644,0.107,-0.059,-85.668,87.167,75.091
1747651758.49,0.039,-0.011,-0.018,-0.636,0.076,-0.060,-85.704,92.095,79.981
1747651758.50,0.019,-0.010,-0.022,-0.567,0.059,-0.088,-85.719,96.776,84.638
1747651758.51,-0.004,0.004,-0.056,-0.458,0.090,-0.122,-85.733,100.808,88.640
1747651758.52,-0.015,0.032,-0.063,-0.329,0.172,-0.149,-85.760,104.070,91.836
1747651758.53,-0.021,0.052,-0.030,-0.221,0.195,-0.172,-85.808,106.553,94.218
1747651758.53,-0.043,0.057,-0.005,-0.158,0.152,-0.182,-85.872,108.461,96.031
1747651758.55,-0.075,0.037,0.006,-0.096,0.121,-0.173,-85.944,109.963,97.460
1747651758.56,-0.081,0.013,0.002,-0.079,0.127,-0.135,-86.011,111.100,98.531
1747651758.57,-0.055,-0.002,0.024,-0.150,0.168,-0.080,-86.044,112.367,99.717
1747651758.57,-0.027,-0.011,0.071,-0.220,0.196,-0.037,-86.033,114.079,101.329
1747651758.59,0.004,-0.022,0.082,-0.242,0.196,-0.020,-85.990,116.028,103.170
1747651758.59,0.040,-0.023,0.079,-0.228,0.209,-0.012,-85.938,117.902,104.934
1747651758.61,0.075,-0.023,0.086,-0.177,0.253,0.002,-85.884,119.488,106.391
1747651758.61,0.104,-0.025,0.103,-0.098,0.238,0.013,-85.841,120.531,107.294
1747651758.62,0.104,-0.018,0.077,-0.067,0.153,0.019,-85.810,121.105,107.755
1747651758.63,0.080,-0.010,0.088,-0.077,0.030,0.013,-85.781,121.558,108.155
1747651758.64,0.053,-0.009,0.091,-0.053,-0.086,-0.008,-85.758,121.970,108.584
1747651758.65,0.048,-0.006,0.069,0.003,-0.166,-0.034,-85.761,122.149,108.838
1747651758.66,0.054,0.004,0.059,0.029,-0.190,-0.052,-85.788,122.095,108.887
1747651758.67,0.046,0.003,0.090,0.008,-0.207,-0.062,-85.817,122.128,109.034
1747651758.68,0.007,-0.011,0.125,-0.027,-0.225,-0.075,-85.838,122.416,109.445
1747651758.70,-0.042,-0.020,0.138,-0.013,-0.218,-0.084,-85.860,122.831,109.988
1747651758.70,-0.068,-0.018,0.118,0.022,-0.185,-0.083,-85.894,123.078,110.352
1747651758.71,-0.066,-0.001,0.100,0.045,-0.174,-0.060,-85.931,123.110,110.486
1747651758.72,-0.046,0.016,0.095,0.066,-0.171,-0.023,-85.961,122.868,110.342
1747651758.73,-0.021,0.018,0.082,0.078,-0.137,0.006,-85.980,122.361,109.923
1747651758.74,-0.007,-0.001,0.090,0.092,-0.133,0.033,-85.990,121.669,109.304
1747651758.75,-0.018,-0.040,0.081,0.123,-0.165,0.051,-85.995,120.728,108.446
1747651758.76,-0.024,-0.055,0.008,0.161,-0.160,0.033,-86.009,119.590,107.399
1747651758.77,-0.008,-0.029,-0.039,0.182,-0.133,0.014,-86.041,118.407,106.297
1747651758.78,0.015,0.012,-0.032,0.225,-0.101,0.004,-86.089,117.032,104.982
1747651758.79,0.026,0.048,-0.011,0.275,-0.128,-0.017,-86.155,115.264,103.272
1747651758.80,0.005,0.081,0.009,0.364,-0.178,-0.039,-86.242,112.923,101.013
1747651758.81,-0.037,0.085,0.024,0.426,-0.196,-0.054,-86.349,109.786,97.977
1747651758.82,-0.078,0.044,0.059,0.423,-0.100,-0.051,-86.452,106.308,94.580
1747651758.83,-0.079,-0.002,0.101,0.419,0.001,-0.022,-86.532,102.712,91.004
1747651758.84,-0.055,-0.032,0.084,0.414,0.034,0.012,-86.579,98.829,87.101
1747651758.85,-0.029,-0.043,0.048,0.401,0.034,0.038,-86.594,94.932,83.176
1747651758.86,0.008,-0.045,0.049,0.397,-0.010,0.059,-86.577,91.112,79.340
1747651758.87,0.042,-0.045,0.062,0.393,-0.090,0.051,-86.542,87.355,75.603
1747651758.88,0.057,-0.036,0.059,0.470,-0.189,0.017,-86.502,83.339,71.660
1747651758.89,0.053,-0.015,0.025,0.628,-0.291,-0.044,-86.458,78.170,66.619
1747651758.90,0.030,0.023,-0.008,0.768,-0.385,-0.128,-86.400,71.587,60.218
1747651758.91,-0.015,0.061,0.009,0.901,-0.434,-0.196,-86.306,63.882,52.733
1747651758.92,-0.053,0.074,0.033,0.974,-0.472,-0.231,-86.141,55.631,44.723
1747651758.93,-0.078,0.064,0.047,0.988,-0.529,-0.238,-85.899,47.801,37.160
1747651758.94,-0.099,0.045,0.062,0.951,-0.558,-0.202,-85.590,41.032,30.686
1747651758.95,-0.092,0.002,0.106,0.922,-0.451,-0.121,-85.227,35.700,25.630
1747651758.96,-0.046,-0.047,0.139,0.859,-0.331,-0.058,-84.830,31.755,21.892
1747651758.97,-0.007,-0.072,0.151,0.803,-0.318,-0.029,-84.434,28.815,19.121
1747651758.98,0.021,-0.075,0.145,0.786,-0.393,-0.015,-84.040,26.428,16.924
1747651758.99,0.067,-0.075,0.114,0.810,-0.526,-0.033,-83.635,24.269,15.013
1747651759.00,0.107,-0.063,0.045,0.976,-0.682,-0.114,-83.190,21.894,12.973
1747651759.01,0.117,-0.023,-0.092,1.265,-0.683,-0.168,-82.617,19.079,10.533
1747651759.02,0.158,0.065,-0.134,1.361,-0.757,-0.206,-81.925,16.241,8.075
1747651759.03,0.121,0.109,-0.030,1.257,-0.917,-0.254,-81.234,13.585,5.876
1747651759.04,-0.017,0.057,0.024,1.170,-0.898,-0.214,-80.589,11.296,4.090
1747651759.05,-0.088,-0.063,0.007,1.155,-0.722,-0.148,-79.956,9.542,2.783
1747651759.06,-0.128,-0.137,-0.004,1.165,-0.487,-0.118,-79.313,8.239,1.811
1747651759.07,-0.164,-0.112,0.011,1.162,-0.244,-0.115,-78.663,7.233,0.998
1747651759.08,-0.156,-0.054,0.017,1.216,-0.064,-0.107,-78.001,6.450,0.286
1747651759.09,-0.101,-0.013,-0.023,1.332,0.054,-0.108,-77.283,5.823,-0.356
1747651759.10,-0.042,0.043,-0.038,1.382,0.014,-0.149,-76.515,5.216,-1.008
1747651759.11,-0.046,0.093,-0.013,1.384,-0.041,-0.153,-75.735,4.572,-1.657
1747651759.12,-0.056,0.085,-0.009,1.372,0.045,-0.140,-74.954,4.028,-2.218
1747651759.13,-0.058,0.039,0.026,1.341,0.130,-0.121,-74.185,3.619,-2.695
1747651759.14,-0.098,-0.011,0.084,1.317,0.174,-0.061,-73.431,3.368,-3.050
1747651759.15,-0.110,-0.036,0.103,1.299,0.159,-0.002,-72.684,3.265,-3.257
1747651759.16,-0.096,-0.019,0.098,1.225,0.105,0.042,-71.963,3.253,-3.351
1747651759.17,-0.044,-0.023,0.091,1.186,0.037,0.062,-71.276,3.268,-3.376
1747651759.18,0.042,-0.059,0.024,1.212,0.012,0.014,-70.593,3.238,-3.422
1747651759.19,0.141,-0.083,-0.033,1.304,-0.020,-0.100,-69.881,3.061,-3.608
1747651759.20,0.195,-0.052,-0.047,1.472,0.023,-0.203,-69.094,2.712,-3.974
1747651759.21,0.180,0.031,0.018,1.473,0.161,-0.258,-68.248,2.330,-4.443
1747651759.22,0.098,0.102,0.149,1.260,0.096,-0.254,-67.474,1.978,-4.914
1747651759.23,-0.056,0.104,0.171,1.243,-0.105,-0.164,-66.772,1.629,-5.286
1747651759.24,-0.168,0.057,-0.007,1.233,-0.060,-0.084,-66.060,1.370,-5.507
1747651759.25,-0.120,0.021,-0.010,1.110,-0.013,-0.058,-65.393,1.238,-5.636
1747651759.26,-0.031,-0.007,0.074,1.107,-0.096,-0.072,-64.767,1.104,-5.752
1747651759.27,0.046,-0.046,0.060,1.194,-0.187,-0.115,-64.111,0.893,-5.896
1747651759.28,0.124,-0.073,0.021,1.235,-0.285,-0.220,-63.416,0.551,-6.128
1747651759.29,0.117,-0.069,-0.030,1.279,-0.336,-0.349,-62.701,0.041,-6.495
1747651759.30,0.021,-0.050,-0.073,1.285,-0.140,-0.393,-61.964,-0.510,-6.954
1747651759.31,-0.083,-0.024,-0.030,1.242,0.148,-0.346,-61.240,-0.883,-7.383
1747651759.32,-0.171,-0.010,-0.016,1.217,0.424,-0.222,-60.535,-0.995,-7.698
1747651759.33,-0.177,0.001,-0.030,1.135,0.638,-0.034,-59.859,-0.790,-7.717
1747651759.34,-0.046,-0.000,-0.024,1.036,0.530,0.071,-59.242,-0.408,-7.675
1747651759.35,0.092,-0.009,-0.019,1.009,0.282,0.101,-58.661,-0.090,-7.457
1747651759.36,0.203,-0.025,-0.015,1.034,0.098,0.088,-58.080,0.108,-7.350
1747651759.37,0.281,-0.046,-0.020,1.092,-0.168,-0.009,-57.474,0.130,-7.125
1747651759.38,0.256,-0.069,-0.069,1.134,-0.423,-0.190,-56.836,-0.129,-7.227
1747651759.39,0.163,-0.080,-0.083,1.144,-0.539,-0.379,-56.190,-0.685,-7.363
1747651759.40,0.041,-0.070,-0.060,1.172,-0.310,-0.459,-55.524,-1.270,-7.773
1747651759.41,0.014,-0.055,-0.032,1.113,0.074,-0.464,-54.860,-1.699,-8.060
1747651759.42,-0.077,-0.046,0.036,1.024,0.239,-0.386,-54.245,-1.914,-8.451
1747651759.43,-0.162,-0.049,0.015,0.998,0.185,-0.159,-53.661,-1.987,-8.562
1747651759.44,-0.136,-0.041,-0.076,0.936,0.190,0.054,-53.108,-1.888,-8.568
1747651759.45,0.006,-0.012,-0.023,0.907,0.124,0.119,-52.587,-1.703,-8.361
1747651759.46,0.143,0.017,-0.004,0.960,-0.044,0.097,-52.058,-1.576,-8.230
1747651759.47,0.217,0.022,-0.030,1.023,-0.205,0.030,-51.491,-1.578,-8.056
1747651759.48,0.219,0.022,-0.065,1.034,-0.341,-0.134,-50.901,-1.748,-8.073
1747651759.49,0.129,0.021,-0.081,1.038,-0.391,-0.272,-50.306,-2.082,-8.165
1747651759.50,0.022,-0.027,-0.042,1.073,-0.264,-0.317,-49.697,-2.451,-8.395
1747651759.51,-0.054,-0.070,-0.005,1.079,-0.084,-0.297,-49.073,-2.723,-8.554
1747651759.52,-0.102,-0.088,0.012,1.027,0.034,-0.218,-48.462,-2.871,-8.738
1747651759.53,-0.103,-0.103,0.019,0.961,-0.025,-0.077,-47.891,-2.929,-8.772
1747651759.54,-0.038,-0.108,-0.019,0.934,-0.120,0.049,-47.352,-2.949,-8.741
1747651759.55,0.079,-0.063,-0.034,0.924,-0.193,0.087,-46.825,-2.960,-8.582
