Time,AccX,AccY,AccZ,GyroX,GyroY,GyroZ,Pitch,Roll,Yaw
1747652301.34,-0.029,0.012,-0.017,-0.005,-0.087,-0.015,-84.358,-16.712,-40.841
1747652301.35,-0.064,-0.008,-0.035,0.012,-0.048,-0.041,-84.350,-16.914,-41.003
1747652301.36,-0.072,-0.003,-0.047,0.022,0.007,-0.043,-84.332,-17.140,-41.220
1747652301.37,-0.050,0.012,-0.029,0.030,0.064,-0.022,-84.312,-17.262,-41.361
1747652301.38,-0.017,0.019,-0.002,0.029,0.099,-0.002,-84.295,-17.219,-41.367
1747652301.39,0.007,0.007,0.015,0.040,0.106,0.011,-84.278,-17.048,-41.254
1747652301.40,0.010,-0.011,0.011,0.024,0.080,0.022,-84.264,-16.814,-41.074
1747652301.41,0.005,-0.017,0.013,-0.000,0.055,0.024,-84.262,-16.610,-40.906
1747652301.42,0.010,-0.006,0.005,-0.001,0.048,0.015,-84.265,-16.480,-40.804
1747652301.43,0.024,0.004,-0.001,0.004,0.045,0.005,-84.263,-16.420,-40.772
1747652301.44,0.039,0.004,0.001,0.022,0.033,-0.001,-84.254,-16.393,-40.768
1747652301.45,0.049,-0.000,-0.004,0.035,0.006,-0.005,-84.236,-16.364,-40.749
1747652301.46,0.045,0.002,-0.016,0.036,-0.018,-0.017,-84.215,-16.375,-40.756
1747652301.47,0.023,0.008,-0.016,0.046,-0.041,-0.030,-84.190,-16.457,-40.822
1747652301.48,0.001,0.012,-0.020,0.040,-0.054,-0.027,-84.163,-16.572,-40.909
1747652301.49,-0.013,0.005,-0.018,0.036,-0.039,-0.016,-84.140,-16.643,-40.954
1747652301.50,-0.015,-0.008,-0.011,0.042,-0.007,-0.011,-84.117,-16.655,-40.954
1747652301.51,-0.004,-0.011,-0.006,0.031,-0.005,-0.003,-84.096,-16.614,-40.909
1747652301.52,0.011,-0.006,0.000,0.023,-0.009,-0.003,-84.083,-16.552,-40.843
1747652301.53,0.020,-0.001,0.005,0.011,-0.023,-0.001,-84.076,-16.468,-40.751
1747652301.54,0.019,0.003,0.005,-0.011,-0.035,0.012,-84.076,-16.379,-40.647
1747652301.55,0.016,0.002,0.004,-0.024,-0.045,0.019,-84.088,-16.306,-40.550
1747652301.56,0.020,-0.005,0.014,-0.024,-0.064,0.027,-84.102,-16.236,-40.450
1747652301.57,0.023,-0.013,0.013,-0.026,-0.074,0.022,-84.117,-16.196,-40.367
1747652301.58,0.017,-0.015,0.011,-0.018,-0.080,0.008,-84.128,-16.218,-40.345
1747652301.59,0.012,-0.011,0.011,-0.017,-0.094,-0.004,-84.136,-16.295,-40.371
1747652301.60,0.012,-0.001,0.008,-0.007,-0.126,-0.021,-84.141,-16.421,-40.436
1747652301.61,0.011,0.008,0.002,0.015,-0.163,-0.031,-84.136,-16.602,-40.533
1747652301.62,0.000,0.016,-0.020,0.025,-0.152,-0.024,-84.122,-16.776,-40.616
1747652301.63,-0.009,0.014,-0.019,0.029,-0.097,-0.006,-84.106,-16.862,-40.632
1747652301.64,-0.007,0.001,-0.003,0.031,-0.061,0.008,-84.092,-16.820,-40.545
1747652301.65,-0.011,-0.010,-0.008,0.024,-0.063,0.013,-84.082,-16.723,-40.414
1747652301.66,-0.025,-0.015,-0.019,0.027,-0.056,0.010,-84.072,-16.637,-40.293
1747652301.67,-0.030,-0.021,-0.026,0.030,-0.001,0.016,-84.059,-16.527,-40.165
1747652301.68,-0.017,-0.020,-0.024,0.015,0.067,0.029,-84.052,-16.336,-39.993
1747652301.69,-0.008,-0.012,-0.003,0.004,0.061,0.039,-84.054,-16.090,-39.786
1747652301.70,-0.020,-0.007,-0.007,0.020,0.037,0.066,-84.054,-15.769,-39.491
1747652301.71,-0.027,-0.019,-0.026,0.037,-0.020,0.071,-84.045,-15.357,-39.082
1747652301.72,-0.020,-0.028,-0.062,0.039,-0.033,0.047,-84.033,-15.016,-38.721
1747652301.73,0.008,-0.014,-0.091,0.064,-0.008,0.010,-84.008,-14.816,-38.505
1747652301.74,0.038,0.003,-0.086,0.081,0.035,-0.010,-83.965,-14.737,-38.435
1747652301.75,0.063,0.026,-0.064,0.103,0.008,0.009,-83.913,-14.629,-38.341
1747652301.76,0.079,0.037,-0.054,0.146,-0.039,0.037,-83.845,-14.358,-38.059
1747652301.77,0.073,0.032,-0.060,0.169,-0.109,0.069,-83.764,-13.930,-37.588
1747652301.78,0.065,0.018,-0.031,0.178,-0.230,0.092,-83.677,-13.406,-36.965
1747652301.79,0.050,0.010,-0.028,0.132,-0.298,0.114,-83.601,-12.862,-36.261
1747652301.80,0.036,-0.006,-0.042,0.062,-0.232,0.111,-83.560,-12.353,-35.593
1747652301.81,0.043,-0.039,0.006,0.046,-0.173,0.089,-83.541,-11.902,-35.027
1747652301.82,0.034,-0.066,0.050,0.057,-0.205,0.057,-83.516,-11.569,-34.585
1747652301.83,-0.010,-0.052,0.034,0.053,-0.249,0.026,-83.489,-11.409,-34.293
1747652301.84,-0.061,-0.004,0.032,0.054,-0.261,-0.007,-83.459,-11.443,-34.180
1747652301.85,-0.090,0.039,0.038,0.060,-0.214,-0.016,-83.423,-11.567,-34.168
1747652301.86,-0.084,0.063,0.047,0.066,-0.161,-0.029,-83.385,-11.706,-34.201
1747652301.86,-0.079,0.061,0.049,0.077,-0.121,-0.052,-83.340,-11.902,-34.317
1747652301.88,-0.094,0.050,0.025,0.059,-0.059,-0.060,-83.293,-12.145,-34.508
1747652301.88,-0.101,0.034,0.038,0.030,0.034,-0.059,-83.262,-12.383,-34.740
1747652301.90,-0.096,0.014,0.082,-0.003,0.139,-0.046,-83.248,-12.573,-34.984
1747652301.90,-0.091,-0.007,0.110,-0.028,0.162,-0.010,-83.253,-12.644,-35.146
1747652301.91,-0.071,-0.032,0.107,-0.029,0.134,0.047,-83.271,-12.518,-35.105
1747652301.93,-0.017,-0.056,0.061,-0.047,0.115,0.100,-83.300,-12.146,-34.802
1747652301.93,0.067,-0.057,0.035,-0.062,0.074,0.123,-83.345,-11.611,-34.320
1747652301.94,0.126,-0.039,0.039,-0.038,0.007,0.103,-83.388,-11.098,-33.826
1747652301.95,0.133,-0.006,0.030,0.012,-0.078,0.066,-83.405,-10.728,-33.434
1747652301.96,0.105,0.031,0.019,0.070,-0.212,0.041,-83.385,-10.524,-33.147
1747652301.97,0.073,0.048,-0.012,0.078,-0.349,0.034,-83.346,-10.450,-32.911
1747652301.98,0.062,0.034,-0.044,0.085,-0.454,0.039,-83.305,-10.440,-32.668
1747652301.99,0.072,0.004,-0.062,0.115,-0.470,0.030,-83.254,-10.455,-32.413
1747652302.00,0.074,-0.020,-0.068,0.121,-0.412,0.008,-83.190,-10.504,-32.209
1747652302.01,0.053,-0.022,-0.039,0.145,-0.351,-0.024,-83.115,-10.636,-32.122
1747652302.02,-0.000,-0.014,-0.033,0.181,-0.259,-0.048,-83.020,-10.832,-32.142
1747652302.03,-0.054,-0.003,-0.033,0.188,-0.131,-0.048,-82.911,-10.992,-32.190
1747652302.04,-0.082,0.009,-0.003,0.165,-0.014,-0.033,-82.808,-11.047,-32.207
1747652302.05,-0.097,0.018,0.033,0.168,0.062,-0.025,-82.712,-11.006,-32.180
1747652302.06,-0.106,0.026,0.026,0.172,0.129,-0.008,-82.614,-10.876,-32.103
1747652302.07,-0.094,0.024,0.026,0.163,0.171,0.022,-82.518,-10.618,-31.931
1747652302.08,-0.060,0.011,0.039,0.154,0.176,0.042,-82.433,-10.253,-31.665
1747652302.09,-0.022,-0.009,0.045,0.153,0.160,0.039,-82.350,-9.858,-31.364
1747652302.10,0.008,-0.012,0.036,0.130,0.161,0.025,-82.272,-9.516,-31.110
1747652302.11,0.029,-0.005,0.041,0.105,0.155,-0.007,-82.207,-9.310,-30.995
1747652302.12,0.036,0.003,0.053,0.083,0.113,-0.027,-82.152,-9.247,-31.009
1747652302.13,0.039,0.008,0.046,0.079,0.056,-0.028,-82.105,-9.266,-31.077
1747652302.14,0.053,0.009,0.028,0.083,-0.018,-0.017,-82.056,-9.293,-31.115
1747652302.16,0.072,0.001,0.005,0.081,-0.095,-0.011,-82.009,-9.339,-31.128
1747652302.16,0.092,-0.010,-0.020,0.080,-0.138,-0.011,-81.964,-9.402,-31.123
1747652302.17,0.101,-0.016,-0.029,0.093,-0.156,-0.024,-81.915,-9.492,-31.130
1747652302.18,0.086,-0.006,-0.025,0.101,-0.190,-0.044,-81.857,-9.662,-31.202
1747652302.19,0.043,0.010,-0.029,0.090,-0.216,-0.053,-81.799,-9.904,-31.329
1747652302.20,0.009,0.006,-0.041,0.088,-0.197,-0.053,-81.745,-10.167,-31.473
1747652302.21,-0.000,-0.005,-0.047,0.086,-0.143,-0.043,-81.693,-10.392,-31.601
1747652302.22,0.004,-0.013,-0.036,0.084,-0.088,-0.023,-81.642,-10.522,-31.668
1747652302.23,0.010,-0.016,-0.022,0.059,-0.076,-0.004,-81.601,-10.549,-31.650
1747652302.24,0.014,-0.016,-0.006,0.042,-0.116,0.004,-81.573,-10.533,-31.581
1747652302.25,0.017,-0.008,-0.005,0.037,-0.169,0.013,-81.552,-10.515,-31.481
1747652302.26,0.022,-0.000,-0.018,0.039,-0.156,0.033,-81.533,-10.462,-31.332
1747652302.27,0.043,-0.002,-0.019,0.045,-0.134,0.042,-81.512,-10.348,-31.135
1747652302.28,0.055,0.000,-0.006,0.063,-0.162,0.035,-81.484,-10.245,-30.947
1747652302.29,0.035,0.003,-0.017,0.062,-0.191,0.028,-81.448,-10.182,-30.780
1747652302.30,0.003,-0.001,-0.025,0.075,-0.201,0.013,-81.411,-10.168,-30.652
1747652302.31,-0.032,-0.010,-0.019,0.116,-0.179,-0.003,-81.357,-10.191,-30.565
1747652302.32,-0.062,-0.020,-0.016,0.156,-0.132,-0.013,-81.279,-10.215,-30.498
1747652302.33,-0.071,-0.017,-0.016,0.189,-0.073,-0.015,-81.181,-10.208,-30.433
1747652302.34,-0.067,-0.003,-0.014,0.228,-0.034,-0.016,-81.061,-10.152,-30.346
1747652302.35,-0.061,0.011,-0.023,0.245,0.005,-0.002,-80.926,-10.032,-30.217
1747652302.36,-0.046,0.017,-0.022,0.251,0.044,0.013,-80.787,-9.832,-30.030
1747652302.37,-0.031,0.016,0.006,0.266,0.041,0.032,-80.643,-9.566,-29.788
1747652302.38,-0.027,0.009,0.026,0.278,-0.007,0.038,-80.492,-9.282,-29.512
1747652302.39,-0.030,-0.000,0.030,0.282,-0.086,0.036,-80.337,-9.042,-29.243
1747652302.40,-0.029,-0.001,0.018,0.290,-0.128,0.036,-80.181,-8.858,-28.991
1747652302.41,-0.018,-0.005,0.012,0.329,-0.103,0.024,-80.010,-8.697,-28.758
1747652302.42,0.005,-0.013,0.023,0.393,-0.094,0.002,-79.808,-8.549,-28.554
1747652302.43,0.012,-0.011,0.016,0.471,-0.110,-0.014,-79.563,-8.449,-28.391
1747652302.44,-0.002,0.001,-0.016,0.513,-0.107,-0.019,-79.282,-8.337,-28.215
1747652302.45,-0.018,0.020,-0.018,0.568,-0.144,-0.033,-78.977,-8.254,-28.059
1747652302.46,-0.038,0.026,-0.013,0.662,-0.124,-0.042,-78.626,-8.190,-27.910
1747652302.47,-0.054,0.023,-0.029,0.690,-0.030,-0.028,-78.237,-8.066,-27.738
1747652302.48,-0.051,0.017,0.019,0.680,0.030,0.002,-77.849,-7.848,-27.518
1747652302.49,-0.067,-0.001,0.066,0.679,0.073,0.048,-77.466,-7.519,-27.210
1747652302.50,-0.086,-0.020,0.060,0.661,0.142,0.114,-77.092,-7.040,-26.781
1747652302.51,-0.078,-0.033,0.057,0.658,0.181,0.164,-76.728,-6.411,-26.232
1747652302.52,-0.067,-0.052,0.042,0.685,0.174,0.172,-76.357,-5.733,-25.641
1747652302.53,-0.051,-0.050,-0.001,0.694,0.139,0.135,-75.974,-5.132,-25.115
1747652302.54,-0.018,-0.023,-0.008,0.750,0.042,0.067,-75.571,-4.707,-24.732
1747652302.55,0.008,0.014,0.001,0.872,-0.033,-0.007,-75.110,-4.502,-24.516
1747652302.56,0.020,0.054,0.002,0.928,0.021,-0.045,-74.593,-4.418,-24.425
1747652302.57,0.048,0.081,0.103,0.904,-0.073,-0.057,-74.067,-4.390,-24.388
1747652302.58,0.031,0.071,0.143,0.910,-0.243,-0.043,-73.550,-4.446,-24.350
1747652302.59,-0.046,0.023,0.042,0.899,-0.224,0.035,-73.032,-4.468,-24.225
1747652302.60,-0.082,-0.029,0.004,0.812,-0.085,0.102,-72.547,-4.302,-23.958
1747652302.61,-0.074,-0.054,0.049,0.796,0.017,0.130,-72.098,-3.998,-23.622
1747652302.62,-0.063,-0.053,0.032,0.855,0.056,0.149,-71.634,-3.643,-23.272
1747652302.63,-0.034,-0.025,-0.013,0.901,0.049,0.130,-71.138,-3.280,-22.924
1747652302.64,0.013,0.009,-0.035,0.973,0.004,0.110,-70.610,-2.975,-22.615
1747652302.65,0.044,0.015,-0.051,1.067,-0.012,0.034,-70.028,-2.777,-22.403
1747652302.66,0.063,0.008,-0.018,1.059,-0.049,-0.050,-69.417,-2.732,-22.336
1747652302.67,0.074,0.012,0.034,1.004,-0.008,-0.061,-68.828,-2.766,-22.351
1747652302.68,0.062,0.002,0.067,0.996,0.053,-0.020,-68.257,-2.742,-22.343
1747652302.69,0.028,-0.018,0.073,0.976,0.081,0.055,-67.694,-2.619,-22.252
1747652302.70,-0.023,-0.037,0.030,0.962,0.110,0.152,-67.143,-2.366,-22.038
1747652302.71,-0.041,-0.041,-0.030,0.926,0.101,0.197,-66.608,-2.020,-21.727
1747652302.72,-0.010,-0.023,-0.046,0.918,0.099,0.236,-66.087,-1.652,-21.388
1747652302.73,0.048,0.004,-0.000,0.975,0.103,0.201,-65.554,-1.276,-21.038
1747652302.74,0.098,0.019,0.028,1.067,0.032,0.134,-64.971,-1.000,-20.782
1747652302.75,0.117,0.031,0.021,1.112,-0.107,0.076,-64.349,-0.873,-20.619
1747652302.76,0.104,0.017,0.000,1.100,-0.206,0.043,-63.715,-0.880,-20.524
1747652302.77,0.082,-0.006,0.020,1.033,-0.138,0.057,-63.104,-0.913,-20.443
1747652302.78,0.066,-0.039,0.109,0.951,-0.063,0.093,-62.541,-0.864,-20.328
1747652302.79,0.019,-0.054,0.159,0.926,-0.119,0.139,-62.006,-0.777,-20.174
1747652302.80,-0.071,-0.037,0.020,0.847,-0.138,0.217,-61.499,-0.650,-19.945
1747652302.81,-0.070,0.002,-0.013,0.773,-0.145,0.273,-61.040,-0.462,-19.640
1747652302.82,0.006,0.045,0.056,0.781,-0.214,0.292,-60.600,-0.267,-19.301
1747652302.83,0.079,0.085,0.064,0.829,-0.309,0.272,-60.141,-0.126,-18.967
1747652302.84,0.099,0.130,0.046,0.910,-0.406,0.179,-59.645,-0.104,-18.705
1747652302.85,0.046,0.155,0.032,1.019,-0.444,0.074,-59.096,-0.226,-18.561
1747652302.86,-0.047,0.128,0.022,1.121,-0.358,-0.003,-58.483,-0.424,-18.518
1747652302.87,-0.136,0.052,-0.007,1.060,-0.163,-0.031,-57.853,-0.582,-18.527
1747652302.88,-0.187,-0.037,0.038,0.986,0.067,-0.023,-57.274,-0.628,-18.546
1747652302.89,-0.217,-0.110,0.071,0.937,0.315,0.029,-56.722,-0.509,-18.537
1747652302.90,-0.186,-0.140,0.028,0.879,0.398,0.118,-56.207,-0.228,-18.456
1747652302.91,-0.100,-0.118,-0.009,0.849,0.304,0.178,-55.714,0.099,-18.302
1747652302.92,-0.037,-0.054,-0.027,0.852,0.294,0.204,-55.231,0.426,-18.109
1747652302.93,0.044,0.013,0.057,0.895,0.221,0.185,-54.732,0.734,-17.921
1747652302.94,0.095,0.064,0.061,0.921,0.085,0.142,-54.213,0.941,-17.772
1747652302.95,0.071,0.104,0.001,0.946,0.019,0.085,-53.677,1.046,-17.676
1747652302.96,0.039,0.138,-0.013,0.951,-0.024,-0.000,-53.135,1.064,-17.651
1747652302.97,-0.001,0.149,0.003,0.964,-0.028,-0.068,-52.590,1.012,-17.696
1747652302.98,-0.040,0.114,0.039,0.979,0.025,-0.122,-52.035,0.926,-17.804
1747652302.99,-0.050,0.056,0.090,0.949,0.002,-0.093,-51.486,0.845,-17.923
1747652303.00,-0.035,-0.015,0.039,0.909,-0.026,-0.012,-50.955,0.793,-17.977
1747652303.01,0.014,-0.094,-0.047,0.883,-0.035,0.050,-50.445,0.780,-17.972
1747652303.02,0.079,-0.138,-0.030,0.885,-0.107,0.103,-49.939,0.788,-17.912
1747652303.03,0.121,-0.145,-0.031,0.894,-0.187,0.116,-49.431,0.767,-17.826
1747652303.04,0.123,-0.105,-0.030,0.908,-0.232,0.032,-48.915,0.693,-17.769
1747652303.05,0.096,-0.040,-0.028,0.925,-0.296,-0.036,-48.391,0.533,-17.779
1747652303.06,0.046,0.017,-0.035,0.959,-0.273,-0.074,-47.854,0.324,-17.835
1747652303.07,0.017,0.053,-0.015,0.969,-0.116,-0.073,-47.302,0.159,-17.902
1747652303.08,0.031,0.056,0.033,0.951,-0.019,-0.069,-46.753,0.082,-17.964
1747652303.09,0.028,0.031,0.048,0.941,-0.039,-0.033,-46.215,0.029,-18.013
1747652303.10,0.018,-0.032,-0.022,0.951,-0.011,0.044,-45.674,0.016,-18.010
1747652303.11,0.061,-0.105,-0.045,0.923,-0.032,0.104,-45.139,0.053,-17.947
1747652303.12,0.096,-0.152,-0.034,0.928,-0.131,0.120,-44.611,0.071,-17.856
1747652303.13,0.100,-0.168,-0.062,0.951,-0.220,0.080,-44.076,0.028,-17.775
1747652303.14,0.079,-0.129,-0.025,0.991,-0.246,0.030,-43.520,-0.078,-17.731
1747652303.15,0.047,-0.072,-0.013,1.016,-0.202,-0.001,-42.947,-0.199,-17.718
1747652303.16,0.031,-0.024,0.024,1.025,-0.126,-0.012,-42.363,-0.295,-17.721
1747652303.17,0.004,0.007,0.058,0.983,-0.089,0.005,-41.790,-0.352,-17.720
1747652303.18,-0.014,0.013,0.028,0.953,-0.015,0.048,-41.237,-0.365,-17.695
1747652303.19,-0.002,0.001,0.019,0.918,0.029,0.084,-40.704,-0.323,-17.640
1747652303.20,0.026,-0.004,0.010,0.923,-0.015,0.092,-40.180,-0.268,-17.568
1747652303.21,0.046,-0.009,-0.034,0.946,-0.142,0.061,-39.647,-0.272,-17.506
1747652303.22,0.027,-0.011,-0.045,0.954,-0.227,0.010,-39.104,-0.361,-17.476
1747652303.23,-0.017,0.008,-0.024,0.960,-0.244,-0.033,-38.558,-0.499,-17.479
1747652303.24,-0.046,0.032,0.013,0.974,-0.214,-0.068,-38.006,-0.652,-17.510
1747652303.25,-0.072,0.036,0.042,0.974,-0.106,-0.075,-37.447,-0.773,-17.555
1747652303.26,-0.077,0.031,0.034,0.954,-0.020,-0.042,-36.896,-0.824,-17.585
1747652303.27,-0.059,0.029,0.006,0.954,-0.002,-0.066,-36.349,-0.847,-17.615
1747652303.28,-0.053,0.022,-0.003,0.952,0.074,-0.096,-35.804,-0.853,-17.660
1747652303.29,-0.047,0.041,0.034,0.942,0.077,-0.169,-35.263,-0.851,-17.741
1747652303.30,-0.066,0.064,0.041,0.940,-0.060,-0.223,-34.724,-0.921,-17.873
1747652303.31,-0.110,0.068,-0.010,0.947,-0.119,-0.151,-34.183,-1.045,-17.992
1747652303.32,-0.095,0.069,-0.023,0.956,-0.128,-0.228,-33.636,-1.184,-18.114
1747652303.33,-0.047,0.080,0.002,0.946,-0.105,-0.253,-33.090,-1.335,-18.267
1747652303.34,0.025,0.073,0.017,0.952,-0.114,-0.261,-32.544,-1.482,-18.426
1747652303.35,0.069,0.049,0.048,0.939,-0.122,-0.246,-32.001,-1.634,-18.580
1747652303.36,0.095,0.027,0.051,0.945,-0.097,-0.224,-31.459,-1.772,-18.720
1747652303.37,0.107,0.010,0.042,0.932,-0.037,-0.159,-30.919,-1.866,-18.823
1747652303.38,0.080,-0.011,0.020,0.915,0.005,-0.211,-30.388,-1.925,-18.931
1747652303.39,0.048,0.005,-0.004,0.902,-0.038,-0.174,-29.866,-1.987,-19.038
1747652303.40,0.024,0.040,0.004,0.896,-0.037,-0.134,-29.349,-2.050,-19.118
1747652303.41,0.002,0.077,0.026,0.898,-0.060,-0.112,-28.835,-2.102,-19.176
1747652303.42,-0.011,0.091,0.032,0.921,-0.098,-0.112,-28.314,-2.174,-19.226
1747652303.43,-0.011,0.089,0.023,0.940,-0.079,-0.142,-27.779,-2.253,-19.284
1747652303.44,0.019,0.095,0.053,0.970,-0.056,-0.206,-27.230,-2.331,-19.371
1747652303.45,0.043,0.065,0.040,0.989,-0.117,-0.249,-26.666,-2.433,-19.493
1747652303.46,0.038,0.028,0.032,0.971,-0.151,-0.199,-26.099,-2.566,-19.612
1747652303.47,0.057,-0.011,0.028,0.962,-0.145,-0.104,-25.546,-2.680,-19.680
1747652303.48,0.135,-0.044,0.002,0.953,-0.151,-0.034,-24.998,-2.773,-19.694
1747652303.49,0.167,-0.047,-0.020,0.939,-0.119,0.021,-24.459,-2.840,-19.669
1747652303.50,0.127,-0.022,-0.003,0.953,-0.118,0.048,-23.921,-2.885,-19.618
1747652303.51,0.041,0.002,0.013,0.946,-0.101,0.040,-23.381,-2.925,-19.558
1747652303.52,-0.046,0.017,0.011,0.951,-0.085,0.010,-22.840,-2.961,-19.513
1747652303.53,-0.069,-0.010,0.013,0.955,-0.037,-0.019,-22.296,-2.985,-19.485
1747652303.54,-0.021,-0.040,0.032,0.971,-0.012,-0.037,-21.748,-2.994,-19.472
1747652303.55,0.053,-0.059,0.032,0.996,-0.024,-0.039,-21.184,-2.999,-19.465
1747652303.56,0.093,-0.072,0.006,0.992,-0.075,-0.050,-20.615,-3.024,-19.459
1747652303.57,0.083,-0.071,-0.022,0.969,-0.128,-0.046,-20.055,-3.081,-19.457
1747652303.58,0.044,-0.069,-0.031,0.955,-0.122,-0.031,-19.505,-3.154,-19.449
1747652303.59,-0.001,-0.049,-0.022,0.949,-0.026,-0.016,-18.961,-3.193,-19.433
1747652303.60,-0.029,-0.024,0.011,0.943,0.025,0.005,-18.422,-3.178,-19.406
1747652303.61,-0.025,0.023,0.034,0.947,0.018,0.033,-17.884,-3.153,-19.099
1747652303.62,-0.003,0.080,0.021,0.951,-0.020,0.038,-17.344,-3.135,-19.046
1747652303.63,0.032,0.100,-0.002,0.955,-0.081,0.031,-16.802,-3.149,-18.742
1747652303.64,0.056,0.089,-0.008,0.965,-0.124,0.002,-16.256,-3.198,-18.702
1747652303.65,0.053,0.052,0.009,1.011,-0.129,-0.056,-15.693,-3.265,-18.448
1747652303.66,0.025,-0.004,0.016,1.068,-0.075,-0.086,-15.097,-3.331,-18.204
1747652303.67,-0.003,-0.086,0.020,1.048,0.080,-0.098,-14.486,-3.336,-18.222
1747652303.68,0.008,-0.106,0.024,0.977,0.145,-0.110,-13.907,-3.273,-18.015
1747652303.69,-0.012,-0.089,-0.051,0.952,0.118,-0.082,-13.355,-3.208,-18.041
1747652303.70,-0.050,-0.015,-0.057,0.968,0.211,-0.026,-12.807,-3.116,-17.828
1747652303.71,-0.040,0.097,0.020,1.034,0.196,-0.018,-12.237,-2.988,-17.807
1747652303.72,-0.029,0.156,0.029,1.057,0.050,-0.050,-11.636,-2.915,-17.595
1747652303.73,-0.034,0.177,-0.007,1.081,-0.016,-0.094,-11.029,-2.908,-17.604
1747652303.74,0.035,0.144,-0.018,1.101,-0.113,-0.146,-10.401,-2.951,-17.470
1747652303.75,0.065,0.023,-0.015,1.138,-0.118,-0.181,-9.762,-3.033,-17.529
1747652303.76,0.076,-0.041,0.026,1.157,-0.031,-0.237,-9.098,-3.092,-17.453
1747652303.77,0.034,-0.113,0.061,1.122,0.090,-0.224,-8.440,-3.088,-17.554
1747652303.78,0.004,-0.122,-0.007,1.066,0.138,-0.135,-7.809,-3.030,-17.471
1747652303.79,-0.032,-0.063,-0.081,1.005,0.176,-0.040,-7.217,-2.944,-17.490
1747652303.80,-0.049,0.066,-0.075,0.973,0.232,0.011,-6.654,-2.825,-17.312
1747652303.81,-0.023,0.166,-0.027,1.003,0.252,0.016,-6.093,-2.680,-17.276
1747652303.82,-0.047,0.202,0.025,1.056,0.209,-0.015,-5.506,-2.544,-17.100
1747652303.83,-0.064,0.185,0.023,1.083,0.134,-0.046,-4.893,-2.445,-17.093
1747652303.84,-0.038,0.134,-0.016,1.126,0.043,-0.123,-4.259,-2.396,-16.990
1747652303.85,-0.011,0.057,-0.063,1.143,0.060,-0.181,-3.610,-2.380,-17.048
1747652303.86,-0.004,-0.054,-0.054,1.105,0.094,-0.216,-2.960,-2.346,-17.011
1747652303.87,0.004,-0.064,-0.016,1.057,0.186,-0.222,-2.338,-2.270,-17.112
1747652303.88,-0.012,-0.040,-0.024,1.023,0.211,-0.202,-1.740,-2.157,-17.109
1747652303.89,-0.059,0.013,-0.061,0.976,0.219,-0.148,-1.166,-2.038,-17.189
1747652303.90,-0.105,0.088,-0.051,0.983,0.242,-0.095,-0.608,-1.907,-17.131
1747652303.91,-0.117,0.212,0.050,1.019,0.243,-0.104,-0.034,-1.770,-17.166
1747652303.92,-0.113,0.311,0.098,0.999,0.216,-0.154,0.544,-1.633,-17.132
1747652303.93,-0.052,0.249,0.012,0.968,0.056,-0.171,1.111,-1.552,-17.212
1747652303.94,0.009,0.110,-0.092,0.942,-0.103,-0.259,1.663,-1.565,-17.247
1747652303.95,0.052,-0.019,-0.118,0.982,-0.114,-0.322,2.210,-1.627,-17.398
1747652303.96,0.046,-0.167,-0.079,1.043,0.022,-0.375,2.801,-1.648,-17.519
1747652303.97,-0.019,-0.169,-0.007,0.999,0.185,-0.445,3.391,-1.573,-17.737
1747652303.98,-0.117,-0.138,0.028,0.987,0.337,-0.471,3.966,-1.395,-17.934
1747652303.99,-0.124,-0.220,-0.032,0.928,0.390,-0.394,4.513,-1.169,-18.169
1747652304.00,-0.017,-0.210,-0.048,0.924,0.398,-0.368,5.047,-0.926,-18.341
1747652304.01,0.037,-0.103,-0.065,0.927,0.357,-0.363,5.576,-0.691,-18.544
1747652304.02,0.078,0.107,-0.008,0.979,0.290,-0.346,6.122,-0.483,-18.719
1747652304.03,0.082,0.322,0.085,1.002,0.233,-0.321,6.690,-0.314,-18.908
1747652304.04,0.046,0.359,0.123,1.036,0.231,-0.261,7.272,-0.162,-19.063
1747652304.05,0.029,0.201,0.061,1.018,0.227,-0.201,7.861,-0.014,-19.198
1747652304.06,0.060,0.044,-0.035,1.001,0.138,-0.241,8.443,0.109,-19.325
1747652304.07,0.115,-0.042,-0.107,0.977,0.062,-0.279,9.004,0.188,-19.477
1747652304.08,0.127,-0.130,-0.095,1.013,0.054,-0.286,9.573,0.246,-19.674
1747652304.09,0.109,-0.094,-0.091,0.991,0.094,-0.279,10.146,0.318,-19.843
1747652304.10,0.027,-0.014,-0.043,0.977,0.104,-0.247,10.704,0.403,-20.027
1747652304.11,-0.041,0.050,-0.036,1.035,0.122,-0.189,11.277,0.491,-20.158
1747652304.12,-0.063,0.119,-0.001,1.054,0.118,-0.175,11.875,0.583,-20.283
1747652304.13,-0.027,0.224,0.028,1.038,0.058,-0.194,12.471,0.661,-20.397
1747652304.14,0.027,0.237,0.034,1.038,-0.049,-0.222,13.062,0.691,-20.564
1747652304.15,0.024,0.127,0.043,1.054,-0.131,-0.233,13.655,0.673,-20.699
1747652304.16,0.017,0.012,-0.030,1.020,-0.150,-0.254,14.248,0.627,-20.885
1747652304.17,-0.009,-0.138,-0.120,0.978,-0.127,-0.305,14.828,0.613,-21.068
1747652304.18,-0.016,-0.139,-0.141,0.923,-0.061,-0.264,15.364,0.601,-21.280
1747652304.19,-0.023,-0.109,-0.069,0.885,-0.004,-0.271,15.879,0.632,-21.445
1747652304.20,-0.048,-0.083,-0.046,0.852,-0.028,-0.239,16.373,0.668,-21.669
1747652304.21,-0.032,-0.043,-0.034,0.803,-0.030,-0.210,16.845,0.690,-21.808
1747652304.22,-0.009,-0.042,-0.035,0.768,-0.039,-0.188,17.291,0.708,-21.988
1747652304.23,0.005,-0.020,-0.029,0.758,-0.061,-0.173,17.726,0.715,-22.102
1747652304.24,0.025,0.008,-0.027,0.724,-0.077,-0.152,18.148,0.707,-22.271
1747652304.25,0.052,-0.034,-0.038,0.700,-0.069,-0.124,18.551,0.695,-22.360
1747652304.26,0.065,-0.070,-0.058,0.683,-0.054,-0.083,18.947,0.682,-22.496
1747652304.27,0.062,-0.067,-0.066,0.663,-0.047,-0.033,19.326,0.672,-22.530
1747652304.28,0.087,-0.030,-0.065,0.602,-0.041,-0.003,19.687,0.652,-22.616
1747652304.29,0.081,-0.132,-0.066,0.550,-0.025,0.027,20.016,0.630,-22.612
1747652304.30,0.093,-0.116,-0.033,0.521,0.022,0.028,20.321,0.623,-22.670
1747652304.31,0.076,-0.074,-0.001,0.502,0.059,0.046,20.611,0.643,-22.652
1747652304.32,0.061,-0.015,0.011,0.516,0.037,0.105,20.901,0.657,-22.674
1747652304.33,0.050,0.080,-0.026,0.545,0.016,0.154,21.205,0.642,-22.598
1747652304.34,0.034,0.148,-0.068,0.541,0.050,0.176,21.517,0.627,-22.569
1747652304.35,0.006,0.155,-0.066,0.570,0.067,0.161,21.835,0.625,-22.470
1747652304.36,-0.056,0.100,-0.067,0.524,0.077,0.162,22.150,0.632,-22.455
1747652304.37,-0.045,-0.017,-0.034,0.446,0.040,0.155,22.428,0.630,-22.360
1747652304.38,0.033,-0.115,-0.048,0.398,-0.027,0.140,22.670,0.601,-22.354
1747652304.39,0.072,-0.157,-0.043,0.355,-0.097,0.101,22.886,0.537,-22.283
1747652304.40,0.049,-0.138,-0.030,0.322,-0.106,0.087,23.077,0.454,-22.288
1747652304.41,-0.005,-0.100,-0.025,0.318,-0.025,0.087,23.262,0.394,-22.237
1747652304.42,-0.070,-0.078,-0.014,0.297,0.072,0.081,23.438,0.388,-22.259
1747652304.43,-0.099,-0.067,-0.007,0.271,0.116,0.073,23.600,0.426,-22.213
1747652304.44,-0.066,-0.061,-0.017,0.224,0.108,0.079,23.743,0.472,-22.238
1747652304.45,0.004,-0.067,-0.040,0.176,0.062,0.067,23.858,0.502,-22.193
1747652304.46,0.044,-0.060,-0.065,0.138,0.038,0.061,23.947,0.516,-22.228
1747652304.47,0.041,-0.034,-0.065,0.113,0.017,0.070,24.019,0.515,-22.189
1747652304.48,0.026,-0.029,-0.059,0.081,0.002,0.080,24.076,0.502,-22.204
1747652304.49,0.018,-0.041,-0.067,0.069,-0.020,0.084,24.119,0.477,-22.153
1747652304.50,0.024,-0.040,-0.071,0.038,-0.040,0.080,24.150,0.440,-22.162
1747652304.51,0.034,-0.029,-0.065,0.003,-0.055,0.087,24.161,0.390,-22.109
1747652304.52,0.023,-0.009,-0.056,-0.020,-0.030,0.093,24.156,0.342,-22.110
1747652304.53,-0.009,0.010,-0.047,-0.028,-0.011,0.104,24.143,0.305,-22.049
1747652304.54,-0.024,0.033,-0.056,-0.027,-0.025,0.111,24.128,0.268,-22.041
1747652304.55,-0.012,0.080,-0.065,-0.039,-0.038,0.094,24.111,0.223,-21.977
1747652304.56,0.003,0.069,-0.066,-0.040,-0.047,0.065,24.087,0.178,-21.986
1747652304.57,0.004,0.026,-0.057,-0.044,-0.064,0.033,24.064,0.134,-22.005
1747652304.58,-0.010,0.015,-0.042,-0.057,-0.058,0.014,24.036,0.095,-21.991
1747652304.59,-0.021,0.004,-0.029,-0.063,-0.046,0.016,24.002,0.062,-22.030
1747652304.60,-0.034,-0.002,-0.037,-0.064,-0.028,0.010,23.966,0.038,-22.021
1747652304.61,-0.048,0.019,-0.035,-0.070,-0.019,-0.011,23.927,0.026,-22.062
1747652304.62,-0.035,0.023,-0.035,-0.066,-0.038,-0.028,23.887,0.014,-22.073
1747652304.63,-0.022,0.027,-0.030,-0.051,-0.051,-0.050,23.852,-0.003,-22.134
1747652304.64,-0.023,0.041,-0.021,-0.034,-0.055,-0.062,23.824,-0.020,-22.169
1747652304.65,-0.033,0.041,-0.013,-0.024,-0.041,-0.069,23.807,-0.028,-22.249
1747652304.66,-0.032,0.034,-0.007,-0.021,-0.052,-0.070,23.793,-0.036,-22.293
1747652304.67,-0.018,0.037,-0.024,-0.014,-0.060,-0.066,23.782,-0.053,-22.384
1747652304.68,0.000,0.046,-0.044,-0.002,-0.052,-0.063,23.777,-0.072,-22.423
1747652304.69,0.004,0.046,-0.044,-0.002,-0.049,-0.067,23.774,-0.089,-22.509
1747652304.70,-0.011,0.036,-0.021,0.016,-0.053,-0.075,23.775,-0.103,-22.551
1747652304.71,-0.023,0.020,0.006,0.039,-0.042,-0.093,23.789,-0.111,-22.641
1747652304.72,-0.021,0.035,0.017,0.059,-0.054,-0.098,23.811,-0.118,-22.699
1747652304.73,-0.005,0.053,0.000,0.073,-0.062,-0.096,23.841,-0.134,-22.793
1747652304.74,-0.007,0.047,-0.012,0.082,-0.040,-0.095,23.879,-0.147,-22.850
1747652304.75,-0.011,0.041,-0.008,0.090,-0.029,-0.092,23.921,-0.145,-22.938
1747652304.76,-0.002,0.035,-0.016,0.100,-0.031,-0.079,23.964,-0.140,-22.991
1747652304.77,0.010,0.024,-0.023,0.110,-0.024,-0.078,24.015,-0.136,-23.073
1747652304.78,0.012,0.008,-0.012,0.118,-0.015,-0.071,24.071,-0.130,-23.119
1747652304.79,0.009,0.008,-0.008,0.123,-0.019,-0.071,24.136,-0.127,-23.194
1747652304.80,0.006,0.023,-0.011,0.137,0.052,-0.069,24.205,-0.107,-23.235
1747652304.81,-0.002,0.022,0.006,0.120,0.118,-0.064,24.271,-0.040,-23.319
1747652304.82,-0.008,0.015,0.009,0.112,0.143,-0.047,24.326,0.046,-23.355
1747652304.83,-0.018,0.002,-0.010,0.087,0.179,-0.033,24.377,0.147,-23.411
1747652304.84,-0.007,-0.011,-0.026,0.022,0.142,-0.024,24.399,0.248,-23.428
1747652304.85,-0.001,-0.042,-0.064,-0.013,0.126,-0.005,24.398,0.325,-23.469
1747652304.86,-0.005,-0.107,-0.091,-0.088,0.158,0.012,24.370,0.406,-23.466
1747652304.87,-0.010,-0.126,-0.083,-0.172,0.171,0.014,24.296,0.495,-23.495
1747652304.88,-0.022,-0.131,-0.110,-0.266,0.197,0.014,24.171,0.596,-23.486
1747652304.89,-0.047,-0.146,-0.107,-0.333,0.260,0.044,23.998,0.717,-23.498
1747652304.89,-0.080,-0.151,-0.063,-0.426,0.291,0.078,23.786,0.859,-23.455
1747652304.91,-0.080,-0.118,-0.107,-0.532,0.289,0.115,23.512,0.998,-23.435
1747652304.91,-0.043,-0.108,-0.173,-0.619,0.293,0.173,23.187,1.127,-23.340
1747652304.93,-0.016,-0.122,-0.184,-0.745,0.287,0.219,22.801,1.242,-23.240
1747652304.93,-0.005,-0.137,-0.191,-0.880,0.288,0.196,22.339,1.350,-23.099
1747652304.94,-0.007,-0.171,-0.189,-1.004,0.287,0.154,21.803,1.470,-22.979
1747652304.95,-0.012,-0.196,-0.148,-1.109,0.251,0.129,21.202,1.590,-22.876
1747652304.96,-0.011,-0.174,-0.155,-1.216,0.163,0.130,20.540,1.675,-22.771
1747652304.97,-0.007,-0.136,-0.183,-1.302,0.074,0.128,19.824,1.707,-22.669
1747652304.98,-0.016,-0.099,-0.187,-1.387,0.013,0.132,19.058,1.696,-22.541
1747652304.99,-0.024,-0.068,-0.191,-1.466,-0.027,0.154,18.246,1.656,-22.432
1747652305.00,-0.012,-0.064,-0.204,-1.524,-0.040,0.198,17.394,1.595,-22.260
1747652305.01,0.011,-0.071,-0.195,-1.546,-0.007,0.241,16.521,1.535,-22.103
1747652305.02,0.024,-0.065,-0.153,-1.592,0.040,0.261,15.632,1.496,-21.902
1747652305.03,0.036,-0.052,-0.125,-1.648,0.064,0.277,14.709,1.478,-21.719
1747652305.04,0.051,-0.059,-0.089,-1.682,0.098,0.275,13.763,1.476,-21.492
1747652305.05,0.055,-0.084,-0.037,-1.722,0.145,0.248,12.795,1.506,-21.312
1747652305.06,0.062,-0.099,-0.011,-1.757,0.102,0.234,11.805,1.543,-21.095
1747652305.07,0.067,-0.104,-0.040,-1.793,0.042,0.273,10.796,1.548,-20.921
1747652305.08,0.070,-0.094,-0.077,-1.838,0.009,0.328,9.763,1.526,-20.649
1747652305.09,0.082,-0.078,-0.071,-1.862,-0.019,0.362,8.712,1.486,-20.421
1747652305.10,0.078,-0.079,-0.050,-1.858,-0.006,0.379,7.654,1.443,-20.090
1747652305.11,0.067,-0.087,-0.034,-1.876,0.031,0.354,6.594,1.421,-19.851
1747652305.12,0.051,-0.091,-0.018,-1.862,0.035,0.316,5.529,1.418,-19.529
1747652305.13,0.009,-0.091,0.003,-1.844,0.062,0.272,4.477,1.427,-19.334
1747652305.14,-0.036,-0.090,0.017,-1.867,0.083,0.221,3.421,1.458,-19.048
1747652305.15,-0.063,-0.089,0.015,-1.882,0.092,0.196,2.354,1.501,-18.903
1747652305.16,-0.069,-0.098,0.001,-1.909,0.076,0.220,1.278,1.547,-18.617
1747652305.17,-0.032,-0.103,0.002,-1.921,0.006,0.264,0.185,1.569,-18.449
1747652305.18,0.036,-0.093,-0.014,-1.913,-0.041,0.290,-0.904,1.558,-18.117
1747652305.19,0.098,-0.061,0.029,-1.900,-0.088,0.256,-1.990,1.526,-17.929
1747652305.20,0.110,-0.025,0.049,-1.842,-0.138,0.177,-3.055,1.468,-17.612
1747652305.21,0.066,-0.013,0.045,-1.793,-0.129,0.108,-4.090,1.396,-17.505
1747652305.22,0.007,-0.036,0.073,-1.791,-0.085,0.060,-5.110,1.340,-17.243
1747652305.23,-0.026,-0.070,0.067,-1.816,-0.029,0.064,-6.139,1.312,-17.185
1747652305.24,-0.029,-0.110,0.045,-1.805,0.032,0.112,-7.172,1.321,-16.918
1747652305.25,0.000,-0.144,0.042,-1.825,0.057,0.192,-8.205,1.364,-16.807
1747652305.26,0.056,-0.149,0.034,-1.844,0.021,0.253,-9.251,1.413,-16.524
1747652305.27,0.093,-0.123,0.021,-1.837,-0.022,0.260,-10.298,1.441,-16.346
1747652305.28,0.095,-0.076,0.023,-1.809,-0.014,0.208,-11.335,1.461,-16.181
1747652305.29,0.065,-0.024,0.047,-1.777,-0.017,0.141,-12.356,1.479,-16.052
1747652305.30,0.011,0.012,0.066,-1.771,0.014,0.089,-13.367,1.497,-15.959
1747652305.31,-0.039,0.021,0.072,-1.783,0.052,0.080,-14.380,1.535,-15.885
1747652305.32,-0.051,0.022,0.035,-1.816,0.028,0.113,-15.405,1.581,-15.800
1747652305.33,-0.044,0.029,-0.007,-1.846,0.016,0.165,-16.449,1.626,-15.687
1747652305.34,-0.010,0.039,-0.006,-1.852,-0.010,0.170,-17.502,1.667,-15.553
1747652305.35,0.011,0.046,0.011,-1.845,-0.074,0.107,-18.555,1.681,-15.435
1747652305.36,-0.013,0.045,0.008,-1.823,-0.152,0.015,-19.601,1.639,-15.365
1747652305.37,-0.057,0.016,0.010,-1.807,-0.163,-0.084,-20.637,1.550,-15.357
1747652305.38,-0.091,-0.040,0.013,-1.821,-0.122,-0.151,-21.674,1.452,-15.401
1747652305.39,-0.098,-0.105,-0.037,-1.829,-0.100,-0.181,-22.717,1.360,-15.478
1747652305.40,-0.094,-0.142,-0.010,-1.856,-0.076,-0.166,-23.770,1.279,-15.560
1747652305.41,-0.083,-0.144,0.056,-1.881,-0.100,-0.125,-24.840,1.201,-15.627
1747652305.42,-0.074,-0.107,0.079,-1.876,-0.111,-0.071,-25.914,1.123,-15.665
1747652305.43,-0.054,-0.043,0.064,-1.869,-0.098,-0.033,-26.984,1.060,-15.673
1747652305.44,-0.012,0.045,0.008,-1.870,-0.126,-0.039,-28.051,0.999,-15.672
1747652305.45,0.026,0.122,-0.042,-1.845,-0.224,-0.092,-29.114,0.889,-15.693
1747652305.46,0.030,0.162,-0.031,-1.808,-0.267,-0.179,-30.156,0.712,-15.764
1747652305.47,0.012,0.157,0.042,-1.792,-0.263,-0.245,-31.185,0.493,-15.894
1747652305.48,0.003,0.099,0.078,-1.794,-0.281,-0.264,-32.208,0.252,-16.059
1747652305.49,0.003,-0.002,0.019,-1.821,-0.287,-0.233,-33.241,-0.003,-16.226
1747652305.50,0.016,-0.102,-0.009,-1.858,-0.226,-0.184,-34.292,-0.232,-16.373
1747652305.51,0.045,-0.178,-0.005,-1.882,-0.140,-0.128,-35.360,-0.403,-16.489
1747652305.52,0.069,-0.215,0.010,-1.889,-0.070,-0.067,-36.437,-0.507,-16.568
1747652305.53,0.079,-0.211,0.053,-1.896,-0.012,-0.025,-37.518,-0.556,-16.612
1747652305.54,0.080,-0.166,0.076,-1.872,0.019,0.001,-38.595,-0.568,-16.634
1747652305.55,0.075,-0.100,0.073,-1.815,0.074,0.014,-39.647,-0.548,-16.641
1747652305.56,0.074,-0.037,0.052,-1.736,0.137,0.017,-40.661,-0.487,-16.641
1747652305.57,0.076,0.009,-0.001,-1.680,0.147,0.025,-41.635,-0.400,-16.636
1747652305.58,0.065,0.022,-0.045,-1.638,0.137,0.031,-42.583,-0.310,-16.621
1747652305.59,0.036,0.007,-0.043,-1.612,0.165,0.017,-43.511,-0.214,-16.607
1747652305.60,0.013,-0.016,-0.040,-1.607,0.218,-0.004,-44.429,-0.104,-16.605
1747652305.61,0.009,-0.046,-0.027,-1.615,0.264,-0.005,-45.348,0.031,-16.611
1747652305.62,0.030,-0.075,-0.012,-1.633,0.296,0.033,-46.275,0.200,-16.600
1747652305.63,0.071,-0.092,-0.011,-1.649,0.277,0.084,-47.213,0.405,-16.544
1747652305.64,0.097,-0.089,-0.008,-1.693,0.282,0.133,-48.166,0.641,-16.438
1747652305.65,0.102,-0.069,0.036,-1.716,0.281,0.164,-49.140,0.917,-16.287
1747652305.66,0.094,-0.042,0.090,-1.683,0.247,0.185,-50.109,1.207,-16.105
1747652305.67,0.083,-0.008,0.068,-1.649,0.213,0.182,-51.058,1.495,-15.901
1747652305.68,0.079,0.025,0.044,-1.629,0.143,0.144,-51.991,1.751,-15.707
1747652305.69,0.066,0.048,0.029,-1.606,0.063,0.075,-52.911,1.930,-15.554
1747652305.70,0.045,0.060,-0.030,-1.597,-0.012,-0.019,-53.824,2.009,-15.475
1747652305.71,0.023,0.054,-0.045,-1.603,-0.108,-0.109,-54.739,1.966,-15.485
1747652305.72,-0.003,0.029,-0.031,-1.597,-0.177,-0.158,-55.655,1.815,-15.567
1747652305.73,-0.014,-0.002,-0.025,-1.590,-0.150,-0.172,-56.567,1.617,-15.689
1747652305.74,-0.000,-0.028,0.009,-1.579,-0.071,-0.148,-57.474,1.449,-15.814
1747652305.75,0.022,-0.040,0.048,-1.610,-0.073,-0.104,-58.385,1.332,-15.909
1747652305.76,0.031,-0.047,0.037,-1.630,-0.081,-0.053,-59.312,1.249,-15.954
1747652305.77,0.033,-0.044,0.014,-1.651,-0.064,-0.024,-60.249,1.203,-15.957
1747652305.78,0.039,-0.030,0.040,-1.639,-0.014,-0.033,-61.190,1.188,-15.949
1747652305.79,0.032,-0.012,0.080,-1.611,0.063,-0.053,-62.117,1.192,-15.960
1747652305.80,0.019,-0.006,0.100,-1.600,0.070,-0.078,-63.035,1.200,-15.999
1747652305.81,0.010,-0.006,0.068,-1.567,0.009,-0.098,-63.942,1.160,-16.069
1747652305.82,0.004,-0.012,-0.028,-1.551,-0.024,-0.115,-64.832,1.065,-16.168
1747652305.83,0.021,-0.031,-0.048,-1.560,-0.053,-0.146,-65.722,0.917,-16.308
1747652305.84,0.040,-0.051,-0.022,-1.522,-0.102,-0.193,-66.605,0.683,-16.517
1747652305.85,0.037,-0.054,-0.027,-1.462,-0.138,-0.234,-67.457,0.341,-16.812
1747652305.86,0.030,-0.048,-0.041,-1.439,-0.120,-0.241,-68.285,-0.067,-17.171
1747652305.87,0.041,-0.039,-0.014,-1.416,-0.067,-0.241,-69.098,-0.486,-17.562
1747652305.88,0.035,-0.027,0.010,-1.401,0.011,-0.225,-69.899,-0.884,-17.971
1747652305.89,-0.007,-0.010,0.027,-1.430,0.031,-0.201,-70.704,-1.256,-18.379
1747652305.90,-0.061,-0.018,0.019,-1.441,0.104,-0.160,-71.522,-1.577,-18.757
1747652305.91,-0.103,-0.035,0.008,-1.423,0.160,-0.144,-72.337,-1.836,-19.111
1747652305.92,-0.120,-0.061,0.026,-1.383,0.150,-0.140,-73.137,-2.098,-19.479
1747652305.93,-0.116,-0.093,0.023,-1.311,0.171,-0.128,-73.903,-2.368,-19.854
1747652305.94,-0.061,-0.114,-0.033,-1.258,0.202,-0.134,-74.632,-2.632,-20.242
1747652305.95,0.015,-0.092,-0.088,-1.198,0.259,-0.151,-75.329,-2.932,-20.688
1747652305.96,0.058,-0.043,-0.094,-1.182,0.316,-0.175,-75.999,-3.276,-21.211
1747652305.97,0.094,0.009,-0.070,-1.250,0.424,-0.181,-76.683,-3.663,-21.825
1747652305.98,0.111,0.066,0.012,-1.343,0.499,-0.161,-77.415,-4.037,-22.484
1747652305.99,0.098,0.094,0.112,-1.380,0.432,-0.154,-78.186,-4.448,-23.181
1747652306.00,0.064,0.051,0.121,-1.298,0.212,-0.156,-78.946,-5.007,-23.940
1747652306.01,0.028,-0.025,0.044,-1.185,0.041,-0.147,-79.641,-5.755,-24.772
1747652306.02,0.031,-0.098,-0.045,-1.171,-0.032,-0.121,-80.297,-6.591,-25.619
1747652306.03,0.050,-0.121,-0.064,-1.249,-0.000,-0.128,-80.975,-7.533,-26.561
1747652306.04,0.036,-0.094,-0.029,-1.267,0.043,-0.192,-81.677,-8.784,-27.843
1747652306.05,-0.008,-0.030,-0.018,-1.209,0.030,-0.259,-82.354,-10.511,-29.609
1747652306.06,-0.062,0.039,-0.042,-1.124,0.011,-0.301,-82.975,-12.778,-31.906
1747652306.07,-0.102,0.080,-0.031,-1.057,0.007,-0.309,-83.533,-15.499,-34.650
1747652306.08,-0.108,0.082,-0.030,-1.057,0.061,-0.301,-84.057,-18.637,-37.824
1747652306.09,-0.078,0.035,-0.018,-1.079,0.171,-0.286,-84.571,-22.300,-41.569
1747652306.10,-0.025,-0.039,-0.004,-1.071,0.301,-0.250,-85.068,-26.518,-45.942
1747652306.11,0.026,-0.085,0.005,-1.010,0.359,-0.171,-85.532,-31.107,-50.738
1747652306.12,0.052,-0.079,0.013,-0.950,0.387,-0.107,-85.954,-35.894,-55.753
1747652306.13,0.045,-0.046,0.023,-0.977,0.329,-0.083,-86.347,-41.401,-61.483
1747652306.14,0.036,-0.020,0.016,-1.033,0.220,-0.043,-86.730,-48.389,-68.637
1747652306.15,0.041,-0.034,-0.012,-1.033,0.202,-0.020,-87.075,-57.195,-77.575
1747652306.16,0.057,-0.061,-0.037,-0.992,0.235,-0.024,-87.335,-67.703,-88.218
1747652306.17,0.075,-0.062,-0.052,-0.922,0.206,-0.037,-87.474,-79.286,-99.944
1747652306.18,0.083,-0.032,-0.054,-0.803,0.133,-0.052,-87.493,-90.476,-111.242
1747652306.19,0.056,0.000,-0.050,-0.653,0.058,-0.090,-87.419,-99.676,-120.505
1747652306.20,-0.001,0.041,-0.060,-0.526,0.017,-0.135,-87.280,-106.386,-127.242
1747652306.21,-0.073,0.072,-0.057,-0.452,-0.049,-0.156,-87.112,-111.223,-132.078
1747652306.22,-0.155,0.064,-0.044,-0.355,-0.098,-0.182,-86.934,-114.641,-135.455
1747652306.23,-0.228,0.019,-0.057,-0.257,-0.056,-0.203,-86.760,-116.651,-137.421
1747652306.24,-0.260,-0.012,-0.076,-0.230,0.085,-0.204,-86.595,-117.793,-138.571
1747652306.25,-0.233,-0.018,-0.076,-0.259,0.263,-0.181,-86.431,-118.847,-139.727
1747652306.26,-0.171,-0.004,-0.041,-0.270,0.380,-0.148,-86.274,-120.007,-141.074
1747652306.27,-0.094,0.013,-0.035,-0.273,0.498,-0.090,-86.136,-121.243,-142.562
1747652306.28,-0.004,0.028,-0.039,-0.271,0.624,-0.037,-86.024,-122.574,-144.219
1747652306.29,0.064,0.037,-0.008,-0.258,0.660,-0.004,-85.933,-123.918,-145.936
1747652306.30,0.073,0.035,0.017,-0.249,0.594,0.025,-85.857,-125.255,-147.638
1747652306.31,0.060,0.025,0.029,-0.252,0.475,0.043,-85.789,-126.711,-149.405
1747652306.32,0.041,0.008,0.038,-0.235,0.349,0.028,-85.722,-128.151,-151.083
1747652306.33,0.013,-0.025,0.046,-0.195,0.243,-0.015,-85.648,-129.304,-152.408
1747652306.34,-0.001,-0.046,0.048,-0.137,0.195,-0.082,-85.566,-129.910,-153.138
1747652306.35,0.002,-0.038,0.032,-0.095,0.201,-0.135,-85.475,-129.927,-153.267
1747652306.36,0.025,-0.003,0.012,-0.048,0.174,-0.150,-85.385,-129.562,-153.010
1747652306.37,0.054,0.027,0.005,0.010,0.046,-0.128,-85.316,-128.976,-152.490
1747652306.38,0.065,0.036,0.001,0.049,-0.139,-0.086,-85.279,-128.364,-151.848
1747652306.39,0.046,0.025,-0.004,0.033,-0.277,-0.053,-85.265,-127.951,-151.313
1747652306.40,-0.003,-0.000,0.013,-0.000,-0.349,-0.048,-85.248,-127.847,-151.025
1747652306.41,-0.061,-0.019,0.025,0.002,-0.326,-0.034,-85.230,-127.877,-150.859
1747652306.42,-0.100,-0.022,0.031,0.004,-0.254,-0.002,-85.223,-127.957,-150.772
1747652306.43,-0.115,-0.024,0.042,0.028,-0.124,0.024,-85.235,-128.033,-150.740
1747652306.44,-0.098,-0.019,0.047,0.044,-0.009,0.019,-85.259,-127.961,-150.632
1747652306.45,-0.063,-0.017,0.042,0.030,0.040,0.009,-85.279,-127.781,-150.463
1747652306.46,-0.020,-0.024,0.032,0.002,0.027,0.016,-85.290,-127.727,-150.430
1747652306.47,0.018,-0.028,0.026,-0.004,-0.027,0.017,-85.298,-127.816,-150.521
1747652306.48,0.041,-0.011,0.013,0.022,-0.078,0.012,-85.307,-127.866,-150.540
1747652306.49,0.052,0.015,-0.001,0.068,-0.110,-0.002,-85.323,-127.693,-150.310
1747652306.50,0.058,0.029,-0.009,0.115,-0.116,-0.026,-85.347,-127.172,-149.722
1747652306.51,0.054,0.047,-0.010,0.160,-0.110,-0.030,-85.378,-126.312,-148.796
1747652306.52,0.050,0.067,-0.005,0.188,-0.123,-0.012,-85.423,-125.275,-147.688
1747652306.53,0.030,0.053,-0.003,0.171,-0.114,0.015,-85.482,-124.278,-146.621
1747652306.54,-0.008,0.003,0.011,0.101,-0.101,0.028,-85.536,-123.614,-145.892
1747652306.55,-0.047,-0.049,0.024,0.022,-0.084,0.016,-85.566,-123.401,-145.627
1747652306.56,-0.079,-0.079,0.029,-0.021,-0.071,0.003,-85.570,-123.517,-145.699
1747652306.57,-0.086,-0.072,0.030,0.001,-0.068,-0.008,-85.566,-123.636,-145.778
1747652306.58,-0.068,-0.026,0.023,0.042,-0.044,-0.002,-85.570,-123.533,-145.642
1747652306.59,-0.038,0.018,0.022,0.073,-0.012,0.009,-85.591,-123.219,-145.313
1747652306.60,-0.005,0.038,0.022,0.078,-0.006,0.019,-85.623,-122.830,-144.919
1747652306.61,0.016,0.041,0.017,0.092,-0.028,0.013,-85.658,-122.377,-144.455
1747652306.62,0.017,0.035,0.007,0.112,-0.076,-0.001,-85.690,-121.772,-143.820
1747652306.63,0.007,0.032,-0.007,0.118,-0.141,-0.001,-85.722,-121.078,-143.061
1747652306.64,-0.004,0.019,-0.010,0.111,-0.174,-0.002,-85.752,-120.395,-142.284
1747652306.65,-0.016,-0.004,-0.004,0.089,-0.147,0.005,-85.777,-119.809,-141.603
1747652306.66,-0.014,-0.029,0.015,0.033,-0.061,0.026,-85.799,-119.527,-141.259
1747652306.67,0.005,-0.049,0.046,-0.015,0.007,0.024,-85.812,-119.568,-141.286
1747652306.68,0.006,-0.053,0.065,-0.050,-0.007,0.011,-85.810,-119.876,-141.596
1747652306.69,-0.003,-0.036,0.054,-0.049,-0.028,-0.004,-85.797,-120.265,-141.977
1747652306.70,-0.002,-0.010,0.033,-0.024,-0.067,-0.010,-85.783,-120.528,-142.215
1747652306.71,0.008,0.014,0.011,0.019,-0.137,-0.010,-85.777,-120.578,-142.207
1747652306.72,0.021,0.025,-0.012,0.075,-0.177,-0.006,-85.788,-120.314,-141.851
1747652306.73,0.032,0.031,-0.030,0.104,-0.177,0.005,-85.812,-119.785,-141.217
1747652306.74,0.044,0.029,-0.019,0.137,-0.150,0.017,-85.849,-119.100,-140.436
1747652306.75,0.044,0.019,-0.011,0.161,-0.149,0.029,-85.901,-118.282,-139.531
1747652306.76,0.022,0.005,-0.009,0.166,-0.189,0.031,-85.958,-117.415,-138.566
1747652306.77,-0.017,-0.010,-0.010,0.178,-0.236,0.020,-86.011,-116.463,-137.488
1747652306.78,-0.055,-0.017,-0.006,0.215,-0.252,0.012,-86.066,-115.259,-136.141
1747652306.79,-0.064,-0.014,-0.010,0.255,-0.223,0.011,-86.128,-113.666,-134.406
1747652306.80,-0.043,-0.005,-0.012,0.275,-0.178,0.022,-86.196,-111.736,-132.356
1747652306.81,-0.006,0.005,0.007,0.279,-0.144,0.038,-86.271,-109.673,-130.198
1747652306.82,0.027,0.006,0.028,0.285,-0.158,0.056,-86.351,-107.532,-127.968
1747652306.83,0.042,-0.004,0.035,0.298,-0.191,0.073,-86.436,-105.299,-125.631
1747652306.84,0.041,-0.019,0.041,0.333,-0.210,0.080,-86.523,-102.771,-122.983
1747652306.85,0.029,-0.021,0.045,0.384,-0.250,0.078,-86.607,-99.700,-119.775
1747652306.86,0.006,0.005,0.042,0.421,-0.333,0.070,-86.681,-96.070,-115.972
1747652306.87,-0.032,0.041,0.032,0.453,-0.416,0.062,-86.736,-92.009,-111.689
1747652306.88,-0.071,0.049,0.018,0.493,-0.419,0.054,-86.768,-87.481,-106.910
1747652306.89,-0.085,0.027,0.009,0.512,-0.313,0.057,-86.774,-82.557,-101.767
1747652306.90,-0.065,0.002,0.029,0.515,-0.194,0.060,-86.756,-77.479,-96.537
1747652306.91,-0.037,-0.013,0.058,0.529,-0.120,0.061,-86.711,-72.389,-91.351
1747652306.92,-0.017,-0.024,0.066,0.542,-0.099,0.082,-86.642,-67.246,-86.139
1747652306.93,0.007,-0.026,0.060,0.535,-0.105,0.130,-86.564,-62.183,-81.010
1747652306.94,0.034,-0.026,0.060,0.547,-0.139,0.165,-86.482,-57.165,-75.913
1747652306.95,0.043,-0.030,0.053,0.580,-0.188,0.173,-86.375,-52.150,-70.796
1747652306.96,0.032,-0.031,0.022,0.621,-0.219,0.159,-86.227,-47.265,-65.785
1747652306.97,0.015,-0.038,-0.010,0.704,-0.237,0.129,-86.020,-42.624,-61.002
1747652306.98,0.006,-0.050,-0.047,0.869,-0.203,0.089,-85.720,-38.079,-56.315
1747652306.99,0.006,-0.044,-0.100,1.022,-0.101,0.045,-85.303,-33.737,-51.871
1747652307.00,0.026,-0.013,-0.114,1.134,-0.017,0.019,-84.787,-29.851,-47.941
1747652307.01,0.038,0.027,-0.096,1.189,-0.036,0.001,-84.202,-26.546,-44.610
1747652307.02,0.012,0.081,-0.088,1.199,-0.106,-0.001,-83.584,-23.875,-41.883
1747652307.03,-0.058,0.119,-0.058,1.196,-0.107,0.006,-82.953,-21.690,-39.615
1747652307.04,-0.143,0.096,-0.040,1.180,0.057,0.028,-82.322,-19.784,-37.674
1747652307.05,-0.185,0.016,0.031,1.141,0.277,0.083,-81.704,-17.947,-35.919
1747652307.06,-0.171,-0.073,0.112,1.064,0.384,0.133,-81.119,-16.130,-34.276
1747652307.07,-0.140,-0.125,0.104,0.996,0.425,0.152,-80.576,-14.452,-32.811
1747652307.08,-0.112,-0.124,0.076,1.061,0.464,0.160,-80.032,-12.888,-31.482
1747652307.09,-0.066,-0.093,0.049,1.195,0.552,0.183,-79.421,-11.328,-30.189
1747652307.10,0.012,-0.031,0.049,1.200,0.603,0.201,-78.762,-9.771,-28.946
1747652307.11,0.092,0.051,0.167,1.153,0.493,0.200,-78.119,-8.382,-27.851
1747652307.12,0.086,0.095,0.206,1.193,0.341,0.194,-77.471,-7.212,-26.899
1747652307.13,0.006,0.089,0.107,1.166,0.190,0.228,-76.812,-6.193,-26.009
1747652307.14,-0.074,0.055,0.081,1.060,0.137,0.248,-76.192,-5.268,-25.148
1747652307.15,-0.104,0.028,0.098,0.986,0.153,0.199,-75.626,-4.467,-24.410
1747652307.16,-0.066,0.014,0.123,1.032,0.049,0.107,-75.061,-3.907,-23.895
1747652307.17,-0.007,0.017,0.051,1.049,-0.045,0.019,-74.465,-3.630,-23.607
1747652307.18,0.071,0.034,-0.004,1.024,-0.172,-0.060,-73.877,-3.602,-23.516
1747652307.19,0.140,0.032,0.053,1.173,-0.346,-0.124,-73.254,-3.797,-23.563
1747652307.20,0.137,0.007,0.000,1.280,-0.371,-0.122,-72.541,-4.087,-23.644
1747652307.21,0.110,-0.011,-0.071,1.099,-0.276,-0.026,-71.853,-4.257,-23.628
1747652307.22,0.075,-0.030,0.052,0.947,-0.150,0.110,-71.278,-4.181,-23.420
1747652307.23,-0.004,-0.044,0.123,0.905,-0.016,0.222,-70.759,-3.837,-23.008
1747652307.24,-0.077,-0.044,0.031,0.860,0.038,0.292,-70.264,-3.320,-22.470
1747652307.25,-0.105,-0.039,0.004,0.832,0.067,0.334,-69.793,-2.726,-21.868
1747652307.26,-0.048,-0.043,-0.002,0.856,0.077,0.336,-69.321,-2.107,-21.255
1747652307.27,0.074,-0.050,-0.024,0.932,0.015,0.254,-68.819,-1.588,-20.731
1747652307.28,0.142,-0.046,-0.043,1.087,-0.130,0.133,-68.246,-1.299,-20.387
1747652307.29,0.122,-0.034,-0.069,1.244,-0.294,0.018,-67.579,-1.280,-20.236
1747652307.30,0.055,-0.014,-0.064,1.229,-0.273,-0.017,-66.864,-1.419,-20.199
1747652307.31,-0.020,0.001,-0.029,1.084,0.009,0.017,-66.203,-1.463,-20.160
1747652307.32,-0.086,-0.002,0.042,0.995,0.212,0.071,-65.612,-1.305,-20.064
1747652307.33,-0.184,-0.010,0.023,0.946,0.250,0.155,-65.057,-1.010,-19.888
1747652307.34,-0.262,-0.017,0.001,0.876,0.274,0.260,-64.540,-0.592,-19.593
1747652307.35,-0.196,-0.018,0.044,0.873,0.239,0.327,-64.045,-0.079,-19.191
1747652307.36,-0.022,-0.001,0.037,0.968,0.109,0.293,-63.521,0.387,-18.784
1747652307.37,0.127,0.014,-0.006,1.098,-0.086,0.158,-62.929,0.649,-18.502
1747652307.38,0.202,0.013,-0.055,1.182,-0.343,-0.004,-62.277,0.598,-18.424
1747652307.39,0.189,-0.003,-0.074,1.167,-0.585,-0.114,-61.602,0.250,-18.513
1747652307.40,0.099,-0.030,-0.093,1.163,-0.578,-0.152,-60.941,-0.241,-18.677
1747652307.41,-0.004,-0.058,-0.067,1.154,-0.210,-0.113,-60.272,-0.602,-18.824
1747652307.42,-0.054,-0.062,0.017,1.039,0.204,-0.045,-59.645,-0.663,-18.898
1747652307.43,-0.085,-0.040,0.103,0.972,0.354,-0.008,-59.070,-0.510,-18.917
1747652307.44,-0.150,-0.006,0.081,0.900,0.387,0.072,-58.537,-0.267,-18.880
1747652307.45,-0.154,0.016,0.045,0.901,0.406,0.198,-58.024,0.090,-18.731
1747652307.46,-0.044,0.021,0.019,0.917,0.291,0.268,-57.504,0.507,-18.479
1747652307.47,0.063,0.020,0.006,0.970,0.058,0.212,-56.965,0.819,-18.230
1747652307.48,0.118,0.014,-0.031,1.060,-0.215,0.085,-56.386,0.892,-18.089
1747652307.49,0.109,0.015,-0.060,1.158,-0.409,-0.054,-55.751,0.708,-18.091
1747652307.50,0.043,0.026,-0.058,1.186,-0.467,-0.165,-55.079,0.350,-18.216
1747652307.51,-0.025,0.034,-0.059,1.153,-0.379,-0.211,-54.410,-0.056,-18.409
1747652307.52,-0.047,0.014,-0.055,1.085,-0.154,-0.167,-53.771,-0.362,-18.593
1747652307.53,-0.027,-0.033,0.014,1.078,0.193,-0.056,-53.154,-0.434,-18.695
1747652307.54,0.029,-0.079,0.084,1.073,0.393,0.042,-52.538,-0.251,-18.690
1747652307.55,0.088,-0.099,0.082,1.015,0.260,0.094,-51.939,-0.003,-18.623
1747652307.56,0.110,-0.102,-0.045,0.978,0.027,0.122,-51.374,0.156,-18.524
1747652307.57,0.125,-0.115,-0.082,1.033,-0.147,0.141,-50.801,0.210,-18.406
1747652307.58,0.132,-0.125,-0.070,1.081,-0.237,0.128,-50.196,0.191,-18.285
1747652307.59,0.101,-0.109,-0.032,1.114,-0.250,0.079,-49.570,0.118,-18.194
1747652307.60,0.047,-0.072,-0.002,1.149,-0.151,0.023,-48.921,0.033,-18.151
1747652307.61,0.000,-0.026,0.047,1.127,0.034,-0.013,-48.269,-0.003,-18.150
1747652307.62,-0.035,0.018,0.093,1.087,0.227,-0.003,-47.637,0.069,-18.159
1747652307.63,-0.028,0.061,0.110,1.070,0.211,0.050,-47.020,0.212,-18.145
1747652307.64,0.003,0.098,0.050,1.050,0.093,0.147,-46.415,0.359,-18.062
1747652307.65,0.049,0.116,0.015,1.093,-0.008,0.170,-45.805,0.474,-17.936
1747652307.66,0.090,0.119,0.043,1.178,-0.125,0.138,-45.155,0.523,-17.815
1747652307.67,0.058,0.101,0.037,1.212,-0.249,0.043,-44.468,0.464,-17.748
1747652307.68,-0.026,0.075,-0.006,1.185,-0.354,-0.083,-43.784,0.275,-17.769
1747652307.69,-0.100,0.039,-0.035,1.188,-0.336,-0.192,-43.108,-0.007,-17.881
1747652307.70,-0.147,0.007,-0.018,1.189,-0.172,-0.248,-42.427,-0.271,-18.051
1747652307.71,-0.147,-0.008,0.059,1.163,-0.022,-0.229,-41.755,-0.447,-18.233
1747652307.72,-0.099,-0.008,0.080,1.115,0.106,-0.123,-41.102,-0.508,-18.364
1747652307.73,-0.017,-0.000,0.086,1.061,0.173,0.033,-40.479,-0.441,-18.386
1747652307.74,0.083,0.017,0.065,1.037,0.168,0.043,-39.880,-0.317,-18.351
1747652307.75,0.187,0.056,0.053,1.038,0.074,0.059,-39.289,-0.217,-18.309
1747652307.76,0.230,0.080,0.035,1.105,-0.135,0.059,-38.680,-0.201,-18.260
1747652307.77,0.173,0.100,-0.008,1.157,-0.394,0.005,-38.032,-0.338,-18.232
1747652307.78,0.064,0.092,-0.042,1.167,-0.413,-0.065,-37.368,-0.588,-18.246
1747652307.79,0.004,0.062,-0.018,1.160,-0.250,-0.161,-36.701,-0.823,-18.316
1747652307.80,-0.036,0.038,0.050,1.122,-0.145,-0.250,-36.048,-1.014,-18.451
1747652307.81,-0.096,0.034,0.040,1.067,-0.090,-0.242,-35.420,-1.177,-18.616
1747652307.82,-0.127,0.010,0.042,1.030,0.031,-0.107,-34.820,-1.260,-18.727
1747652307.83,-0.083,-0.017,0.083,1.020,0.113,-0.013,-34.233,-1.226,-18.747
1747652307.84,0.009,-0.040,0.064,1.011,0.115,-0.000,-33.655,-1.152,-18.735
1747652307.85,0.088,-0.024,0.021,1.038,0.033,-0.019,-33.070,-1.101,-18.726
1747652307.86,0.127,0.039,-0.010,1.079,-0.086,-0.058,-32.465,-1.123,-18.737
1747652307.87,0.090,0.102,0.017,1.086,-0.140,-0.102,-31.843,-1.211,-18.776
1747652307.88,0.037,0.143,0.049,1.058,-0.150,-0.155,-31.230,-1.330,-18.846
1747652307.89,-0.010,0.152,0.017,1.040,-0.220,-0.171,-30.629,-1.482,-18.939
1747652307.90,-0.056,0.112,0.003,1.037,-0.202,-0.131,-30.034,-1.650,-19.023
1747652307.91,-0.050,0.051,0.012,1.010,-0.121,-0.059,-29.447,-1.763,-19.067
1747652307.92,0.041,0.007,0.029,0.972,-0.077,0.034,-28.882,-1.814,-19.054
1747652307.93,0.144,-0.020,0.017,0.971,-0.054,0.080,-28.333,-1.820,-18.993
1747652307.94,0.200,-0.001,0.009,1.026,-0.115,0.071,-27.765,-1.832,-18.924
1747652307.95,0.165,-0.002,0.004,1.037,-0.146,0.083,-27.176,-1.879,-18.854
1747652307.96,0.091,-0.011,-0.006,1.003,-0.142,0.070,-26.595,-1.924,-18.781
1747652307.96,0.022,0.006,-0.023,1.004,-0.202,0.036,-26.024,-1.997,-18.725
1747652307.98,-0.068,0.016,-0.039,1.019,-0.174,0.005,-25.446,-2.089,-18.690
1747652307.99,-0.103,0.029,-0.009,1.024,-0.139,-0.026,-24.863,-2.171,-18.671
1747652308.00,-0.074,0.031,0.019,1.020,-0.089,-0.056,-24.280,-2.236,-18.672
1747652308.01,-0.037,0.026,0.029,1.053,-0.023,-0.078,-23.688,-2.275,-18.688
1747652308.01,0.001,0.029,0.039,1.080,0.051,-0.111,-23.075,-2.278,-18.720
1747652308.03,0.010,0.056,0.031,1.047,0.055,-0.167,-22.465,-2.266,-18.781
1747652308.03,-0.023,0.072,-0.003,1.038,0.001,-0.220,-21.868,-2.288,-18.876
1747652308.04,-0.061,0.025,-0.026,1.072,-0.018,-0.240,-21.261,-2.336,-18.993
1747652308.05,-0.086,0.003,-0.007,1.105,-0.033,-0.236,-20.634,-2.391,-19.111
1747652308.06,-0.089,-0.001,0.024,1.129,-0.038,-0.254,-19.991,-2.456,-19.230
1747652308.07,-0.052,0.009,0.044,1.162,0.031,-0.275,-19.332,-2.503,-19.361
1747652308.08,0.027,0.038,0.087,1.177,0.072,-0.257,-18.656,-2.514,-19.493
1747652308.09,0.098,0.067,0.089,1.203,0.042,-0.221,-17.974,-2.514,-19.599
1747652308.10,0.126,0.062,0.053,1.213,-0.010,-0.198,-17.275,-2.536,-19.500
1747652308.11,0.135,0.041,0.013,1.164,-0.020,-0.090,-16.593,-2.561,-19.556
1747652308.12,0.176,-0.012,-0.025,1.164,-0.047,-0.006,-15.930,-2.578,-19.368
1747652308.13,0.202,-0.049,-0.048,1.170,-0.037,0.035,-15.264,-2.594,-19.327
1747652308.14,0.171,-0.066,-0.020,1.164,-0.013,0.037,-14.599,-2.592,-19.083
1747652308.15,0.137,-0.061,0.017,1.175,-0.002,0.035,-13.933,-2.585,-19.032
1747652308.16,0.106,-0.055,0.043,1.177,0.088,0.049,-13.262,-2.551,-18.797
1747652308.17,0.108,-0.054,0.080,1.213,0.169,0.044,-12.582,-2.460,-18.739
1747652308.18,0.096,-0.067,0.046,1.290,0.138,0.049,-11.869,-2.356,-18.534
1747652308.19,0.019,-0.085,-0.025,1.318,0.018,0.074,-11.122,-2.299,-18.470
1747652308.20,-0.052,-0.085,-0.064,1.299,-0.001,0.090,-10.380,-2.283,-18.253
1747652308.21,-0.073,-0.042,-0.059,1.300,0.069,0.061,-9.639,-2.255,-18.178
1747652308.22,-0.074,-0.006,-0.021,1.233,0.164,0.010,-8.914,-2.179,-18.007
1747652308.23,-0.073,0.021,-0.031,1.162,0.200,-0.027,-8.234,-2.070,-17.857
1747652308.24,-0.063,0.002,-0.052,1.164,0.230,-0.050,-7.572,-1.950,-17.859
1747652308.25,-0.077,-0.032,-0.030,1.195,0.252,-0.042,-6.897,-1.811,-17.740
1747652308.26,-0.058,-0.018,-0.054,1.195,0.212,-0.026,-6.213,-1.679,-17.739
1747652308.27,-0.033,0.056,-0.093,1.168,0.198,-0.014,-5.538,-1.562,-17.617
1747652308.28,-0.036,0.150,-0.039,1.151,0.154,-0.018,-4.876,-1.459,-17.609
1747652308.29,-0.089,0.227,0.015,1.151,0.104,-0.028,-4.220,-1.387,-17.528
1747652308.30,-0.154,0.239,0.037,1.179,0.141,-0.057,-3.553,-1.321,-17.535
1747652308.31,-0.168,0.206,0.066,1.137,0.228,-0.113,-2.890,-1.217,-17.490
1747652308.32,-0.116,0.116,0.010,1.114,0.234,-0.178,-2.249,-1.083,-17.561
1747652308.33,-0.053,0.025,-0.084,1.083,0.180,-0.231,-1.617,-0.970,-17.604
1747652308.34,-0.046,-0.087,-0.123,1.056,0.201,-0.244,-1.005,-0.866,-17.730
1747652308.35,-0.026,-0.168,-0.111,0.995,0.252,-0.235,-0.416,-0.739,-17.793
1747652308.36,-0.015,-0.170,-0.115,0.936,0.279,-0.189,0.136,-0.586,-17.910
1747652308.37,-0.028,-0.104,-0.072,0.916,0.279,-0.144,0.665,-0.424,-17.939
1747652308.38,-0.031,0.035,0.027,0.930,0.259,-0.084,1.191,-0.269,-18.000
1747652308.39,-0.012,0.146,0.070,1.006,0.248,-0.045,1.742,-0.125,-17.977
1747652308.40,0.016,0.204,0.088,1.090,0.245,-0.043,2.342,0.017,-18.000
1747652308.41,0.038,0.209,0.091,1.134,0.230,-0.060,2.976,0.155,-17.988
1747652308.42,0.041,0.131,0.032,1.161,0.209,-0.085,3.634,0.285,-18.027
1747652308.43,0.047,0.030,-0.024,1.114,0.240,-0.097,4.284,0.413,-18.061
1747652308.44,0.023,-0.139,-0.053,1.078,0.293,-0.135,4.911,0.574,-18.129
1747652308.45,0.003,-0.181,-0.042,1.003,0.326,-0.153,5.502,0.758,-18.218
1747652308.46,-0.060,-0.203,-0.036,1.007,0.339,-0.118,6.073,0.959,-18.306
1747652308.47,-0.068,-0.116,-0.012,1.004,0.316,-0.067,6.647,1.154,-18.382
1747652308.48,-0.048,0.038,0.063,1.008,0.278,-0.026,7.218,1.331,-18.421
1747652308.49,0.023,0.152,0.105,1.057,0.142,0.004,7.808,1.457,-18.449
1747652308.50,0.094,0.183,0.084,1.116,0.005,0.016,8.429,1.499,-18.459
1747652308.51,0.138,0.169,0.023,1.120,-0.095,-0.022,9.071,1.475,-18.510
1747652308.52,0.135,0.074,-0.019,1.116,-0.084,-0.129,9.702,1.425,-18.564
1747652308.53,0.043,-0.058,-0.048,1.078,-0.030,-0.124,10.324,1.398,-18.698
1747652308.54,-0.030,-0.173,-0.029,1.037,0.166,-0.152,10.928,1.452,-18.792
1747652308.55,-0.105,-0.221,-0.021,1.016,0.363,-0.179,11.509,1.629,-18.966
1747652308.56,-0.171,-0.166,-0.028,0.993,0.477,-0.155,12.083,1.897,-19.083
1747652308.57,-0.161,-0.086,-0.013,0.947,0.450,-0.115,12.634,2.189,-19.238
1747652308.58,-0.032,0.013,-0.023,0.929,0.304,-0.081,13.166,2.426,-19.320
1747652308.59,0.070,0.093,-0.044,0.923,0.123,-0.048,13.694,2.562,-19.450
1747652308.60,0.097,0.147,-0.059,0.924,-0.035,-0.057,14.218,2.599,-19.504
1747652308.61,0.094,0.165,-0.088,0.940,-0.144,-0.074,14.749,2.561,-19.636
1747652308.62,0.075,0.109,-0.107,0.927,-0.200,-0.103,15.280,2.481,-19.713
1747652308.63,0.076,0.018,-0.119,0.894,-0.254,-0.105,15.797,2.372,-19.875
1747652308.64,0.097,-0.069,-0.142,0.853,-0.225,-0.136,16.293,2.258,-19.967
1747652308.65,0.084,-0.093,-0.072,0.825,-0.192,-0.132,16.768,2.168,-20.166
1747652308.66,0.046,-0.070,-0.027,0.796,-0.146,-0.107,17.227,2.097,-20.255
1747652308.67,0.006,-0.008,0.000,0.832,-0.082,-0.072,17.687,2.053,-20.409
1747652308.68,-0.030,0.106,0.027,0.894,0.006,-0.036,18.177,2.046,-20.458
1747652308.69,-0.052,0.215,0.059,0.929,0.096,-0.047,18.699,2.090,-20.584
1747652308.70,-0.034,0.213,0.041,0.934,0.064,-0.069,19.229,2.160,-20.641
1747652308.71,0.016,0.159,-0.055,0.954,-0.031,-0.069,19.768,2.189,-20.791
1747652308.72,0.054,0.096,-0.124,0.929,-0.074,-0.109,20.305,2.183,-20.867
1747652308.73,0.056,0.008,-0.113,0.857,-0.078,-0.145,20.812,2.172,-21.056
1747652308.74,0.011,-0.085,-0.086,0.806,-0.058,-0.139,21.282,2.172,-21.164
1747652308.75,-0.031,-0.140,-0.070,0.765,-0.032,-0.120,21.729,2.181,-21.348
1747652308.76,-0.046,-0.119,-0.047,0.737,-0.035,-0.106,22.154,2.196,-21.434
1747652308.77,-0.022,-0.069,-0.039,0.713,-0.075,-0.108,22.565,2.196,-21.610
1747652308.78,0.001,-0.027,-0.051,0.704,-0.112,-0.116,22.966,2.176,-21.695
1747652308.79,0.022,-0.011,-0.037,0.690,-0.130,-0.130,23.363,2.141,-21.888
1747652308.80,0.019,-0.003,-0.018,0.685,-0.117,-0.117,23.753,2.107,-21.980
1747652308.81,0.017,0.003,-0.017,0.683,-0.095,-0.110,24.141,2.081,-22.174
1747652308.82,0.001,0.013,-0.036,0.662,-0.060,-0.097,24.524,2.070,-22.255
1747652308.83,0.000,-0.010,-0.055,0.617,-0.059,-0.080,24.890,2.068,-22.431
1747652308.84,0.033,-0.064,-0.076,0.554,-0.093,-0.068,25.221,2.050,-22.490
1747652308.85,0.074,-0.078,-0.066,0.520,-0.129,-0.047,25.529,2.005,-22.638
1747652308.86,0.092,-0.117,-0.040,0.468,-0.139,-0.044,25.810,1.945,-22.678
1747652308.87,0.071,-0.167,-0.005,0.442,-0.117,-0.023,26.067,1.885,-22.809
1747652308.88,0.042,-0.071,-0.016,0.426,-0.060,-0.005,26.315,1.842,-22.827
1747652308.89,0.015,0.005,-0.017,0.429,0.020,0.026,26.559,1.832,-22.934
1747652308.90,-0.002,0.027,-0.024,0.418,0.081,0.048,26.802,1.853,-22.918
1747652308.91,-0.011,0.029,-0.041,0.395,0.122,0.052,27.034,1.902,-22.979
1747652308.92,0.002,-0.017,-0.065,0.356,0.091,0.058,27.251,1.951,-22.951
1747652308.93,0.030,-0.096,-0.066,0.289,0.032,0.050,27.437,1.976,-23.016
1747652308.94,0.070,-0.125,-0.047,0.228,-0.013,0.057,27.584,1.967,-22.988
1747652308.95,0.089,-0.129,-0.046,0.184,-0.043,0.050,27.703,1.936,-23.058
1747652308.96,0.066,-0.120,-0.043,0.151,-0.038,0.052,27.798,1.899,-23.030
1747652308.97,0.023,-0.072,-0.050,0.139,-0.006,0.052,27.881,1.871,-23.081
1747652308.98,-0.015,-0.028,-0.040,0.138,0.022,0.049,27.962,1.864,-23.053
1747652308.99,-0.030,-0.007,-0.043,0.112,0.023,0.047,28.035,1.864,-23.118
1747652309.00,-0.011,-0.024,-0.049,0.069,0.015,0.051,28.088,1.862,-23.087
1747652309.01,0.000,-0.047,-0.044,0.027,-0.024,0.051,28.115,1.846,-23.147
1747652309.02,0.002,-0.051,-0.039,0.018,-0.053,0.052,28.128,1.807,-23.114
1747652309.03,-0.011,0.003,-0.060,0.017,-0.062,0.035,28.142,1.765,-23.163
1747652309.04,-0.034,0.057,-0.092,0.000,-0.081,0.060,28.150,1.712,-23.135
1747652309.05,-0.036,0.008,-0.096,-0.012,-0.081,0.035,28.148,1.650,-23.182
1747652309.06,-0.037,-0.015,-0.077,-0.022,-0.080,-0.001,28.138,1.599,-23.173
1747652309.07,-0.044,0.027,-0.049,-0.018,-0.088,-0.025,28.127,1.555,-23.256
1747652309.08,-0.041,0.017,-0.012,-0.030,-0.087,-0.026,28.112,1.508,-23.273
1747652309.09,-0.039,0.006,0.000,0.005,-0.046,-0.049,28.104,1.484,-23.366
1747652309.10,-0.049,0.075,-0.026,0.010,-0.043,-0.048,28.110,1.474,-23.397
1747652309.11,-0.042,0.082,-0.042,0.000,-0.055,-0.051,28.110,1.461,-23.501
1747652309.12,-0.015,0.026,-0.058,0.012,-0.082,-0.052,28.111,1.434,-23.603
1747652309.13,-0.011,0.022,-0.061,0.003,-0.086,-0.067,28.112,1.402,-23.640
1747652309.14,-0.014,0.041,-0.035,0.001,-0.095,-0.072,28.111,1.370,-23.754
1747652309.15,-0.011,0.023,-0.027,0.005,-0.109,-0.068,28.109,1.332,-23.798
1747652309.16,-0.012,0.009,-0.028,0.002,-0.126,-0.077,28.109,1.283,-23.916
1747652309.17,-0.005,0.013,-0.018,0.009,-0.132,-0.079,28.111,1.232,-23.966
1747652309.18,0.008,0.007,-0.005,0.013,-0.147,-0.076,28.111,1.172,-24.074
1747652309.19,0.008,0.006,-0.002,0.006,-0.112,-0.072,28.109,1.114,-24.121
1747652309.20,0.012,0.009,0.005,0.028,-0.081,-0.061,28.112,1.080,-24.205
1747652309.21,0.013,0.010,0.013,0.043,-0.074,-0.050,28.127,1.052,-24.240
1747652309.22,-0.001,0.008,0.015,0.037,-0.066,-0.035,28.140,1.025,-24.318
1747652309.23,0.023,-0.005,-0.013,0.035,-0.072,-0.023,28.155,0.994,-24.337
1747652309.24,0.030,-0.016,-0.014,0.040,-0.073,-0.015,28.173,0.957,-24.405
1747652309.25,0.022,-0.020,0.005,0.048,-0.074,-0.016,28.195,0.921,-24.416
1747652309.26,0.017,-0.022,0.004,0.054,-0.076,-0.021,28.222,0.885,-24.477
1747652309.27,0.016,-0.008,-0.001,0.056,-0.074,-0.023,28.252,0.852,-24.494
1747652309.28,0.011,-0.006,-0.004,0.061,-0.073,-0.024,28.283,0.822,-24.572
1747652309.29,0.003,-0.003,-0.005,0.076,-0.067,-0.020,28.321,0.793,-24.588
1747652309.30,-0.006,0.002,0.006,0.070,-0.065,-0.013,28.362,0.763,-24.650
1747652309.31,-0.004,0.017,0.002,0.075,-0.083,-0.004,28.401,0.731,-24.660
1747652309.32,0.004,0.016,-0.021,0.071,-0.087,0.006,28.443,0.691,-24.711
1747652309.33,0.003,-0.001,-0.027,0.063,-0.081,-0.002,28.485,0.649,-24.712
1747652309.34,0.001,-0.012,-0.023,0.065,-0.094,-0.013,28.524,0.609,-24.776
1747652309.35,-0.000,-0.009,-0.006,0.069,-0.104,-0.031,28.564,0.563,-24.794
1747652309.36,0.001,0.004,0.008,0.058,-0.111,-0.040,28.599,0.516,-24.876
1747652309.37,0.001,0.006,-0.004,0.051,-0.089,-0.035,28.629,0.472,-24.903
1747652309.38,-0.016,-0.010,-0.025,0.036,-0.070,-0.031,28.654,0.436,-24.984
1747652309.39,-0.026,-0.016,-0.051,0.011,-0.028,-0.024,28.664,0.415,-25.003
1747652309.40,-0.023,-0.025,-0.065,-0.022,0.032,-0.021,28.657,0.425,-25.081
1747652309.41,-0.017,-0.037,-0.051,-0.071,0.064,0.000,28.628,0.458,-25.090
1747652309.42,-0.022,-0.069,-0.029,-0.094,0.141,0.029,28.580,0.508,-25.121
1747652309.43,-0.020,-0.106,-0.006,-0.172,0.247,0.023,28.508,0.612,-25.102
1747652309.44,-0.008,-0.094,-0.024,-0.252,0.262,0.029,28.384,0.752,-25.123
1747652309.45,-0.012,-0.118,-0.085,-0.325,0.255,0.057,28.221,0.884,-25.093
1747652309.46,-0.039,-0.140,-0.111,-0.417,0.304,0.087,28.010,1.018,-25.075
1747652309.47,-0.048,-0.172,-0.091,-0.512,0.362,0.106,27.745,1.176,-25.007
1747652309.48,-0.070,-0.193,-0.105,-0.632,0.402,0.135,27.420,1.354,-24.956
1747652309.49,-0.087,-0.203,-0.116,-0.756,0.416,0.166,27.026,1.539,-24.847
1747652309.50,-0.067,-0.240,-0.122,-0.859,0.428,0.187,26.566,1.723,-24.743
1747652309.51,-0.033,-0.258,-0.116,-0.979,0.412,0.198,26.047,1.901,-24.602
1747652309.52,0.009,-0.225,-0.135,-1.124,0.336,0.212,25.453,2.051,-24.470
1747652309.53,0.035,-0.186,-0.156,-1.222,0.243,0.217,24.785,2.148,-24.308
1747652309.54,0.032,-0.187,-0.148,-1.317,0.158,0.214,24.065,2.193,-24.148
1747652309.55,0.029,-0.200,-0.124,-1.406,0.073,0.213,23.290,2.192,-23.983
1747652309.56,0.045,-0.168,-0.138,-1.446,0.049,0.200,22.479,2.162,-23.817
1747652309.57,0.003,-0.073,-0.126,-1.484,0.065,0.205,21.647,2.135,-23.658
1747652309.58,-0.068,-0.024,-0.120,-1.527,0.107,0.236,20.793,2.122,-23.476
1747652309.59,-0.092,-0.044,-0.131,-1.570,0.184,0.277,19.915,2.137,-23.284
1747652309.60,-0.039,-0.055,-0.125,-1.595,0.232,0.290,19.017,2.187,-23.060
1747652309.61,0.022,-0.022,-0.111,-1.628,0.227,0.289,18.104,2.254,-22.849
1747652309.62,0.053,0.013,-0.100,-1.653,0.182,0.301,17.174,2.305,-22.612
1747652309.63,0.070,0.014,-0.119,-1.663,0.169,0.298,16.235,2.340,-22.391
1747652309.64,0.057,-0.006,-0.074,-1.669,0.181,0.259,15.291,2.383,-22.157
1747652309.65,0.018,-0.028,-0.003,-1.669,0.205,0.213,14.345,2.447,-21.976
1747652309.66,-0.009,-0.038,0.009,-1.701,0.192,0.170,13.390,2.525,-21.789
1747652309.67,-0.010,-0.022,-0.029,-1.750,0.119,0.177,12.409,2.584,-21.645
1747652309.68,-0.011,-0.013,-0.066,-1.779,0.054,0.212,11.408,2.599,-21.421
1747652309.69,0.004,-0.021,-0.099,-1.823,0.007,0.228,10.385,2.583,-21.244
1747652309.70,0.040,-0.038,-0.114,-1.834,-0.050,0.202,9.345,2.540,-21.003
1747652309.71,0.054,-0.056,-0.096,-1.822,-0.070,0.140,8.306,2.482,-20.857
1747652309.72,0.032,-0.061,-0.023,-1.817,-0.059,0.071,7.271,2.431,-20.657
1747652309.73,-0.012,-0.062,0.003,-1.822,-0.037,0.032,6.235,2.397,-20.585
1747652309.74,-0.048,-0.064,-0.014,-1.858,-0.020,0.030,5.188,2.374,-20.417
1747652309.75,-0.073,-0.063,-0.044,-1.894,0.005,0.045,4.118,2.365,-20.352
1747652309.76,-0.078,-0.048,-0.055,-1.919,0.036,0.059,3.031,2.373,-20.153
1747652309.77,-0.046,-0.030,-0.024,-1.910,0.019,0.027,1.939,2.387,-20.082
1747652309.78,-0.012,-0.001,-0.010,-1.893,-0.010,-0.042,0.854,2.388,-19.895
1747652309.79,-0.007,0.017,0.012,-1.897,-0.063,-0.117,-0.228,2.369,-19.896
1747652309.80,-0.024,0.024,-0.011,-1.905,-0.108,-0.152,-1.315,2.317,-19.775
1747652309.81,-0.057,0.014,-0.038,-1.936,-0.095,-0.143,-2.414,2.258,-19.816
1747652309.82,-0.069,-0.012,-0.031,-1.963,-0.085,-0.106,-3.530,2.204,-19.681
1747652309.83,-0.057,-0.045,-0.023,-1.995,-0.023,-0.103,-4.661,2.171,-19.697
1747652309.84,-0.038,-0.059,0.005,-1.981,-0.001,-0.097,-5.801,2.165,-19.537
1747652309.85,-0.010,-0.072,0.004,-1.959,0.022,-0.110,-6.925,2.167,-19.554
1747652309.86,0.014,-0.072,0.022,-1.962,0.030,-0.127,-8.045,2.182,-19.396
1747652309.87,0.032,-0.047,0.030,-1.996,-0.048,-0.110,-9.176,2.177,-19.423
1747652309.88,0.033,-0.028,0.015,-2.011,-0.114,-0.068,-10.322,2.128,-19.431
1747652309.89,0.045,-0.017,0.026,-2.040,-0.167,-0.027,-11.478,2.050,-19.416
1747652309.90,0.065,-0.003,0.001,-2.063,-0.240,0.015,-12.651,1.942,-19.247
1747652309.91,0.077,0.009,0.002,-2.062,-0.248,0.035,-13.828,1.813,-19.191
1747652309.92,0.083,0.010,0.021,-2.078,-0.230,0.028,-15.008,1.692,-19.134
1747652309.93,0.086,-0.012,0.035,-2.104,-0.270,0.010,-16.203,1.564,-19.087
1747652309.94,0.070,-0.062,0.032,-2.088,-0.290,0.009,-17.399,1.412,-19.049
1747652309.95,0.066,-0.124,0.037,-2.075,-0.270,0.034,-18.587,1.267,-19.008
1747652309.96,0.095,-0.176,0.037,-2.069,-0.318,0.099,-19.770,1.122,-18.943
1747652309.97,0.098,-0.208,0.038,-2.050,-0.364,0.183,-20.944,0.964,-18.834
1747652309.98,0.094,-0.206,0.046,-2.053,-0.370,0.254,-22.113,0.811,-18.680
1747652309.99,0.119,-0.166,0.067,-2.033,-0.388,0.287,-23.279,0.667,-18.495
1747652310.00,0.139,-0.116,0.069,-2.008,-0.390,0.288,-24.431,0.522,-18.303
1747652310.01,0.158,-0.065,0.025,-1.990,-0.414,0.277,-25.571,0.375,-18.115
1747652310.02,0.156,-0.029,0.000,-1.961,-0.473,0.267,-26.698,0.199,-17.936
1747652310.03,0.121,-0.019,0.004,-1.951,-0.509,0.242,-27.815,-0.005,-17.771
1747652310.04,0.085,-0.027,0.038,-1.964,-0.514,0.223,-28.931,-0.229,-17.623
1747652310.05,0.061,-0.057,0.045,-1.996,-0.409,0.219,-30.065,-0.428,-17.485
1747652310.06,0.050,-0.109,0.050,-1.940,-0.261,0.225,-31.191,-0.550,-17.350
1747652310.07,0.063,-0.168,0.017,-1.896,-0.184,0.281,-32.286,-0.592,-17.196
1747652310.08,0.076,-0.205,-0.020,-1.884,-0.171,0.364,-33.366,-0.582,-16.990
1747652310.09,0.106,-0.217,-0.021,-1.902,-0.150,0.437,-34.449,-0.527,-16.726
1747652310.10,0.133,-0.198,0.037,-1.905,-0.096,0.474,-35.539,-0.420,-16.417
1747652310.11,0.108,-0.146,0.108,-1.889,-0.050,0.459,-36.623,-0.270,-16.093
1747652310.12,0.031,-0.070,0.104,-1.884,-0.051,0.389,-37.701,-0.115,-15.791
1747652310.13,-0.059,0.011,0.026,-1.885,-0.083,0.308,-38.777,0.003,-15.540
1747652310.14,-0.101,0.069,-0.023,-1.888,-0.091,0.261,-39.855,0.085,-15.331
1747652310.15,-0.079,0.083,-0.021,-1.881,-0.078,0.242,-40.931,0.162,-15.139
1747652310.16,-0.027,0.060,0.005,-1.853,-0.069,0.196,-41.999,0.234,-14.966
1747652310.17,-0.001,0.008,0.031,-1.812,-0.098,0.136,-43.045,0.279,-14.831
1747652310.18,-0.024,-0.052,0.007,-1.763,-0.147,0.086,-44.065,0.272,-14.739
1747652310.19,-0.063,-0.098,-0.055,-1.780,-0.078,0.084,-45.074,0.250,-14.666
1747652310.20,-0.066,-0.131,-0.055,-1.811,0.109,0.090,-46.101,0.317,-14.589
1747652310.21,-0.054,-0.137,0.002,-1.792,0.176,0.100,-47.128,0.468,-14.500
1747652310.22,-0.066,-0.106,-0.008,-1.866,0.201,0.120,-48.167,0.655,-14.392
1747652310.23,-0.076,-0.045,-0.013,-1.980,0.248,0.150,-49.266,0.886,-14.254
1747652310.24,-0.048,0.024,0.048,-2.042,0.277,0.182,-50.414,1.173,-14.077
1747652310.25,-0.004,0.093,0.094,-2.046,0.212,0.223,-51.581,1.492,-13.850
1747652310.26,0.048,0.155,0.146,-2.004,0.071,0.226,-52.733,1.785,-13.583
1747652310.27,0.084,0.185,0.168,-1.905,-0.108,0.189,-53.848,1.985,-13.321
1747652310.28,0.116,0.158,0.143,-1.762,-0.335,0.138,-54.891,2.043,-13.098
1747652310.29,0.147,0.092,0.012,-1.708,-0.588,0.109,-55.874,1.929,-12.916
1747652310.30,0.138,0.026,-0.022,-1.738,-0.725,0.099,-56.855,1.683,-12.754
1747652310.31,0.109,-0.017,0.031,-1.705,-0.771,0.080,-57.840,1.377,-12.610
1747652310.32,0.078,-0.029,0.077,-1.649,-0.831,0.068,-58.795,1.018,-12.495
1747652310.33,0.030,-0.008,0.075,-1.633,-0.778,0.094,-59.731,0.653,-12.376
1747652310.34,0.010,0.019,0.093,-1.581,-0.605,0.089,-60.650,0.366,-12.252
1747652310.35,-0.025,0.038,0.118,-1.457,-0.496,0.027,-61.520,0.119,-12.176
1747652310.36,-0.126,0.031,0.107,-1.311,-0.357,-0.030,-62.310,-0.133,-12.181
1747652310.37,-0.225,-0.003,0.039,-1.221,-0.139,-0.081,-63.029,-0.342,-12.256
1747652310.38,-0.270,-0.073,0.009,-1.160,0.019,-0.141,-63.710,-0.507,-12.407
1747652310.39,-0.300,-0.129,-0.017,-1.083,0.132,-0.188,-64.349,-0.672,-12.639
1747652310.40,-0.300,-0.153,-0.048,-1.087,0.319,-0.205,-64.964,-0.803,-12.921
1747652310.41,-0.228,-0.148,-0.031,-1.140,0.564,-0.204,-65.598,-0.827,-13.225
1747652310.42,-0.096,-0.127,0.029,-1.166,0.707,-0.179,-66.256,-0.723,-13.517
1747652310.43,0.051,-0.101,0.043,-1.108,0.736,-0.123,-66.911,-0.527,-13.756
1747652310.44,0.194,-0.056,0.028,-1.127,0.737,-0.086,-67.547,-0.251,-13.917
1747652310.45,0.312,0.012,0.037,-1.020,0.559,-0.135,-68.165,-0.022,-14.079
1747652310.46,0.332,0.086,0.083,-0.887,0.192,-0.211,-68.707,-0.057,-14.348
1747652310.47,0.280,0.139,-0.037,-0.825,-0.102,-0.292,-69.195,-0.412,-14.751
1747652310.48,0.244,0.128,-0.062,-0.726,-0.291,-0.414,-69.637,-1.075,-15.338
1747652310.49,0.179,0.076,-0.079,-0.627,-0.388,-0.534,-70.013,-2.041,-16.154
1747652310.50,0.088,0.008,-0.150,-0.574,-0.305,-0.636,-70.340,-3.216,-17.186
1747652310.51,0.045,-0.045,-0.176,-0.529,-0.128,-0.719,-70.628,-4.490,-18.407
1747652310.52,0.041,-0.073,-0.166,-0.511,-0.035,-0.777,-70.884,-5.831,-19.782
1747652310.53,0.030,-0.070,-0.174,-0.502,-0.071,-0.816,-71.119,-7.268,-21.274
1747652310.54,0.014,-0.033,-0.212,-0.500,-0.140,-0.884,-71.333,-8.856,-22.885
1747652310.55,0.021,0.050,-0.245,-0.515,-0.095,-1.012,-71.528,-10.659,-24.710
1747652310.56,0.060,0.177,-0.216,-0.470,0.164,-1.106,-71.684,-12.609,-26.777
1747652310.57,0.154,0.255,-0.166,-0.371,0.435,-1.100,-71.769,-14.458,-28.921
1747652310.58,0.287,0.245,-0.152,-0.364,0.232,-1.057,-71.805,-16.221,-30.993
1747652310.59,0.364,0.151,-0.279,-0.387,0.087,-0.989,-71.839,-18.053,-33.000
1747652310.60,0.329,0.010,-0.430,-0.185,0.295,-0.749,-71.840,-19.574,-34.712
1747652310.61,0.242,-0.088,-0.457,0.240,0.389,-0.306,-71.730,-20.231,-35.626
1747652310.62,0.005,-0.139,-0.258,0.685,0.112,0.131,-71.456,-19.924,-35.456
1747652310.63,-0.398,-0.092,0.182,0.522,-0.076,0.285,-71.150,-19.181,-34.675
1747652310.64,-0.728,0.033,0.533,-0.125,-0.018,0.105,-71.076,-18.785,-34.217
1747652310.65,-0.694,0.059,0.578,-0.516,0.378,-0.007,-71.274,-18.823,-34.354
1747652310.66,-0.369,-0.093,0.381,-0.397,0.910,0.021,-71.533,-18.722,-34.635
1747652310.67,-0.085,-0.282,0.275,-0.276,1.343,0.125,-71.717,-18.128,-34.696
1747652310.68,0.076,-0.347,0.516,-0.551,1.351,0.200,-71.960,-17.268,-34.621
1747652310.69,0.149,-0.314,0.730,-0.913,0.749,0.186,-72.397,-16.699,-34.673
1747652310.70,0.125,-0.269,0.529,-1.144,-0.132,0.171,-72.991,-16.754,-34.915
1747652310.71,0.122,-0.281,0.290,-1.356,-0.756,0.222,-73.704,-17.373,-35.279
1747652310.72,0.205,-0.326,0.277,-1.595,-0.997,0.313,-74.554,-18.283,-35.695
1747652310.73,0.329,-0.374,0.358,-1.715,-1.146,0.392,-75.520,-19.322,-36.137
1747652310.74,0.396,-0.398,0.341,-1.659,-1.238,0.368,-76.507,-20.495,-36.641
1747652310.75,0.374,-0.358,0.165,-1.307,-1.179,0.263,-77.376,-21.802,-37.269
1747652310.76,0.316,-0.240,-0.150,-0.570,-1.309,0.181,-77.927,-22.924,-37.707
1747652310.77,0.239,-0.057,-0.562,0.003,-1.936,0.214,-78.097,-23.625,-37.490
1747652310.78,0.062,0.245,-0.964,-0.376,-2.618,0.312,-78.224,-24.412,-36.953
1747652310.79,-0.208,0.598,-0.848,-1.185,-2.519,0.253,-78.707,-26.112,-37.157
1747652310.80,-0.561,0.850,-0.337,-1.249,-1.792,0.033,-79.396,-28.716,-38.543
1747652310.81,-0.973,0.897,0.000,-0.618,-0.891,-0.147,-79.845,-31.134,-40.220
1747652310.82,-1.261,0.516,0.085,-0.241,0.135,-0.096,-79.994,-32.404,-41.284
1747652310.83,-1.185,0.022,-0.002,-0.369,1.229,0.192,-80.142,-32.397,-41.677
1747652310.84,-0.773,-0.335,-0.013,-0.642,2.006,0.512,-80.497,-31.336,-41.553
1747652310.85,-0.356,-0.483,0.162,-0.721,2.442,0.668,-81.016,-29.477,-40.967
1747652310.86,-0.156,-0.404,0.230,-0.573,2.604,0.627,-81.522,-27.018,-39.946
1747652310.87,-0.116,-0.183,0.073,-0.459,2.619,0.475,-81.921,-24.439,-38.850
1747652310.88,-0.098,0.021,-0.035,-0.447,2.581,0.362,-82.251,-22.113,-38.005
1747652310.89,0.067,0.101,0.027,-0.438,2.272,0.269,-82.554,-20.143,-37.429
1747652310.90,0.317,0.098,0.078,-0.381,1.609,0.187,-82.819,-18.675,-37.079
1747652310.91,0.528,0.066,0.015,-0.318,0.807,0.130,-83.036,-17.804,-36.894
1747652310.92,0.673,0.045,-0.072,-0.250,0.145,0.073,-83.209,-17.473,-36.829
1747652310.93,0.741,0.057,-0.100,-0.165,-0.382,-0.026,-83.327,-17.734,-37.020
1747652310.94,0.686,0.075,-0.070,-0.047,-0.866,-0.142,-83.371,-18.645,-37.577
1747652310.95,0.537,0.062,-0.052,0.065,-1.288,-0.262,-83.327,-20.182,-38.502
1747652310.96,0.368,0.029,-0.036,0.137,-1.550,-0.366,-83.205,-22.242,-39.753
1747652310.97,0.229,-0.003,0.024,0.162,-1.607,-0.407,-83.038,-24.564,-41.175
1747652310.98,0.116,-0.026,0.114,0.145,-1.444,-0.360,-82.861,-26.741,-42.484
1747652310.99,0.011,-0.040,0.153,0.042,-1.127,-0.257,-82.728,-28.514,-43.528
1747652311.00,-0.084,-0.049,0.177,-0.094,-0.776,-0.109,-82.691,-29.833,-44.309
1747652311.01,-0.162,-0.060,0.188,-0.164,-0.443,0.018,-82.744,-30.642,-44.773
1747652311.02,-0.231,-0.057,0.141,-0.170,-0.102,0.085,-82.843,-30.967,-44.944
1747652311.03,-0.295,-0.025,0.101,-0.173,0.224,0.093,-82.954,-30.973,-44.986
1747652311.04,-0.340,0.022,0.098,-0.177,0.495,0.078,-83.066,-30.839,-45.061
1747652311.05,-0.331,0.059,0.123,-0.162,0.681,0.073,-83.170,-30.613,-45.175
1747652311.05,-0.259,0.071,0.116,-0.196,0.802,0.079,-83.279,-30.306,-45.295
1747652311.07,-0.145,0.065,0.117,-0.239,0.868,0.089,-83.412,-30.003,-45.473
1747652311.07,-0.027,0.041,0.145,-0.225,0.819,0.073,-83.552,-29.747,-45.703
1747652311.08,0.050,0.006,0.135,-0.175,0.734,0.054,-83.670,-29.534,-45.933
1747652311.09,0.096,-0.010,0.121,-0.120,0.703,0.045,-83.756,-29.275,-46.083
1747652311.10,0.145,0.015,0.148,-0.121,0.700,0.054,-83.826,-28.951,-46.162
1747652311.12,0.182,0.038,0.263,-0.145,0.534,0.060,-83.909,-28.659,-46.232
1747652311.12,0.174,0.026,0.360,-0.141,0.180,0.035,-83.993,-28.586,-46.365
1747652311.13,0.119,-0.015,0.277,-0.146,-0.099,-0.019,-84.068,-28.905,-46.703
1747652311.14,0.089,-0.060,0.172,-0.078,-0.189,-0.049,-84.117,-29.488,-47.200
1747652311.15,0.118,-0.085,0.124,0.043,-0.140,-0.037,-84.114,-29.846,-47.463
1747652311.16,0.152,-0.102,0.090,0.133,-0.127,-0.002,-84.064,-29.769,-47.315
1747652311.17,0.143,-0.084,0.034,0.248,-0.350,0.025,-83.974,-29.329,-46.743
1747652311.18,0.075,-0.021,-0.129,0.338,-0.622,0.038,-83.834,-28.683,-45.811
1747652311.19,-0.011,0.051,-0.286,0.363,-0.737,0.033,-83.667,-28.040,-44.766
1747652311.20,-0.040,0.112,-0.324,0.438,-0.654,0.001,-83.473,-27.419,-43.735
1747652311.21,-0.040,0.154,-0.345,0.514,-0.405,-0.059,-83.222,-26.779,-42.778
1747652311.22,-0.068,0.160,-0.338,0.539,0.024,-0.113,-82.928,-26.149,-42.030
1747652311.23,-0.115,0.112,-0.171,0.526,0.371,-0.118,-82.626,-25.462,-41.460
1747652311.24,-0.187,0.037,0.012,0.538,0.475,-0.080,-82.326,-24.635,-40.877
1747652311.25,-0.306,-0.031,0.063,0.539,0.467,0.010,-82.035,-23.600,-40.103
1747652311.26,-0.389,-0.076,0.050,0.527,0.563,0.145,-81.770,-22.195,-38.976
1747652311.27,-0.321,-0.097,0.044,0.503,0.773,0.263,-81.540,-20.331,-37.476
1747652311.28,-0.125,-0.097,0.073,0.574,0.926,0.261,-81.305,-18.210,-35.826
1747652311.29,0.048,-0.052,0.084,0.723,0.951,0.149,-80.986,-16.231,-34.372
1747652311.30,0.107,0.040,0.050,0.718,0.863,0.022,-80.595,-14.733,-33.381
1747652311.31,0.099,0.117,0.056,0.583,0.686,-0.057,-80.231,-13.807,-32.894
1747652311.32,0.069,0.126,0.129,0.539,0.371,-0.123,-79.912,-13.369,-32.758
1747652311.33,0.013,0.078,0.094,0.545,0.069,-0.151,-79.592,-13.288,-32.799
1747652311.34,-0.033,0.017,0.020,0.534,-0.010,-0.095,-79.275,-13.280,-32.800
1747652311.35,-0.001,-0.026,0.080,0.522,0.025,0.002,-78.975,-13.055,-32.577
1747652311.36,0.060,-0.048,0.187,0.545,-0.049,0.081,-78.685,-12.592,-32.102
1747652311.37,0.080,-0.052,0.196,0.622,-0.250,0.113,-78.374,-12.050,-31.465
1747652311.38,0.072,-0.040,0.105,0.741,-0.477,0.099,-78.007,-11.586,-30.778
1747652311.39,0.063,-0.021,-0.004,0.840,-0.597,0.049,-77.571,-11.284,-30.150
1747652311.40,0.044,-0.014,-0.064,0.887,-0.583,-0.029,-77.088,-11.172,-29.686
1747652311.41,0.017,-0.026,-0.092,0.908,-0.548,-0.103,-76.576,-11.226,-29.411
1747652311.42,-0.000,-0.031,-0.132,0.820,-0.572,-0.152,-76.071,-11.439,-29.303
1747652311.43,-0.029,-0.018,-0.163,0.602,-0.540,-0.139,-75.657,-11.772,-29.313
1747652311.44,-0.064,-0.004,-0.110,0.527,-0.358,-0.071,-75.338,-12.011,-29.292
1747652311.45,-0.082,-0.003,-0.049,0.637,-0.159,0.008,-75.012,-11.967,-29.095
1747652311.46,-0.107,-0.002,-0.044,0.741,-0.008,0.092,-74.630,-11.610,-28.677
1747652311.47,-0.134,-0.009,-0.008,0.820,0.116,0.137,-74.207,-11.029,-28.105
1747652311.48,-0.148,-0.031,0.019,0.959,0.199,0.096,-73.724,-10.370,-27.516
1747652311.49,-0.162,-0.046,-0.029,1.135,0.226,0.025,-73.139,-9.787,-27.033
1747652311.50,-0.179,-0.044,-0.131,1.124,0.335,0.048,-72.498,-9.225,-26.608
1747652311.51,-0.142,-0.045,-0.118,1.022,0.476,0.076,-71.900,-8.580,-26.178
1747652311.52,-0.068,-0.054,-0.046,0.969,0.545,0.076,-71.342,-7.917,-25.785
1747652311.53,-0.026,-0.060,-0.069,0.856,0.653,0.144,-70.831,-7.202,-25.390
1747652311.54,0.034,-0.065,-0.018,0.780,0.650,0.270,-70.385,-6.330,-24.868
1747652311.55,0.085,-0.065,0.051,0.806,0.417,0.383,-69.956,-5.378,-24.186
1747652311.56,0.086,-0.026,-0.011,0.878,0.123,0.442,-69.498,-4.465,-23.374
1747652311.57,0.072,0.017,-0.048,0.946,-0.057,0.394,-68.996,-3.713,-22.584
1747652311.58,0.071,0.031,-0.018,1.082,-0.090,0.258,-68.434,-3.186,-21.971
1747652311.59,0.080,0.004,0.011,1.286,-0.129,0.098,-67.764,-2.903,-21.603
1747652311.60,0.074,-0.012,0.001,1.350,-0.278,-0.035,-67.002,-2.887,-21.461
1747652311.61,0.037,0.016,0.012,1.149,-0.287,-0.074,-66.282,-3.051,-21.456
1747652311.62,-0.020,0.039,0.109,1.000,-0.116,-0.034,-65.675,-3.169,-21.454
1747652311.63,-0.042,0.022,0.177,0.987,0.070,0.039,-65.110,-3.111,-21.379
1747652311.64,-0.059,-0.004,0.102,0.934,0.123,0.107,-64.562,-2.897,-21.209
1747652311.65,-0.076,-0.015,0.040,0.868,0.103,0.151,-64.053,-2.624,-20.978
1747652311.66,-0.053,-0.010,0.061,0.896,0.072,0.156,-63.558,-2.353,-20.732
1747652311.67,0.034,0.002,0.075,1.073,0.062,0.108,-63.004,-2.116,-20.511
1747652311.68,0.112,0.010,0.051,1.217,-0.052,0.034,-62.347,-1.982,-20.370
1747652311.69,0.124,0.029,0.007,1.255,-0.161,-0.032,-61.638,-2.002,-20.318
1747652311.70,0.067,0.051,0.006,1.132,-0.044,-0.018,-60.950,-2.056,-20.302
1747652311.71,0.018,0.050,0.125,0.971,0.231,0.058,-60.352,-1.945,-20.238
1747652311.72,-0.023,0.022,0.262,0.844,0.240,0.167,-59.837,-1.656,-20.078
1747652311.73,-0.065,-0.014,0.155,0.712,-0.096,0.324,-59.396,-1.354,-19.781
1747652311.74,-0.033,-0.039,-0.011,0.620,-0.316,0.483,-59.025,-1.080,-19.312
1747652311.75,0.191,-0.053,-0.014,0.661,-0.312,0.537,-58.669,-0.761,-18.727
1747652311.76,0.469,-0.052,0.044,0.791,-0.440,0.454,-58.260,-0.491,-18.170
1747652311.77,0.510,-0.027,0.021,0.931,-0.774,0.300,-57.769,-0.481,-17.751
1747652311.78,0.274,0.031,-0.105,1.028,-1.022,0.128,-57.208,-0.802,-17.514
1747652311.79,-0.030,0.095,-0.144,1.010,-0.969,0.023,-56.622,-1.307,-17.422
1747652311.80,-0.228,0.125,-0.089,0.953,-0.604,-0.014,-56.062,-1.738,-17.393
1747652311.81,-0.284,0.116,-0.021,0.899,-0.179,-0.038,-55.534,-1.957,-17.389
1747652311.82,-0.270,0.079,-0.021,0.895,0.103,-0.048,-55.025,-1.982,-17.403
1747652311.83,-0.198,0.031,-0.027,0.900,0.163,-0.034,-54.510,-1.908,-17.415
1747652311.84,-0.086,-0.015,-0.019,0.879,0.104,0.004,-54.003,-1.821,-17.402
1747652311.85,0.010,-0.055,0.046,0.929,0.054,0.025,-53.492,-1.741,-17.360
1747652311.86,0.052,-0.084,0.049,1.001,-0.107,0.006,-52.939,-1.715,-17.316
1747652311.87,0.008,-0.099,-0.030,1.046,-0.302,-0.046,-52.356,-1.827,-17.303
1747652311.88,-0.073,-0.106,-0.102,1.087,-0.219,-0.128,-51.744,-2.024,-17.348
1747652311.89,-0.091,-0.095,-0.082,1.057,0.099,-0.206,-51.127,-2.152,-17.466
1747652311.90,-0.066,-0.060,0.070,1.004,0.253,-0.270,-50.534,-2.181,-17.648
1747652311.91,-0.084,-0.015,0.120,0.991,0.215,-0.236,-49.960,-2.197,-17.847
1747652311.92,-0.078,0.023,0.045,0.968,0.152,-0.102,-49.395,-2.185,-17.965
1747652311.93,0.046,0.030,0.006,0.981,0.119,-0.020,-48.842,-2.116,-17.979
1747652311.94,0.209,0.019,0.018,1.072,-0.038,0.003,-48.257,-2.065,-17.945
1747652311.95,0.297,0.005,-0.001,1.166,-0.251,-0.088,-47.617,-2.152,-17.949
1747652311.96,0.271,0.004,0.009,1.173,-0.344,-0.143,-46.942,-2.371,-18.008
1747652311.97,0.198,-0.001,0.011,1.122,-0.353,-0.188,-46.284,-2.640,-18.104
1747652311.98,0.102,-0.017,-0.026,1.095,-0.345,-0.198,-45.646,-2.925,-18.222
1747652311.99,-0.026,-0.035,-0.057,1.059,-0.187,-0.136,-45.025,-3.150,-18.315
1747652312.00,-0.083,-0.034,0.032,1.007,0.028,-0.032,-44.434,-3.210,-18.337
1747652312.01,-0.003,-0.011,0.112,1.019,0.170,0.060,-43.860,-3.109,-18.280
1747652312.02,0.119,0.021,0.105,1.072,0.190,0.121,-43.266,-2.923,-18.162
1747652312.03,0.172,0.055,0.072,1.080,0.158,0.139,-42.654,-2.721,-18.018
1747652312.04,0.139,0.085,0.071,1.066,-0.009,0.109,-42.046,-2.583,-17.882
1747652312.05,0.038,0.084,0.011,1.051,-0.184,0.055,-41.445,-2.575,-17.784
1747652312.06,-0.069,0.070,-0.039,1.058,-0.221,-0.007,-40.846,-2.659,-17.729
1747652312.07,-0.131,0.059,0.004,1.079,-0.170,-0.075,-40.233,-2.767,-17.722
1747652312.08,-0.152,0.042,0.041,1.044,-0.106,-0.122,-39.623,-2.869,-17.758
1747652312.09,-0.140,0.022,0.022,0.983,-0.025,-0.126,-39.043,-2.941,-17.813
1747652312.10,-0.074,-0.011,-0.007,0.984,0.022,-0.083,-38.481,-2.967,-17.852
1747652312.11,0.013,-0.017,0.006,1.020,0.090,-0.058,-37.908,-2.944,-17.863
1747652312.12,0.078,0.023,0.014,1.059,0.092,-0.082,-37.314,-2.892,-17.874
1747652312.13,0.104,0.087,0.049,1.075,-0.026,-0.125,-36.701,-2.895,-17.909
1747652312.14,0.039,0.117,0.048,1.068,-0.122,-0.166,-36.087,-2.976,-17.972
1747652312.15,-0.058,0.110,0.040,1.094,-0.216,-0.207,-35.466,-3.124,-18.063
1747652312.16,-0.149,0.081,-0.006,1.089,-0.224,-0.232,-34.834,-3.320,-18.173
1747652312.17,-0.189,0.012,-0.031,1.045,-0.124,-0.247,-34.218,-3.491,-18.292
1747652312.18,-0.148,-0.031,0.010,1.000,-0.003,-0.292,-33.624,-3.608,-18.437
1747652312.19,-0.050,-0.051,0.031,0.943,0.036,-0.274,-33.060,-3.677,-18.591
1747652312.20,0.042,-0.051,0.050,0.930,0.016,-0.190,-32.520,-3.727,-18.711
1747652312.21,0.119,-0.021,0.042,0.965,0.021,-0.116,-31.976,-3.748,-18.760
1747652312.22,0.167,0.020,0.046,1.022,-0.038,-0.090,-31.406,-3.764,-18.787
1747652312.23,0.191,0.085,0.019,1.057,-0.150,-0.052,-30.808,-3.820,-18.787
1747652312.24,0.141,0.084,0.010,1.031,-0.175,-0.051,-30.211,-3.908,-18.772
1747652312.25,0.073,0.068,0.029,1.053,-0.136,-0.096,-29.614,-3.998,-18.773
1747652312.26,0.019,0.020,0.008,1.035,-0.041,-0.128,-29.014,-4.064,-18.800
1747652312.27,-0.020,-0.048,-0.023,1.018,0.039,-0.121,-28.426,-4.078,-18.833
1747652312.28,-0.027,-0.085,-0.044,0.995,0.051,-0.087,-27.846,-4.056,-18.854
1747652312.29,-0.049,-0.114,-0.054,0.938,0.012,-0.023,-27.294,-4.036,-18.846
1747652312.30,-0.016,-0.094,-0.024,0.919,-0.003,0.030,-26.766,-4.013,-18.801
1747652312.31,0.063,-0.019,0.001,0.927,-0.044,0.092,-26.242,-3.990,-18.721
1747652312.32,0.151,0.054,0.018,0.927,-0.156,0.144,-25.720,-3.998,-18.604
1747652312.33,0.190,0.090,0.014,0.980,-0.189,0.129,-25.182,-4.043,-18.472
1747652312.34,0.161,0.083,0.020,1.033,-0.146,0.061,-24.615,-4.098,-18.366
1747652312.35,0.055,0.051,0.061,1.089,-0.117,-0.032,-24.009,-4.146,-18.310
1747652312.36,-0.062,-0.005,0.028,1.071,-0.084,-0.053,-23.388,-4.199,-18.288
1747652312.37,-0.117,-0.070,-0.027,0.969,0.053,-0.080,-22.804,-4.206,-18.283
1747652312.38,-0.091,-0.074,-0.029,0.957,0.130,-0.098,-22.256,-4.158,-18.296
1747652312.39,-0.085,-0.071,0.006,0.947,0.140,-0.072,-21.710,-4.084,-18.307
1747652312.40,-0.103,-0.057,0.022,0.949,0.088,-0.038,-21.168,-4.014,-18.301
1747652312.41,-0.077,-0.010,-0.009,0.965,-0.001,-0.026,-20.623,-3.977,-18.279
1747652312.42,-0.008,0.055,-0.040,1.025,-0.068,-0.020,-20.056,-3.992,-18.252
1747652312.43,0.092,0.117,-0.006,1.069,-0.072,-0.023,-19.458,-4.021,-18.219
1747652312.44,0.157,0.147,0.030,1.107,-0.079,-0.063,-18.835,-4.057,-18.199
1747652312.45,0.105,0.134,0.049,1.106,-0.044,-0.098,-18.203,-4.096,-18.197
1747652312.46,0.021,0.086,0.082,1.068,0.088,-0.137,-17.577,-4.093,-18.222
1747652312.47,-0.046,-0.028,0.055,1.016,0.173,-0.130,-16.979,-4.024,-18.260
1747652312.48,-0.064,-0.114,-0.012,1.012,0.165,-0.089,-16.399,-3.934,-18.285
1747652312.49,-0.072,-0.129,-0.058,1.030,0.184,-0.035,-15.815,-3.838,-18.281
1747652312.50,-0.039,-0.066,-0.035,1.024,0.155,-0.008,-15.228,-3.731,-18.252
1747652312.51,0.014,0.032,-0.022,1.044,0.073,-0.025,-14.640,-3.659,-18.221
1747652312.52,0.043,0.116,-0.007,1.106,0.051,-0.057,-14.026,-3.622,-18.204
1747652312.53,0.048,0.167,0.029,1.155,0.058,-0.098,-13.378,-3.590,-18.209
1747652312.54,0.038,0.147,0.042,1.210,0.037,-0.099,-12.704,-3.564,-18.054
1747652312.55,0.022,0.089,0.028,1.219,0.062,-0.119,-12.006,-3.544,-18.074
1747652312.56,-0.016,-0.027,0.023,1.185,0.172,-0.131,-11.316,-3.483,-17.946
1747652312.57,-0.006,-0.107,0.023,1.102,0.241,-0.125,-10.658,-3.370,-17.982
1747652312.58,-0.008,-0.153,-0.036,1.051,0.257,-0.073,-10.043,-3.231,-17.869
1747652312.59,0.008,-0.127,-0.073,1.116,0.250,0.001,-9.431,-3.083,-17.855
1747652312.60,0.044,0.018,-0.006,1.239,0.251,0.039,-8.758,-2.934,-17.671
1747652312.61,0.040,0.200,0.050,1.262,0.203,0.009,-8.043,-2.793,-17.621
1747652312.62,0.038,0.288,0.054,1.232,0.148,0.014,-7.330,-2.690,-17.475
1747652312.63,0.031,0.227,0.043,1.252,0.113,-0.031,-6.618,-2.614,-17.446
1747652312.64,-0.003,0.085,0.033,1.278,0.191,-0.082,-5.896,-2.530,-17.350
1747652312.65,-0.049,-0.055,0.055,1.299,0.324,-0.137,-5.156,-2.390,-17.381
1747652312.66,-0.075,-0.104,0.075,1.218,0.469,-0.177,-4.430,-2.165,-17.345
1747652312.67,-0.085,-0.141,0.027,1.084,0.467,-0.152,-3.770,-1.899,-17.419
1747652312.68,-0.075,-0.153,-0.120,1.006,0.371,-0.079,-3.172,-1.661,-17.365
1747652312.69,-0.016,-0.122,-0.195,0.954,0.268,-0.018,-2.614,-1.479,-17.376
1747652312.70,0.040,0.008,-0.093,0.964,0.193,-0.021,-2.068,-1.348,-17.270
1747652312.71,0.062,0.181,0.002,0.994,0.126,-0.049,-1.508,-1.255,-17.278
1747652312.72,0.043,0.245,0.016,0.989,0.016,-0.067,-0.940,-1.214,-17.217
1747652312.73,-0.003,0.170,-0.021,0.985,-0.011,-0.059,-0.374,-1.217,-17.147
1747652312.74,-0.016,0.071,-0.032,1.019,0.047,-0.118,0.202,-1.207,-17.183
1747652312.75,-0.016,0.008,-0.015,1.054,0.196,-0.161,0.794,-1.138,-17.172
1747652312.76,-0.046,-0.051,0.022,1.056,0.302,-0.161,1.402,-0.992,-17.254
1747652312.77,-0.060,0.024,0.021,0.979,0.347,-0.179,1.985,-0.803,-17.263
1747652312.78,-0.051,0.050,-0.055,0.962,0.348,-0.173,2.536,-0.598,-17.358
1747652312.79,0.035,0.031,-0.166,1.006,0.268,-0.140,3.099,-0.417,-17.381
1747652312.80,0.088,0.084,-0.128,1.002,0.164,-0.152,3.676,-0.289,-17.458
1747652312.81,0.066,0.230,-0.041,0.961,0.039,-0.213,4.236,-0.222,-17.510
1747652312.82,-0.012,0.244,-0.029,0.926,-0.005,-0.269,4.775,-0.208,-17.648
1747652312.83,-0.137,0.119,-0.043,0.920,0.065,-0.313,5.299,-0.175,-17.762
1747652312.84,-0.188,0.023,-0.042,0.889,0.124,-0.339,5.816,-0.104,-17.947
1747652312.85,-0.167,-0.099,-0.054,0.852,0.162,-0.360,6.314,0.000,-18.117
1747652312.86,-0.093,-0.079,-0.056,0.806,0.141,-0.349,6.788,0.113,-18.321
1747652312.87,-0.029,-0.059,-0.048,0.785,0.109,-0.337,7.237,0.202,-18.479
1747652312.88,0.037,-0.060,-0.063,0.728,0.005,-0.312,7.676,0.256,-18.673
1747652312.89,0.093,-0.080,-0.058,0.674,-0.097,-0.303,8.072,0.252,-18.832
1747652312.90,0.119,-0.033,-0.027,0.688,-0.125,-0.279,8.460,0.210,-19.004
1747652312.91,0.113,-0.031,-0.055,0.723,-0.025,-0.238,8.861,0.187,-19.137
1747652312.92,0.100,-0.075,-0.028,0.751,0.094,-0.243,9.285,0.230,-19.276
1747652312.93,0.053,-0.093,-0.009,0.727,0.186,-0.238,9.707,0.334,-19.417
1747652312.94,0.019,-0.080,-0.016,0.707,0.206,-0.178,10.116,0.468,-19.540
1747652312.95,0.034,-0.054,-0.053,0.670,0.212,-0.114,10.508,0.603,-19.627
1747652312.96,0.035,-0.006,-0.036,0.651,0.210,-0.057,10.883,0.734,-19.681
1747652312.97,0.040,0.007,-0.006,0.639,0.206,-0.013,11.251,0.857,-19.731
1747652312.98,0.065,0.009,0.018,0.633,0.187,0.018,11.614,0.970,-19.735
1747652312.99,0.100,0.007,0.041,0.660,0.191,0.037,11.983,1.076,-19.752
1747652313.00,0.127,0.003,0.041,0.686,0.145,0.037,12.367,1.171,-19.738
1747652313.01,0.129,0.025,-0.000,0.712,0.063,0.043,12.767,1.229,-19.758
1747652313.02,0.118,0.049,-0.069,0.661,0.013,0.028,13.160,1.243,-19.746
1747652313.03,0.061,0.034,-0.098,0.651,0.072,0.031,13.534,1.264,-19.777
1747652313.04,-0.005,-0.008,-0.073,0.661,0.095,0.030,13.911,1.314,-19.767
1747652313.05,-0.068,0.003,-0.029,0.622,0.135,0.031,14.277,1.376,-19.793
1747652313.06,-0.111,-0.040,0.024,0.604,0.150,0.022,14.627,1.457,-19.786
1747652313.07,-0.086,-0.008,0.029,0.584,0.116,0.015,14.967,1.533,-19.840
1747652313.08,-0.042,-0.009,0.016,0.642,0.085,0.020,15.312,1.589,-19.840
1747652313.09,0.022,-0.010,-0.015,0.676,0.074,0.008,15.693,1.634,-19.902
1747652313.10,0.048,-0.009,-0.024,0.640,0.067,-0.019,16.069,1.679,-19.917
1747652313.11,0.058,-0.006,-0.040,0.625,0.029,-0.034,16.431,1.715,-20.000
1747652313.12,0.050,-0.004,-0.088,0.549,0.015,-0.028,16.764,1.735,-20.029
1747652313.13,-0.007,-0.069,-0.105,0.534,0.030,-0.017,17.073,1.754,-20.088
1747652313.14,-0.076,-0.003,-0.099,0.502,0.092,-0.010,17.370,1.793,-20.104
1747652313.15,-0.115,0.041,-0.042,0.474,0.120,-0.007,17.648,1.861,-20.171
1747652313.16,-0.078,0.054,-0.028,0.440,0.061,-0.017,17.909,1.922,-20.186
1747652313.17,-0.002,0.045,-0.048,0.427,-0.048,-0.031,18.155,1.932,-20.267
1747652313.18,0.041,0.031,-0.058,0.400,-0.090,-0.028,18.392,1.898,-20.294
1747652313.19,0.036,-0.004,-0.056,0.427,-0.071,-0.010,18.625,1.858,-20.375
1747652313.20,0.034,-0.032,-0.062,0.414,-0.051,-0.020,18.868,1.827,-20.390
1747652313.21,0.028,-0.023,-0.066,0.378,-0.054,-0.040,19.092,1.807,-20.480
1747652313.22,0.015,-0.027,-0.092,0.353,-0.055,-0.044,19.302,1.785,-20.513
1747652313.23,-0.020,-0.056,-0.090,0.302,-0.031,-0.058,19.488,1.772,-20.608
1747652313.24,-0.051,-0.057,-0.062,0.276,-0.001,-0.060,19.651,1.777,-20.649
1747652313.25,-0.063,-0.024,-0.036,0.244,0.028,-0.048,19.799,1.797,-20.744
1747652313.26,-0.059,0.003,-0.017,0.203,0.030,-0.038,19.926,1.826,-20.774
1747652313.27,-0.016,-0.002,-0.041,0.173,-0.010,-0.013,20.032,1.840,-20.857
1747652313.28,0.040,-0.005,-0.073,0.163,-0.070,0.013,20.128,1.818,-20.861
1747652313.29,0.072,-0.026,-0.081,0.155,-0.100,0.016,20.217,1.765,-20.918
1747652313.30,0.074,-0.051,-0.055,0.141,-0.088,0.014,20.302,1.707,-20.910
1747652313.31,0.066,-0.065,-0.025,0.100,-0.054,0.018,20.372,1.664,-20.960
1747652313.32,0.049,-0.080,-0.007,0.058,-0.010,0.020,20.416,1.642,-20.952
1747652313.33,0.023,-0.091,-0.003,0.056,0.013,0.040,20.448,1.637,-20.982
1747652313.34,-0.002,-0.050,-0.017,0.041,0.056,0.048,20.477,1.647,-20.955
1747652313.35,-0.028,0.005,-0.025,0.020,0.057,0.052,20.495,1.670,-20.966
1747652313.36,-0.033,0.017,-0.046,-0.016,0.041,0.068,20.497,1.688,-20.929
1747652313.37,-0.010,-0.013,-0.059,-0.046,0.037,0.090,20.480,1.694,-20.934
1747652313.38,0.020,-0.048,-0.061,-0.062,0.038,0.096,20.450,1.697,-20.876
1747652313.39,0.018,-0.048,-0.036,-0.063,0.065,0.091,20.419,1.707,-20.866
1747652313.40,0.005,-0.038,-0.014,-0.071,0.096,0.087,20.386,1.737,-20.812
1747652313.41,0.013,-0.041,-0.012,-0.134,0.056,0.085,20.331,1.766,-20.800
1747652313.42,0.007,-0.042,-0.037,-0.154,-0.018,0.079,20.251,1.758,-20.747
1747652313.43,-0.014,-0.043,-0.072,-0.180,-0.052,0.058,20.157,1.720,-20.744
1747652313.44,-0.032,-0.023,-0.078,-0.208,-0.051,0.036,20.046,1.680,-20.713
1747652313.45,-0.047,0.018,-0.086,-0.238,-0.087,0.045,19.919,1.629,-20.728
1747652313.46,-0.077,0.026,-0.108,-0.265,-0.041,0.062,19.777,1.577,-20.690
1747652313.47,-0.097,0.006,-0.104,-0.311,0.034,0.054,19.615,1.562,-20.689
1747652313.48,-0.105,-0.008,-0.069,-0.335,0.060,0.056,19.431,1.577,-20.651
1747652313.49,-0.106,-0.040,-0.079,-0.384,0.107,0.048,19.230,1.611,-20.643
1747652313.50,-0.087,-0.077,-0.091,-0.466,0.128,0.026,18.988,1.670,-20.615
1747652313.51,-0.062,-0.119,-0.100,-0.527,0.132,0.012,18.705,1.738,-20.632
1747652313.52,-0.027,-0.156,-0.098,-0.579,0.114,0.001,18.391,1.804,-20.617
1747652313.53,0.008,-0.156,-0.092,-0.666,0.084,-0.011,18.038,1.857,-20.633
1747652313.54,0.010,-0.158,-0.114,-0.755,0.076,0.014,17.632,1.898,-20.620
1747652313.55,0.010,-0.192,-0.109,-0.839,0.074,0.064,17.178,1.930,-20.595
1747652313.56,0.040,-0.191,-0.093,-0.917,0.074,0.117,16.679,1.952,-20.524
1747652313.57,0.088,-0.141,-0.099,-0.980,0.089,0.178,16.141,1.969,-20.408
1747652313.58,0.121,-0.104,-0.099,-1.045,0.082,0.239,15.566,1.980,-20.264
1747652313.59,0.130,-0.105,-0.098,-1.116,0.056,0.307,14.957,1.969,-20.065
1747652313.60,0.131,-0.113,-0.122,-1.167,0.084,0.336,14.310,1.952,-19.850
1747652313.61,0.125,-0.103,-0.104,-1.226,0.131,0.343,13.635,1.962,-19.601
1747652313.62,0.114,-0.088,-0.076,-1.277,0.124,0.346,12.927,1.984,-19.357
1747652313.63,0.095,-0.074,-0.081,-1.339,0.117,0.374,12.187,2.000,-19.120
1747652313.64,0.070,-0.060,-0.086,-1.378,0.084,0.393,11.419,2.007,-18.839
1747652313.65,0.037,-0.029,-0.089,-1.410,0.037,0.399,10.631,1.992,-18.579
1747652313.66,0.013,0.006,-0.097,-1.443,-0.014,0.388,9.824,1.953,-18.259
1747652313.67,0.010,0.018,-0.086,-1.474,-0.054,0.366,9.000,1.892,-18.013
1747652313.68,0.021,0.006,-0.076,-1.491,-0.106,0.357,8.160,1.812,-17.736
1747652313.69,0.029,-0.012,-0.085,-1.512,-0.145,0.350,7.309,1.707,-17.505
1747652313.70,0.010,-0.015,-0.100,-1.551,-0.139,0.324,6.440,1.601,-17.235
1747652313.71,-0.037,-0.002,-0.081,-1.565,-0.111,0.288,5.554,1.507,-17.036
1747652313.72,-0.111,0.013,-0.032,-1.586,-0.048,0.244,4.658,1.445,-16.791
1747652313.73,-0.159,0.024,0.001,-1.605,-0.010,0.160,3.749,1.421,-16.651
1747652313.74,-0.153,0.021,-0.031,-1.596,-0.036,0.081,2.836,1.406,-16.473
1747652313.75,-0.125,-0.003,-0.045,-1.575,-0.075,0.010,1.932,1.371,-16.425
1747652313.76,-0.078,-0.019,-0.019,-1.582,-0.114,-0.077,1.034,1.318,-16.364
1747652313.77,-0.034,-0.010,-0.031,-1.624,-0.208,-0.105,0.118,1.228,-16.399
1747652313.78,-0.017,-0.003,-0.064,-1.662,-0.304,-0.052,-0.821,1.080,-16.427
1747652313.79,-0.011,-0.002,-0.063,-1.695,-0.356,0.036,-1.781,0.890,-16.415
1747652313.80,0.014,0.000,-0.042,-1.661,-0.344,0.072,-2.743,0.690,-16.282
1747652313.81,0.035,-0.001,-0.023,-1.609,-0.245,0.061,-3.675,0.521,-16.233
1747652313.82,0.028,-0.018,0.024,-1.564,-0.066,0.022,-4.581,0.433,-16.201
1747652313.83,0.018,-0.055,0.059,-1.564,0.088,-0.036,-5.471,0.444,-16.198
1747652313.84,0.004,-0.087,0.059,-1.560,0.108,-0.049,-6.364,0.502,-16.218
1747652313.85,-0.011,-0.105,0.018,-1.585,0.098,-0.011,-7.262,0.558,-16.228
1747652313.86,-0.012,-0.107,-0.021,-1.608,0.066,0.031,-8.174,0.609,-16.211
1747652313.87,-0.007,-0.081,-0.037,-1.607,0.002,0.032,-9.094,0.633,-16.181
1747652313.88,-0.018,-0.028,-0.002,-1.570,-0.044,-0.024,-10.003,0.620,-16.166
1747652313.89,-0.051,0.019,0.055,-1.520,-0.054,-0.131,-10.885,0.585,-16.200
1747652313.90,-0.085,0.039,0.053,-1.505,-0.093,-0.242,-11.748,0.525,-16.301
1747652313.91,-0.112,0.033,0.007,-1.523,-0.116,-0.325,-12.612,0.430,-16.461
1747652313.92,-0.127,0.003,-0.005,-1.573,-0.131,-0.363,-13.497,0.315,-16.660
1747652313.93,-0.105,-0.035,0.013,-1.593,-0.163,-0.346,-14.403,0.182,-16.866
1747652313.94,-0.065,-0.072,0.018,-1.616,-0.237,-0.288,-15.319,0.021,-17.051
1747652313.95,-0.035,-0.093,0.020,-1.620,-0.272,-0.239,-16.244,-0.171,-17.209
1747652313.96,0.008,-0.091,0.030,-1.585,-0.189,-0.205,-17.159,-0.345,-17.346
1747652313.97,0.075,-0.069,0.055,-1.551,-0.114,-0.205,-18.052,-0.467,-17.475
1747652313.98,0.132,-0.031,0.057,-1.564,-0.146,-0.201,-18.939,-0.581,-17.607
1747652313.99,0.135,0.001,0.023,-1.567,-0.196,-0.167,-19.832,-0.719,-17.730
1747652314.00,0.126,0.008,-0.003,-1.582,-0.288,-0.106,-20.729,-0.889,-17.828
1747652314.01,0.134,-0.004,-0.050,-1.609,-0.370,-0.029,-21.641,-1.100,-17.886
1747652314.02,0.141,-0.031,-0.045,-1.598,-0.373,0.027,-22.558,-1.321,-17.905
1747652314.03,0.140,-0.066,0.016,-1.560,-0.363,0.042,-23.459,-1.531,-17.905
1747652314.04,0.103,-0.093,0.041,-1.548,-0.343,0.015,-24.347,-1.737,-17.914
1747652314.05,0.046,-0.115,0.044,-1.552,-0.291,-0.018,-25.231,-1.931,-17.946
1747652314.06,0.009,-0.138,0.034,-1.599,-0.297,-0.009,-26.129,-2.117,-17.992
1747652314.07,0.009,-0.155,-0.013,-1.654,-0.294,0.052,-27.058,-2.299,-18.019
1747652314.08,0.052,-0.155,-0.027,-1.685,-0.243,0.135,-28.013,-2.446,-18.003
1747652314.09,0.119,-0.134,0.003,-1.715,-0.228,0.205,-28.986,-2.548,-17.940
1747652314.09,0.156,-0.088,0.026,-1.741,-0.242,0.263,-29.981,-2.633,-17.837
1747652314.11,0.145,-0.041,0.050,-1.716,-0.239,0.298,-30.975,-2.700,-17.703
1747652314.11,0.109,0.006,0.057,-1.717,-0.279,0.298,-31.960,-2.769,-17.557
1747652314.13,0.036,0.042,-0.009,-1.744,-0.284,0.278,-32.956,-2.860,-17.420
1747652314.14,-0.041,0.052,-0.051,-1.736,-0.249,0.239,-33.957,-2.948,-17.303
1747652314.14,-0.086,0.034,-0.017,-1.700,-0.161,0.175,-34.942,-3.023,-17.221
1747652314.16,-0.113,0.002,0.036,-1.658,0.011,0.115,-35.906,-3.045,-17.182
1747652314.16,-0.107,-0.032,0.092,-1.617,0.138,0.069,-36.842,-2.997,-17.181
1747652314.17,-0.087,-0.056,0.057,-1.611,0.153,0.079,-37.764,-2.919,-17.191
1747652314.18,-0.054,-0.070,0.008,-1.635,0.169,0.145,-38.691,-2.813,-17.171
1747652314.19,0.014,-0.063,-0.003,-1.681,0.128,0.224,-39.642,-2.678,-17.093
1747652314.20,0.083,-0.034,-0.001,-1.681,0.111,0.286,-40.610,-2.525,-16.959
1747652314.21,0.124,0.003,0.010,-1.623,0.141,0.299,-41.561,-2.340,-16.788
1747652314.22,0.131,0.051,0.023,-1.562,0.115,0.250,-42.475,-2.154,-16.623
1747652314.23,0.067,0.097,0.000,-1.522,0.053,0.184,-43.359,-2.020,-16.498
1747652314.24,-0.030,0.117,-0.024,-1.481,0.022,0.119,-44.218,-1.947,-16.419
1747652314.25,-0.105,0.103,-0.035,-1.476,0.031,0.053,-45.061,-1.912,-16.389
1747652314.26,-0.140,0.066,-0.014,-1.509,0.110,-0.003,-45.913,-1.888,-16.408
1747652314.27,-0.127,0.016,0.025,-1.547,0.209,-0.045,-46.784,-1.842,-16.470
1747652314.28,-0.079,-0.034,0.071,-1.610,0.289,-0.055,-47.683,-1.762,-16.557
1747652314.29,-0.017,-0.071,0.095,-1.654,0.320,-0.010,-48.616,-1.640,-16.629
1747652314.30,0.055,-0.083,0.045,-1.662,0.283,0.050,-49.563,-1.481,-16.651
1747652314.31,0.118,-0.070,0.011,-1.670,0.195,0.113,-50.514,-1.317,-16.615
1747652314.32,0.160,-0.039,0.008,-1.659,0.177,0.164,-51.467,-1.141,-16.521
1747652314.33,0.212,0.004,0.020,-1.612,0.160,0.169,-52.403,-0.939,-16.390
1747652314.34,0.238,0.045,0.034,-1.561,0.057,0.128,-53.311,-0.778,-16.270
1747652314.35,0.190,0.078,-0.010,-1.544,-0.107,0.052,-54.197,-0.736,-16.201
1747652314.36,0.100,0.086,-0.053,-1.538,-0.231,-0.017,-55.077,-0.839,-16.205
1747652314.37,0.021,0.056,-0.061,-1.544,-0.271,-0.065,-55.955,-1.040,-16.273
1747652314.38,-0.030,0.000,-0.037,-1.569,-0.206,-0.090,-56.843,-1.277,-16.386
1747652314.39,-0.047,-0.062,0.021,-1.605,-0.057,-0.106,-57.747,-1.474,-16.530
1747652314.40,-0.031,-0.104,0.063,-1.645,0.027,-0.100,-58.674,-1.615,-16.690
1747652314.41,-0.024,-0.116,0.047,-1.641,0.062,-0.077,-59.612,-1.718,-16.843
1747652314.42,-0.020,-0.104,0.002,-1.640,0.062,-0.031,-60.546,-1.787,-16.964
1747652314.43,0.000,-0.084,0.015,-1.677,0.053,0.004,-61.492,-1.822,-17.040
1747652314.44,0.030,-0.056,0.055,-1.649,0.067,0.006,-62.445,-1.837,-17.095
1747652314.45,0.056,-0.023,0.027,-1.564,0.114,-0.035,-63.362,-1.859,-17.177
1747652314.46,0.067,0.004,-0.012,-1.532,0.171,-0.103,-64.242,-1.916,-17.331
1747652314.47,0.043,0.025,0.014,-1.524,0.165,-0.156,-65.112,-2.038,-17.575
1747652314.48,-0.009,0.049,0.005,-1.517,0.106,-0.215,-65.976,-2.262,-17.908
1747652314.49,-0.094,0.052,-0.034,-1.554,0.042,-0.265,-66.845,-2.623,-18.346
1747652314.50,-0.152,0.027,-0.017,-1.566,0.042,-0.299,-67.730,-3.095,-18.882
1747652314.51,-0.127,-0.019,0.011,-1.551,0.079,-0.292,-68.609,-3.619,-19.480
1747652314.52,-0.044,-0.068,0.023,-1.516,0.132,-0.257,-69.471,-4.121,-20.084
1747652314.53,0.057,-0.099,0.016,-1.493,0.127,-0.230,-70.317,-4.602,-20.677
1747652314.54,0.131,-0.103,-0.030,-1.447,0.171,-0.192,-71.145,-5.069,-21.254
1747652314.55,0.149,-0.078,-0.037,-1.446,0.253,-0.160,-71.956,-5.475,-21.813
1747652314.56,0.113,-0.045,0.043,-1.419,0.231,-0.140,-72.764,-5.851,-22.358
1747652314.57,0.016,-0.013,0.083,-1.396,0.155,-0.133,-73.552,-6.274,-22.914
1747652314.58,-0.091,-0.003,-0.007,-1.441,0.143,-0.135,-74.347,-6.775,-23.521
1747652314.59,-0.117,-0.022,-0.071,-1.441,0.246,-0.141,-75.159,-7.327,-24.203
1747652314.60,-0.070,-0.053,-0.066,-1.356,0.417,-0.147,-75.941,-7.862,-24.951
1747652314.61,-0.003,-0.060,-0.031,-1.280,0.467,-0.147,-76.673,-8.376,-25.747
1747652314.62,0.053,-0.049,-0.060,-1.242,0.396,-0.156,-77.372,-8.975,-26.615
1747652314.63,0.080,-0.041,-0.075,-1.234,0.438,-0.161,-78.051,-9.674,-27.569
1747652314.64,0.121,-0.022,-0.044,-1.330,0.445,-0.136,-78.755,-10.457,-28.631
1747652314.65,0.137,-0.013,0.047,-1.350,0.279,-0.086,-79.501,-11.327,-29.735
1747652314.66,0.089,-0.012,0.022,-1.211,0.054,-0.062,-80.210,-12.295,-30.813
1747652314.67,0.001,-0.040,-0.103,-1.131,-0.054,-0.052,-80.851,-13.384,-31.909
1747652314.68,-0.057,-0.071,-0.104,-1.160,-0.006,-0.055,-81.476,-14.599,-33.119
1747652314.69,-0.044,-0.090,-0.059,-1.166,-0.011,-0.095,-82.110,-16.103,-34.639
1747652314.70,-0.001,-0.075,-0.092,-1.064,-0.084,-0.148,-82.702,-18.038,-36.562
1747652314.71,0.034,-0.036,-0.162,-0.924,-0.089,-0.175,-83.207,-20.326,-38.815
1747652314.72,0.059,0.000,-0.147,-0.802,0.020,-0.171,-83.630,-22.714,-41.195
1747652314.73,0.064,0.034,-0.108,-0.711,0.112,-0.185,-83.983,-25.135,-43.673
1747652314.74,0.012,0.062,-0.080,-0.602,0.095,-0.214,-84.268,-27.714,-46.327
1747652314.75,-0.103,0.066,-0.097,-0.489,0.067,-0.198,-84.481,-30.244,-48.914
1747652314.76,-0.213,0.038,-0.131,-0.491,0.202,-0.182,-84.659,-32.655,-51.403
1747652314.77,-0.259,-0.016,-0.074,-0.597,0.577,-0.174,-84.860,-35.241,-54.220
1747652314.78,-0.225,-0.057,0.060,-0.661,0.858,-0.176,-85.091,-38.182,-57.593
1747652314.79,-0.181,-0.061,0.103,-0.683,0.898,-0.187,-85.319,-41.565,-61.496
1747652314.80,-0.150,-0.037,0.065,-0.697,0.841,-0.183,-85.532,-45.386,-65.830
1747652314.81,-0.080,-0.002,0.058,-0.761,0.778,-0.192,-85.735,-49.885,-70.805
1747652314.82,0.007,0.029,0.091,-0.790,0.719,-0.201,-85.917,-55.241,-76.605
1747652314.83,0.072,0.056,0.113,-0.735,0.644,-0.224,-86.046,-61.063,-82.834
1747652314.84,0.097,0.067,0.083,-0.660,0.506,-0.253,-86.097,-66.815,-88.931
1747652314.85,0.079,0.044,0.036,-0.601,0.349,-0.261,-86.086,-72.264,-94.635
1747652314.86,0.064,-0.004,0.006,-0.567,0.241,-0.262,-86.028,-77.310,-99.862
1747652314.87,0.088,-0.046,0.009,-0.569,0.106,-0.269,-85.937,-82.132,-104.799
1747652314.88,0.116,-0.065,0.015,-0.566,-0.145,-0.235,-85.825,-86.824,-109.499
1747652314.89,0.119,-0.056,-0.017,-0.525,-0.381,-0.253,-85.692,-91.214,-113.749
1747652314.90,0.103,-0.033,-0.071,-0.486,-0.514,-0.281,-85.523,-95.108,-117.392
1747652314.91,0.101,-0.003,-0.086,-0.455,-0.535,-0.290,-85.327,-98.504,-120.495
1747652314.92,0.112,0.011,-0.064,-0.430,-0.529,-0.232,-85.135,-101.480,-123.175
1747652314.93,0.091,0.005,-0.017,-0.394,-0.533,-0.165,-84.973,-104.149,-125.549
1747652314.94,0.035,-0.010,0.008,-0.345,-0.527,-0.138,-84.834,-106.484,-127.589
1747652314.95,-0.026,-0.013,-0.002,-0.267,-0.503,-0.146,-84.705,-108.360,-129.177
1747652314.96,-0.073,0.005,-0.025,-0.151,-0.457,-0.162,-84.582,-109.532,-130.078
1747652314.97,-0.109,0.039,-0.037,-0.073,-0.415,-0.114,-84.486,-110.114,-130.413
1747652314.98,-0.148,0.064,-0.024,-0.043,-0.317,-0.083,-84.424,-110.443,-130.529
1747652314.99,-0.181,0.062,-0.001,-0.008,-0.118,-0.067,-84.379,-110.553,-130.512
1747652315.00,-0.193,0.036,0.008,-0.009,0.085,-0.049,-84.346,-110.466,-130.417
1747652315.01,-0.188,-0.004,0.021,-0.054,0.269,-0.028,-84.319,-110.443,-130.496
1747652315.02,-0.176,-0.043,0.050,-0.099,0.438,-0.006,-84.295,-110.631,-130.888
1747652315.03,-0.146,-0.060,0.059,-0.108,0.598,-0.011,-84.269,-110.868,-131.424
1747652315.04,-0.105,-0.048,0.034,-0.105,0.727,-0.012,-84.241,-111.029,-131.967
1747652315.05,-0.065,-0.012,0.031,-0.087,0.799,0.001,-84.219,-111.088,-132.468
1747652315.06,-0.024,0.029,0.043,-0.057,0.767,0.023,-84.209,-111.046,-132.878
1747652315.07,0.011,0.056,0.047,-0.011,0.665,0.038,-84.219,-110.889,-133.134
1747652315.08,0.024,0.048,0.045,0.023,0.530,0.031,-84.239,-110.583,-133.167
1747652315.09,0.031,0.015,0.050,0.033,0.432,0.032,-84.262,-110.214,-133.071
1747652315.10,0.052,-0.027,0.060,0.045,0.356,0.020,-84.283,-109.842,-132.921
1747652315.11,0.076,-0.057,0.061,0.087,0.284,-0.001,-84.300,-109.340,-132.601
1747652315.12,0.084,-0.048,0.050,0.142,0.164,-0.006,-84.319,-108.579,-131.968
1747652315.13,0.082,-0.012,0.039,0.166,-0.005,0.006,-84.348,-107.681,-131.112
1747652315.14,0.061,0.023,0.018,0.167,-0.173,0.011,-84.381,-106.822,-130.198
1747652315.15,0.021,0.031,0.017,0.138,-0.299,0.014,-84.412,-106.120,-129.354
1747652315.16,-0.021,0.012,0.043,0.090,-0.320,0.010,-84.438,-105.677,-128.728
1747652315.17,-0.050,-0.014,0.069,0.044,-0.250,-0.004,-84.450,-105.469,-128.355
1747652315.18,-0.051,-0.029,0.088,0.012,-0.176,-0.020,-84.448,-105.425,-128.188
1747652315.19,-0.026,-0.028,0.078,0.012,-0.107,-0.034,-84.436,-105.406,-128.088
1747652315.20,-0.005,-0.018,0.057,0.040,-0.044,-0.042,-84.419,-105.245,-127.883
1747652315.21,0.006,-0.006,0.042,0.058,0.007,-0.030,-84.405,-104.910,-127.536
1747652315.22,0.013,0.007,0.041,0.083,0.038,-0.021,-84.401,-104.456,-127.095
1747652315.23,0.011,0.022,0.039,0.101,0.002,0.001,-84.407,-103.899,-126.550
1747652315.24,-0.008,0.036,0.020,0.093,-0.096,0.016,-84.424,-103.402,-126.025
1747652315.25,-0.042,0.039,0.005,0.070,-0.189,0.029,-84.444,-103.085,-125.622
1747652315.26,-0.067,0.022,0.010,0.056,-0.247,0.029,-84.465,-102.927,-125.336
1747652315.27,-0.073,-0.013,0.011,0.038,-0.248,0.029,-84.483,-102.881,-125.144
1747652315.28,-0.055,-0.047,0.003,0.018,-0.170,0.030,-84.501,-102.912,-125.053
1747652315.29,-0.013,-0.062,0.006,0.009,-0.109,0.043,-84.523,-103.014,-125.078
1747652315.30,0.020,-0.054,0.021,0.040,-0.126,0.049,-84.552,-103.072,-125.071
1747652315.31,0.018,-0.027,0.003,0.104,-0.171,0.036,-84.585,-102.843,-124.756
1747652315.32,-0.007,0.003,-0.026,0.156,-0.203,0.029,-84.618,-102.242,-124.044
1747652315.33,-0.024,0.022,-0.022,0.216,-0.244,0.040,-84.654,-101.312,-122.982
1747652315.34,-0.026,0.027,-0.013,0.290,-0.294,0.054,-84.698,-100.005,-121.515
1747652315.35,-0.022,0.025,-0.022,0.351,-0.327,0.072,-84.753,-98.279,-119.603
1747652315.36,-0.009,0.027,-0.024,0.382,-0.403,0.074,-84.814,-96.266,-117.375
1747652315.37,-0.004,0.037,-0.031,0.402,-0.511,0.062,-84.869,-94.120,-114.957
1747652315.38,-0.019,0.043,-0.037,0.422,-0.560,0.046,-84.912,-91.817,-112.335
1747652315.39,-0.036,0.035,-0.022,0.435,-0.488,0.050,-84.941,-89.341,-109.547
1747652315.40,-0.041,0.014,0.033,0.451,-0.428,0.085,-84.970,-86.719,-106.654
1747652315.41,-0.051,-0.019,0.076,0.468,-0.383,0.120,-85.008,-83.910,-103.601
1747652315.42,-0.067,-0.047,0.071,0.486,-0.321,0.136,-85.045,-80.889,-100.366
1747652315.43,-0.074,-0.050,0.069,0.497,-0.311,0.143,-85.070,-77.705,-96.992
1747652315.44,-0.065,-0.031,0.067,0.532,-0.372,0.150,-85.081,-74.371,-93.453
1747652315.45,-0.037,-0.006,0.048,0.570,-0.444,0.146,-85.067,-70.816,-89.648
1747652315.46,-0.004,0.021,0.027,0.583,-0.461,0.139,-85.024,-67.181,-85.738
1747652315.47,0.022,0.039,0.053,0.587,-0.465,0.134,-84.956,-63.626,-81.904
1747652315.48,0.033,0.039,0.075,0.633,-0.468,0.135,-84.858,-60.058,-78.053
1747652315.49,0.022,0.017,0.061,0.677,-0.463,0.153,-84.731,-56.357,-74.070
1747652315.50,0.004,-0.022,0.053,0.722,-0.421,0.169,-84.575,-52.572,-70.015
1747652315.51,-0.007,-0.048,0.039,0.791,-0.402,0.174,-84.376,-48.713,-65.903
1747652315.52,-0.018,-0.038,0.013,0.862,-0.385,0.179,-84.125,-44.829,-61.772
1747652315.53,-0.028,0.002,-0.001,0.871,-0.318,0.177,-83.831,-41.113,-57.832
1747652315.54,-0.044,0.042,0.027,0.845,-0.212,0.169,-83.516,-37.757,-54.303
1747652315.55,-0.053,0.047,0.083,0.840,-0.124,0.155,-83.183,-34.768,-51.199
1747652315.56,-0.065,0.021,0.090,0.865,-0.093,0.130,-82.823,-32.095,-48.445
1747652315.57,-0.085,-0.009,0.064,0.902,-0.062,0.127,-82.426,-29.649,-45.934
1747652315.58,-0.084,-0.012,0.042,0.891,-0.058,0.150,-82.012,-27.384,-43.613
1747652315.59,-0.065,-0.005,0.047,0.866,-0.016,0.159,-81.602,-25.308,-41.490
1747652315.60,-0.042,-0.002,0.039,0.859,0.144,0.153,-81.190,-23.398,-39.592
1747652315.61,0.000,0.003,0.055,0.852,0.320,0.154,-80.772,-21.575,-37.885
1747652315.62,0.050,0.001,0.113,0.818,0.295,0.166,-80.357,-19.859,-36.330
1747652315.63,0.052,-0.000,0.116,0.803,0.159,0.169,-79.953,-18.335,-34.917
1747652315.64,0.025,0.008,0.057,0.816,0.026,0.167,-79.541,-17.006,-33.619
1747652315.65,0.012,0.010,-0.008,0.820,-0.001,0.160,-79.120,-15.824,-32.418
1747652315.66,0.011,-0.004,-0.019,0.854,0.049,0.136,-78.683,-14.751,-31.339
1747652315.67,0.019,-0.011,0.012,0.946,0.048,0.094,-78.203,-13.793,-30.392
1747652315.68,0.008,-0.012,-0.010,1.045,0.042,0.062,-77.658,-12.951,-29.556
1747652315.69,-0.014,-0.010,-0.059,1.058,0.114,0.050,-77.075,-12.182,-28.811
1747652315.70,-0.010,-0.010,-0.051,1.022,0.174,0.050,-76.500,-11.463,-28.159
1747652315.71,-0.023,-0.013,-0.021,0.973,0.197,0.074,-75.946,-10.769,-27.554
1747652315.72,-0.053,-0.026,-0.008,0.897,0.194,0.101,-75.430,-10.082,-26.963
1747652315.73,-0.056,-0.033,-0.002,0.857,0.160,0.112,-74.948,-9.436,-26.398
1747652315.74,-0.049,-0.040,-0.033,0.875,0.157,0.122,-74.472,-8.820,-25.853
1747652315.75,-0.007,-0.053,-0.043,0.918,0.177,0.129,-73.976,-8.200,-25.309
1747652315.76,0.061,-0.050,-0.038,0.954,0.122,0.109,-73.458,-7.627,-24.804
1747652315.77,0.100,-0.025,-0.058,1.033,0.036,0.087,-72.903,-7.162,-24.363
1747652315.78,0.101,-0.001,-0.089,1.078,0.012,0.039,-72.307,-6.795,-23.992
1747652315.79,0.067,0.019,-0.054,1.129,0.052,-0.013,-71.681,-6.534,-23.733
1747652315.80,0.003,0.034,-0.020,1.072,0.174,-0.031,-71.049,-6.302,-23.556
1747652315.81,-0.039,0.027,-0.004,0.930,0.234,-0.017,-70.480,-6.047,-23.413
1747652315.82,-0.063,-0.022,0.043,0.892,0.189,0.021,-69.966,-5.778,-23.260
1747652315.83,-0.089,-0.083,0.028,0.867,0.115,0.079,-69.468,-5.480,-23.035
1747652315.84,-0.069,-0.119,-0.006,0.864,0.064,0.089,-68.983,-5.176,-22.762
1747652315.85,-0.000,-0.110,-0.044,0.912,0.023,0.007,-68.481,-4.955,-22.553
1747652315.86,0.066,-0.079,-0.086,0.995,-0.097,-0.140,-67.938,-4.942,-22.521
1747652315.87,0.071,-0.035,-0.125,1.131,-0.184,-0.292,-67.323,-5.201,-22.708
1747652315.88,0.036,0.011,-0.139,1.180,-0.150,-0.364,-66.642,-5.593,-23.027
1747652315.89,0.006,0.049,-0.063,1.079,-0.075,-0.362,-65.976,-5.984,-23.386
1747652315.90,-0.029,0.068,0.054,0.974,-0.053,-0.260,-65.376,-6.277,-23.670
1747652315.91,-0.070,0.062,0.055,0.929,-0.019,-0.103,-64.824,-6.397,-23.775
1747652315.92,-0.062,0.038,-0.001,0.830,0.122,0.053,-64.321,-6.280,-23.677
1747652315.93,0.033,0.008,0.045,0.768,0.185,0.161,-63.878,-5.957,-23.422
1747652315.94,0.155,-0.037,0.082,0.832,0.086,0.234,-63.437,-5.554,-23.066
1747652315.95,0.248,-0.073,0.033,0.862,-0.129,0.288,-62.966,-5.177,-22.634
1747652315.96,0.293,-0.073,-0.041,0.864,-0.392,0.325,-62.494,-4.905,-22.158
1747652315.97,0.273,-0.057,-0.067,0.917,-0.566,0.348,-62.004,-4.736,-21.654
1747652315.98,0.223,-0.039,-0.024,0.961,-0.638,0.373,-61.486,-4.620,-21.127
1747652315.99,0.156,-0.016,0.017,0.986,-0.548,0.378,-60.948,-4.494,-20.590
1747652316.00,0.076,0.003,0.041,0.998,-0.432,0.350,-60.397,-4.320,-20.075
1747652316.01,-0.011,0.009,0.026,0.973,-0.472,0.288,-59.849,-4.185,-19.626
1747652316.02,-0.119,0.006,-0.050,0.949,-0.506,0.245,-59.311,-4.143,-19.248
1747652316.03,-0.158,-0.005,-0.083,0.881,-0.404,0.190,-58.799,-4.135,-18.932
1747652316.04,-0.107,-0.011,-0.005,0.887,-0.302,0.125,-58.305,-4.129,-18.691
1747652316.05,-0.057,-0.015,0.058,0.943,-0.244,0.073,-57.786,-4.131,-18.513
1747652316.06,-0.054,-0.011,0.036,0.989,-0.275,0.024,-57.239,-4.174,-18.390
1747652316.07,-0.066,-0.002,0.002,1.079,-0.230,-0.027,-56.650,-4.257,-18.312
1747652316.08,-0.057,0.002,-0.018,1.107,-0.064,-0.053,-56.022,-4.310,-18.271
1747652316.09,-0.031,-0.002,0.026,1.097,0.109,-0.042,-55.394,-4.267,-18.237
1747652316.10,-0.034,-0.015,0.072,1.139,0.195,0.006,-54.758,-4.126,-18.174
1747652316.11,-0.075,-0.019,0.033,1.086,0.235,0.067,-54.120,-3.908,-18.060
1747652316.12,-0.107,-0.007,0.001,0.998,0.202,0.097,-53.533,-3.660,-17.910
1747652316.13,-0.119,0.009,0.009,1.014,0.104,0.078,-52.964,-3.456,-17.767
1747652316.14,-0.105,0.010,-0.022,1.025,0.006,0.041,-52.384,-3.335,-17.653
1747652316.15,-0.083,0.016,-0.016,1.045,-0.056,-0.015,-51.794,-3.297,-17.585
1747652316.16,-0.044,0.023,0.008,1.057,-0.059,-0.077,-51.193,-3.322,-17.574
1747652316.17,0.008,0.018,0.040,1.065,-0.054,-0.130,-50.585,-3.380,-17.608
1747652316.18,0.049,0.009,0.047,1.113,-0.068,-0.190,-49.959,-3.482,-17.693
1747652316.19,0.054,0.013,0.029,1.141,0.022,-0.210,-49.306,-3.591,-17.810
1747652316.20,0.052,0.022,0.093,1.100,0.223,-0.157,-48.658,-3.596,-17.910
1747652316.21,0.082,0.021,0.145,1.054,0.261,-0.094,-48.041,-3.484,-17.961
1747652316.22,0.086,0.012,0.054,0.986,0.069,-0.024,-47.454,-3.386,-17.960
1747652316.23,0.035,-0.002,-0.053,0.925,-0.073,0.049,-46.913,-3.347,-17.897
1747652316.24,0.007,-0.017,-0.053,0.947,-0.115,0.086,-46.383,-3.328,-17.797
1747652316.25,0.048,-0.024,0.004,1.000,-0.106,0.084,-45.831,-3.305,-17.673
1747652316.26,0.094,-0.031,0.025,1.037,-0.082,0.022,-45.250,-3.294,-17.583
1747652316.27,0.123,-0.001,0.026,1.078,-0.079,-0.046,-44.648,-3.312,-17.544
1747652316.28,0.114,0.036,0.028,1.129,-0.047,-0.095,-44.015,-3.355,-17.550
1747652316.29,0.078,0.083,0.045,1.094,0.042,-0.082,-43.376,-3.371,-17.570
1747652316.30,0.055,0.121,0.086,1.051,0.092,-0.016,-42.766,-3.325,-17.564
1747652316.31,0.040,0.126,0.062,1.055,0.020,0.094,-42.167,-3.239,-17.490
1747652316.32,0.026,0.104,-0.017,1.036,-0.048,0.192,-41.574,-3.145,-17.334
1747652316.33,0.043,0.066,-0.041,1.014,-0.081,0.227,-40.997,-3.047,-17.129
1747652316.34,0.095,0.016,-0.021,1.026,-0.141,0.194,-40.423,-2.977,-16.927
1747652316.35,0.099,-0.035,0.002,1.015,-0.233,0.096,-39.843,-2.988,-16.780
1747652316.36,0.037,-0.066,-0.002,0.999,-0.287,-0.003,-39.270,-3.094,-16.708
1747652316.37,-0.024,-0.082,-0.025,1.005,-0.216,-0.072,-38.699,-3.233,-16.695
1747652316.38,-0.046,-0.080,0.012,1.020,-0.046,-0.111,-38.119,-3.326,-16.720
1747652316.39,-0.041,-0.049,0.086,1.026,0.132,-0.128,-37.531,-3.325,-16.765
1747652316.40,-0.048,-0.016,0.122,1.031,0.162,-0.107,-36.941,-3.263,-16.810
1747652316.41,-0.074,0.018,0.083,1.035,0.157,-0.056,-36.349,-3.183,-16.827
1747652316.42,-0.072,0.053,0.024,1.006,0.168,-0.026,-35.765,-3.082,-16.814
1747652316.43,-0.017,0.088,-0.003,1.020,0.119,-0.034,-35.188,-2.985,-16.795
1747652316.44,0.021,0.114,-0.010,1.044,-0.012,-0.070,-34.595,-2.952,-16.793
1747652316.45,0.022,0.124,-0.013,1.052,-0.113,-0.117,-33.997,-3.005,-16.817
1747652316.46,0.018,0.111,-0.009,1.083,-0.099,-0.167,-33.383,-3.102,-16.875
1747652316.47,0.015,0.080,0.030,1.093,-0.048,-0.231,-32.756,-3.194,-16.970
1747652316.48,0.015,0.035,0.058,1.090,0.000,-0.263,-32.124,-3.278,-17.097
1747652316.49,0.029,-0.013,0.045,1.028,0.026,-0.255,-31.511,-3.338,-17.233
1747652316.50,0.041,-0.052,0.064,0.987,0.013,-0.193,-30.930,-3.385,-17.344
1747652316.51,0.051,-0.067,0.017,0.969,-0.003,-0.102,-30.369,-3.412,-17.405
1747652316.52,0.066,-0.053,0.007,0.965,-0.025,-0.015,-29.816,-3.419,-17.405
1747652316.53,0.063,-0.013,0.015,0.975,-0.037,0.026,-29.264,-3.415,-17.360
1747652316.54,0.057,0.046,-0.002,1.002,-0.041,0.025,-28.702,-3.410,-17.303
1747652316.55,0.049,0.103,-0.003,1.036,-0.066,-0.006,-28.122,-3.416,-17.256
1747652316.56,0.041,0.145,0.017,1.076,-0.107,-0.070,-27.519,-3.460,-17.240
1747652316.57,0.020,0.131,0.013,1.121,-0.070,-0.110,-26.888,-3.522,-17.255
1747652316.58,0.026,0.089,0.054,1.126,0.012,-0.154,-26.240,-3.553,-17.294
1747652316.59,0.033,0.043,0.054,1.094,0.014,-0.155,-25.602,-3.570,-17.352
1747652316.60,0.007,-0.025,-0.008,1.056,0.004,-0.095,-24.985,-3.580,-17.389
1747652316.61,0.005,-0.072,-0.025,1.016,0.002,-0.002,-24.393,-3.574,-17.379
1747652316.62,0.011,-0.080,0.013,0.989,-0.016,0.071,-23.824,-3.553,-17.318
1747652316.63,0.030,-0.054,0.030,0.989,-0.023,0.126,-23.266,-3.524,-17.218
1747652316.64,0.061,-0.007,0.031,1.028,-0.022,0.104,-22.696,-3.493,-17.106
1747652316.65,0.072,0.042,0.036,1.092,0.015,0.046,-22.094,-3.465,-17.019
1747652316.66,0.059,0.074,0.058,1.139,0.082,-0.053,-21.456,-3.423,-16.980
1747652316.67,0.044,0.064,0.038,1.152,0.039,-0.122,-20.801,-3.394,-16.995
1747652316.68,0.026,0.020,-0.004,1.159,0.081,-0.152,-20.135,-3.379,-17.038
1747652316.69,-0.006,0.010,0.020,1.147,0.110,-0.128,-19.474,-3.336,-17.084
1747652316.70,-0.059,-0.015,0.013,1.142,0.024,-0.058,-18.818,-3.301,-17.102
1747652316.71,-0.115,-0.036,-0.041,1.110,0.006,0.024,-18.174,-3.288,-17.072
1747652316.72,-0.106,-0.002,-0.036,1.099,0.112,0.035,-17.548,-3.240,-17.014
1747652316.73,-0.028,0.057,0.017,1.143,0.205,-0.013,-16.911,-3.133,-16.968
1747652316.74,0.005,0.103,0.057,1.179,0.232,-0.087,-16.247,-3.002,-16.958
1747652316.75,-0.017,0.139,0.058,1.209,0.178,-0.158,-15.561,-2.893,-16.995
1747652316.76,-0.039,0.114,0.021,1.236,0.111,-0.178,-14.860,-2.829,-17.060
1747652316.77,-0.012,0.066,0.013,1.229,0.118,-0.173,-14.150,-2.781,-17.128
1747652316.78,0.013,0.038,0.022,1.229,0.104,-0.161,-13.446,-2.732,-17.192
1747652316.79,0.003,0.028,0.001,1.283,0.137,-0.127,-12.732,-2.674,-17.240
1747652316.80,-0.033,0.029,-0.044,1.341,0.113,-0.110,-11.977,-2.608,-17.114
1747652316.81,-0.085,0.009,-0.108,1.300,0.174,-0.070,-11.221,-2.535,-17.132
1747652316.82,-0.097,0.011,-0.051,1.267,0.317,-0.063,-10.488,-2.396,-17.000
1747652316.83,-0.071,-0.012,0.029,1.242,0.367,-0.099,-9.771,-2.199,-17.016
1747652316.84,0.003,-0.003,0.020,1.228,0.331,-0.142,-9.064,-2.005,-16.940
1747652316.85,0.089,0.038,0.006,1.248,0.241,-0.140,-8.356,-1.849,-17.000
1747652316.86,0.157,0.044,0.012,1.245,0.115,-0.115,-7.640,-1.754,-16.931
1747652316.87,0.147,0.041,0.010,1.229,0.005,-0.096,-6.933,-1.727,-16.970
1747652316.88,0.075,0.052,-0.001,1.226,-0.022,-0.100,-6.232,-1.739,-16.901
1747652316.89,-0.002,0.063,0.046,1.214,0.020,-0.090,-5.533,-1.745,-16.934
1747652316.90,-0.047,0.060,0.062,1.215,0.058,-0.082,-4.838,-1.725,-16.858
1747652316.91,-0.065,0.047,0.030,1.177,0.113,-0.096,-4.152,-1.681,-16.888
1747652316.92,-0.065,0.029,-0.001,1.119,0.165,-0.112,-3.497,-1.602,-16.848
1747652316.93,-0.029,-0.015,-0.037,1.218,0.226,-0.107,-2.835,-1.495,-16.894
1747652316.94,-0.009,-0.080,-0.105,1.290,0.359,-0.149,-2.109,-1.329,-16.870
1747652316.95,0.001,-0.069,-0.069,1.164,0.363,-0.171,-1.408,-1.119,-16.948
1747652316.96,0.009,-0.106,-0.026,1.138,0.240,-0.165,-0.751,-0.950,-16.978
1747652316.97,0.044,-0.077,-0.071,1.103,0.161,-0.127,-0.111,-0.837,-17.053
1747652316.98,0.061,-0.013,-0.041,1.086,0.095,-0.099,0.515,-0.764,-17.060
1747652316.99,0.034,0.012,-0.008,1.073,0.077,-0.089,1.133,-0.716,-17.106
1747652317.00,0.001,0.063,0.015,1.075,0.105,-0.099,1.747,-0.664,-17.124
1747652317.01,-0.035,0.095,0.031,1.092,0.157,-0.093,2.367,-0.588,-17.174
1747652317.02,-0.065,0.069,0.043,1.097,0.255,-0.078,2.994,-0.470,-17.199
1747652317.03,-0.041,0.019,0.020,1.046,0.318,-0.076,3.609,-0.301,-17.237
1747652317.04,0.010,-0.038,-0.037,1.076,0.301,-0.099,4.207,-0.117,-17.273
1747652317.05,0.032,-0.045,-0.080,1.071,0.225,-0.112,4.825,0.037,-17.334
1747652317.06,0.022,-0.090,-0.100,1.019,0.149,-0.127,5.421,0.150,-17.405
1747652317.07,0.048,-0.092,-0.077,0.998,0.059,-0.131,5.996,0.217,-17.482
1747652317.08,0.041,-0.054,-0.095,0.991,0.036,-0.128,6.564,0.251,-17.562
1747652317.09,0.000,0.009,-0.055,1.002,0.043,-0.114,7.132,0.281,-17.635
1747652317.10,-0.056,0.115,0.018,1.026,0.092,-0.100,7.710,0.326,-17.713
1747652317.11,-0.099,0.173,0.048,1.028,0.146,-0.070,8.297,0.402,-17.767
1747652317.12,-0.102,0.129,0.043,1.023,0.174,-0.041,8.881,0.498,-17.838
1747652317.13,-0.074,0.029,0.008,1.016,0.203,-0.051,9.466,0.614,-17.865
