Time,AccX,AccY,AccZ,GyroX,GyroY,GyroZ,Pitch,Roll,Yaw
1747652410.63,-0.006,0.028,-0.006,-0.019,0.021,-0.017,-88.203,-21.208,-11.298
1747652410.64,-0.002,0.039,-0.013,-0.016,0.002,-0.007,-88.208,-21.654,-11.750
1747652410.65,0.008,0.019,-0.032,-0.016,-0.002,0.004,-88.214,-21.982,-12.078
1747652410.66,0.006,0.002,-0.048,-0.007,0.007,0.013,-88.221,-22.106,-12.203
1747652410.66,-0.010,-0.001,-0.052,-0.009,0.038,0.024,-88.227,-22.034,-12.142
1747652410.67,-0.030,0.001,-0.044,-0.017,0.079,0.027,-88.236,-21.867,-12.010
1747652410.68,-0.042,-0.003,-0.023,-0.007,0.082,0.017,-88.244,-21.705,-11.895
1747652410.69,-0.045,-0.008,-0.023,0.000,0.050,0.006,-88.247,-21.508,-11.736
1747652410.70,-0.026,-0.018,-0.032,-0.011,0.030,0.018,-88.251,-21.335,-11.585
1747652410.71,0.010,-0.024,-0.026,-0.018,0.025,0.041,-88.263,-20.922,-11.187
1747652410.72,0.035,-0.012,-0.020,-0.016,0.027,0.051,-88.279,-20.174,-10.455
1747652410.73,0.037,0.003,-0.014,-0.009,0.010,0.062,-88.294,-19.197,-9.488
1747652410.74,0.016,0.007,-0.024,0.005,-0.012,0.061,-88.303,-18.055,-8.345
1747652410.75,-0.011,0.006,-0.035,0.018,-0.024,0.049,-88.300,-17.055,-7.334
1747652410.76,-0.033,0.004,-0.036,0.034,-0.009,0.032,-88.287,-16.337,-6.605
1747652410.77,-0.043,0.006,-0.027,0.047,0.010,-0.001,-88.263,-15.985,-6.253
1747652410.78,-0.042,-0.000,-0.019,0.051,0.031,-0.011,-88.230,-15.929,-6.209
1747652410.79,-0.019,-0.006,-0.018,0.040,0.039,0.013,-88.202,-15.598,-5.898
1747652410.80,0.013,-0.009,-0.011,0.030,0.034,0.036,-88.186,-14.855,-5.176
1747652410.81,0.038,-0.012,0.002,0.027,-0.003,0.052,-88.176,-13.845,-4.175
1747652410.82,0.043,-0.011,0.003,0.034,-0.044,0.055,-88.165,-12.735,-3.051
1747652410.83,0.039,-0.007,0.002,0.040,-0.071,0.051,-88.150,-11.714,-1.994
1747652410.84,0.028,-0.001,0.004,0.035,-0.060,0.029,-88.130,-10.982,-1.223
1747652410.85,0.010,0.006,0.013,0.014,-0.042,0.018,-88.115,-10.621,-0.832
1747652410.86,-0.009,0.004,0.026,0.003,-0.041,0.001,-88.111,-10.561,-0.748
1747652410.87,-0.023,0.002,0.026,0.008,-0.049,-0.009,-88.105,-10.712,-0.874
1747652410.88,-0.021,-0.009,0.020,0.010,-0.072,-0.006,-88.098,-10.810,-0.938
1747652410.89,-0.008,-0.021,0.011,0.008,-0.082,-0.004,-88.093,-10.807,-0.891
1747652410.90,0.007,-0.020,0.011,0.020,-0.094,-0.001,-88.087,-10.722,-0.756
1747652410.91,0.018,-0.011,0.002,0.036,-0.109,-0.001,-88.071,-10.594,-0.568
1747652410.92,0.018,-0.002,-0.016,0.050,-0.093,0.001,-88.048,-10.460,-0.378
1747652410.93,0.018,0.001,-0.021,0.061,-0.069,0.013,-88.019,-10.192,-0.063
1747652410.94,0.012,0.004,-0.022,0.060,-0.040,0.016,-87.991,-9.912,0.248
1747652410.95,0.004,0.009,-0.021,0.057,-0.005,0.015,-87.963,-9.659,0.514
1747652410.96,-0.001,0.009,-0.011,0.057,0.021,0.012,-87.936,-9.409,0.758
1747652410.97,-0.002,0.003,0.006,0.067,0.015,0.012,-87.904,-9.104,1.052
1747652410.98,-0.003,0.001,-0.002,0.064,0.014,0.019,-87.871,-8.705,1.444
1747652410.99,-0.006,-0.007,-0.003,0.062,0.027,0.029,-87.838,-8.127,2.011
1747652411.00,-0.009,-0.018,0.005,0.070,0.042,0.049,-87.802,-7.320,2.796
1747652411.01,-0.013,-0.029,0.011,0.072,0.020,0.050,-87.762,-6.349,3.751
1747652411.02,-0.019,-0.024,0.000,0.043,0.003,0.046,-87.729,-5.509,4.586
1747652411.03,-0.017,0.014,-0.003,0.054,0.047,0.028,-87.702,-4.882,5.200
1747652411.04,-0.006,0.052,0.013,0.087,0.065,0.005,-87.663,-4.574,5.475
1747652411.05,0.008,0.051,0.014,0.105,0.064,-0.000,-87.609,-4.425,5.586
1747652411.06,0.006,0.029,0.010,0.110,0.079,0.003,-87.547,-4.273,5.699
1747652411.07,-0.008,0.006,0.016,0.102,0.083,0.001,-87.486,-4.134,5.790
1747652411.08,-0.024,-0.007,0.032,0.083,0.068,-0.000,-87.434,-4.058,5.822
1747652411.09,-0.043,-0.009,0.038,0.064,0.039,-0.005,-87.394,-4.063,5.787
1747652411.10,-0.050,-0.012,0.038,0.051,0.020,-0.007,-87.362,-4.151,5.683
1747652411.11,-0.039,-0.014,0.031,0.045,0.015,-0.004,-87.335,-4.217,5.609
1747652411.12,-0.019,-0.016,0.031,0.054,0.014,-0.005,-87.310,-4.225,5.592
1747652411.13,0.002,-0.010,0.029,0.072,0.026,-0.008,-87.277,-4.215,5.591
1747652411.14,0.018,0.000,0.021,0.086,0.024,-0.005,-87.233,-4.201,5.590
1747652411.15,0.031,0.008,0.019,0.102,0.012,-0.007,-87.183,-4.217,5.564
1747652411.16,0.032,0.012,0.008,0.121,-0.018,-0.005,-87.124,-4.279,5.502
1747652411.17,0.025,0.012,-0.008,0.130,-0.043,-0.002,-87.056,-4.345,5.454
1747652411.18,0.015,0.004,-0.013,0.153,-0.046,-0.003,-86.980,-4.389,5.437
1747652411.19,0.004,-0.001,-0.015,0.184,-0.037,-0.008,-86.889,-4.427,5.424
1747652411.20,-0.009,-0.003,-0.013,0.214,-0.021,-0.010,-86.780,-4.432,5.435
1747652411.21,-0.022,-0.005,-0.013,0.237,0.001,0.008,-86.655,-4.280,5.594
1747652411.22,-0.033,-0.007,-0.018,0.250,0.058,0.029,-86.520,-3.881,5.976
1747652411.23,-0.040,-0.007,-0.015,0.233,0.079,0.044,-86.387,-3.311,6.505
1747652411.24,-0.050,0.006,0.004,0.203,0.040,0.043,-86.265,-2.741,7.041
1747652411.25,-0.075,0.024,0.008,0.189,0.018,0.059,-86.156,-2.190,7.579
1747652411.26,-0.090,0.019,0.010,0.201,0.095,0.074,-86.046,-1.528,8.213
1747652411.27,-0.064,-0.005,0.035,0.228,0.182,0.068,-85.926,-0.817,8.844
1747652411.28,-0.026,-0.023,0.062,0.261,0.176,0.054,-85.788,-0.215,9.340
1747652411.29,0.003,-0.024,0.044,0.289,0.095,0.042,-85.631,0.200,9.677
1747652411.30,0.024,-0.009,-0.002,0.304,0.026,0.037,-85.461,0.476,9.922
1747652411.31,0.040,0.008,-0.024,0.303,0.019,0.052,-85.288,0.754,10.188
1747652411.32,0.062,0.017,-0.005,0.336,-0.011,0.063,-85.108,1.104,10.535
1747652411.33,0.065,0.014,-0.004,0.398,-0.068,0.054,-84.899,1.388,10.843
1747652411.34,0.043,0.005,-0.023,0.477,-0.121,0.057,-84.650,1.582,11.092
1747652411.35,0.025,-0.005,-0.029,0.576,-0.163,0.063,-84.349,1.761,11.356
1747652411.36,0.003,-0.007,-0.043,0.678,-0.146,0.070,-83.988,1.926,11.612
1747652411.37,-0.028,0.003,-0.058,0.750,-0.120,0.079,-83.577,2.108,11.870
1747652411.38,-0.066,0.017,-0.055,0.802,-0.127,0.077,-83.131,2.266,12.100
1747652411.39,-0.110,0.024,-0.066,0.809,-0.090,0.078,-82.668,2.398,12.299
1747652411.40,-0.141,0.016,-0.040,0.795,0.031,0.093,-82.207,2.585,12.507
1747652411.41,-0.145,-0.002,0.023,0.785,0.171,0.114,-81.753,2.907,12.773
1747652411.42,-0.134,-0.020,0.060,0.797,0.270,0.130,-81.300,3.335,13.076
1747652411.43,-0.126,-0.030,0.036,0.833,0.302,0.173,-80.830,3.858,13.439
1747652411.44,-0.109,-0.024,0.016,0.855,0.283,0.190,-80.341,4.448,13.866
1747652411.45,-0.086,-0.010,0.023,0.884,0.230,0.177,-79.838,4.963,14.241
1747652411.46,-0.055,0.008,0.018,0.980,0.147,0.137,-79.301,5.299,14.471
1747652411.47,-0.020,0.021,-0.013,1.098,0.065,0.083,-78.701,5.389,14.502
1747652411.48,-0.012,0.032,-0.029,1.082,0.081,0.059,-78.073,5.335,14.406
1747652411.49,-0.018,0.023,0.053,1.048,0.051,0.041,-77.466,5.247,14.273
1747652411.50,-0.038,0.003,0.086,1.061,-0.024,0.019,-76.865,5.088,14.104
1747652411.51,-0.082,-0.009,0.016,1.037,0.019,0.052,-76.263,4.937,13.957
1747652411.52,-0.093,-0.018,0.033,1.001,0.140,0.111,-75.681,4.963,13.936
1747652411.53,-0.061,-0.036,0.103,1.002,0.219,0.156,-75.106,5.164,14.037
1747652411.54,-0.022,-0.040,0.070,1.015,0.230,0.185,-74.524,5.454,14.202
1747652411.55,0.028,-0.019,0.044,1.051,0.128,0.200,-73.926,5.745,14.392
1747652411.56,0.087,0.011,0.061,1.080,-0.049,0.189,-73.308,5.930,14.563
1747652411.57,0.140,0.037,0.024,1.107,-0.133,0.195,-72.677,6.018,14.713
1747652411.58,0.168,0.041,0.020,1.164,-0.110,0.166,-72.019,6.065,14.839
1747652411.59,0.149,0.026,0.049,1.170,-0.101,0.087,-71.347,6.006,14.838
1747652411.60,0.098,0.017,0.090,1.116,-0.218,0.077,-70.689,5.849,14.763
1747652411.61,0.037,0.002,0.068,1.022,-0.354,0.093,-70.079,5.646,14.725
1747652411.62,-0.003,-0.012,-0.001,1.007,-0.327,0.121,-69.498,5.459,14.741
1747652411.63,0.005,-0.015,0.011,0.986,-0.187,0.095,-68.925,5.335,14.765
1747652411.64,0.021,-0.011,0.100,1.008,-0.163,0.066,-68.355,5.221,14.744
1747652411.65,-0.016,-0.004,0.052,1.052,-0.202,0.024,-67.766,5.056,14.680
1747652411.66,-0.073,0.003,-0.094,1.063,-0.186,0.000,-67.162,4.823,14.552
1747652411.67,-0.059,0.003,-0.111,1.032,-0.077,0.022,-66.564,4.652,14.450
1747652411.68,-0.014,-0.013,-0.010,1.053,0.043,-0.021,-65.975,4.531,14.331
1747652411.69,-0.005,-0.004,0.049,1.089,0.162,-0.021,-65.363,4.453,14.178
1747652411.70,-0.023,0.003,0.067,1.051,0.169,0.051,-64.752,4.459,14.078
1747652411.71,-0.024,-0.001,0.065,0.999,0.132,0.149,-64.164,4.571,14.107
1747652411.72,-0.001,-0.014,0.002,0.990,0.115,0.179,-63.593,4.742,14.219
1747652411.73,0.051,-0.028,0.005,1.026,0.028,0.205,-63.009,4.912,14.362
1747652411.74,0.101,-0.049,-0.002,1.015,-0.069,0.134,-62.418,4.989,14.462
1747652411.75,0.114,-0.050,-0.032,1.063,-0.129,0.065,-61.826,4.943,14.475
1747652411.76,0.083,-0.034,-0.027,1.141,-0.215,-0.015,-61.195,4.776,14.393
1747652411.77,0.002,-0.003,-0.035,1.148,-0.296,-0.085,-60.543,4.479,14.224
1747652411.78,-0.095,0.013,-0.081,1.087,-0.221,-0.115,-59.909,4.140,14.009
1747652411.79,-0.133,-0.003,-0.043,1.082,-0.068,-0.108,-59.299,3.872,13.797
1747652411.80,-0.126,-0.025,0.007,1.100,0.114,-0.078,-58.679,3.725,13.611
1747652411.81,-0.093,-0.037,-0.007,1.088,0.234,-0.043,-58.058,3.705,13.466
1747652411.82,-0.045,-0.037,0.049,1.094,0.271,-0.025,-57.438,3.757,13.355
1747652411.83,-0.003,-0.036,0.019,1.093,0.295,-0.003,-56.815,3.846,13.272
1747652411.84,0.040,-0.028,0.014,1.110,0.296,-0.039,-56.190,3.935,13.172
1747652411.85,0.072,-0.012,0.066,1.163,0.212,-0.071,-55.545,3.972,13.036
1747652411.86,0.057,0.003,0.043,1.189,0.089,-0.085,-54.876,3.928,12.879
1747652411.87,0.016,0.013,0.041,1.171,0.024,-0.103,-54.206,3.818,12.706
1747652411.88,-0.008,0.025,0.046,1.132,-0.021,-0.106,-53.552,3.676,12.531
1747652411.89,-0.006,0.026,0.019,1.101,-0.071,-0.097,-52.920,3.522,12.371
1747652411.90,-0.008,0.021,0.008,1.115,-0.135,-0.138,-52.294,3.325,12.196
1747652411.91,-0.018,0.027,-0.009,1.119,-0.178,-0.098,-51.660,3.097,12.024
1747652411.92,-0.008,0.015,-0.022,1.090,-0.152,-0.115,-51.033,2.887,11.877
1747652411.93,0.009,0.002,0.007,1.067,-0.133,-0.115,-50.423,2.686,11.719
1747652411.94,0.009,-0.004,-0.003,1.089,-0.137,-0.130,-49.811,2.496,11.573
1747652411.95,0.007,-0.016,-0.036,1.097,-0.123,-0.115,-49.190,2.302,11.418
1747652411.96,-0.000,-0.009,0.002,1.097,-0.053,-0.078,-48.567,2.167,11.307
1747652411.97,0.006,-0.014,0.054,1.120,-0.053,-0.099,-47.938,2.055,11.193
1747652411.98,0.016,-0.002,0.046,1.139,-0.063,-0.040,-47.295,1.950,11.102
1747652411.99,0.030,-0.016,0.023,1.150,0.007,-0.039,-46.641,1.887,11.038
1747652412.00,0.089,-0.004,0.028,1.127,-0.029,-0.037,-45.991,1.841,10.974
1747652412.01,0.113,-0.001,0.031,1.093,-0.147,-0.002,-45.359,1.765,10.940
1747652412.02,0.110,0.011,0.028,1.112,-0.196,-0.026,-44.731,1.634,10.897
1747652412.03,0.121,0.040,0.016,1.126,-0.251,-0.002,-44.091,1.483,10.860
1747652412.04,0.095,0.039,0.033,1.099,-0.275,0.033,-43.455,1.325,10.851
1747652412.05,0.032,0.038,0.018,1.104,-0.253,0.046,-42.828,1.184,10.865
1747652412.06,-0.022,0.040,0.033,1.111,-0.223,0.042,-42.193,1.058,10.883
1747652412.07,-0.076,0.047,0.044,1.091,-0.083,-0.002,-41.564,0.969,10.886
1747652412.08,-0.105,0.055,0.073,1.080,0.030,-0.034,-40.943,0.939,10.858
1747652412.09,-0.095,0.067,0.088,1.046,0.095,-0.024,-40.335,0.951,10.821
1747652412.10,-0.082,0.052,0.068,1.022,0.108,0.023,-39.745,1.002,10.806
1747652412.11,-0.028,0.052,0.029,0.988,0.063,0.074,-39.168,1.067,10.829
1747652412.12,0.025,0.066,0.016,0.952,0.011,0.131,-38.614,1.125,10.891
1747652412.13,0.040,0.077,0.026,0.946,-0.026,0.190,-38.072,1.185,10.992
1747652412.14,0.039,0.093,0.028,0.955,-0.080,0.225,-37.527,1.237,11.129
1747652412.15,0.010,0.123,0.036,0.985,-0.078,0.217,-36.972,1.278,11.276
1747652412.16,-0.017,0.150,0.056,1.031,-0.062,0.166,-36.393,1.309,11.397
1747652412.17,-0.054,0.159,0.070,1.065,0.008,0.075,-35.793,1.334,11.468
1747652412.18,-0.119,0.147,0.081,1.107,0.028,-0.058,-35.172,1.339,11.457
1747652412.19,-0.192,0.119,0.039,1.111,0.009,-0.172,-34.539,1.295,11.357
1747652412.20,-0.230,0.075,0.017,1.095,-0.013,-0.234,-33.913,1.202,11.198
1747652412.21,-0.188,0.014,0.000,1.088,0.001,-0.258,-33.294,1.095,11.012
1747652412.22,-0.085,-0.038,-0.005,1.061,0.015,-0.259,-32.681,0.995,10.820
1747652412.23,-0.003,-0.061,-0.012,1.037,0.001,-0.238,-32.086,0.905,10.640
1747652412.24,0.049,-0.059,-0.030,1.049,-0.048,-0.189,-31.493,0.809,10.485
1747652412.25,0.075,-0.048,-0.011,1.071,-0.023,-0.147,-30.887,0.722,10.366
1747652412.26,0.071,-0.032,0.030,1.083,0.002,-0.148,-30.274,0.665,10.260
1747652412.27,0.053,-0.015,0.040,1.102,-0.031,-0.158,-29.651,0.602,10.151
1747652412.28,0.018,-0.018,0.045,1.130,-0.061,-0.146,-29.014,0.522,10.042
1747652412.29,0.001,-0.042,0.050,1.103,-0.003,-0.110,-28.377,0.461,9.965
1747652412.30,0.023,-0.073,0.031,1.085,0.013,-0.133,-27.752,0.428,9.880
1747652412.31,0.082,-0.062,-0.008,1.087,-0.015,-0.099,-27.132,0.389,9.798
1747652412.32,0.076,-0.064,-0.025,1.080,-0.015,-0.046,-26.514,0.356,9.745
1747652412.33,0.076,-0.046,-0.010,1.076,-0.017,0.016,-25.899,0.342,9.732
1747652412.34,0.081,-0.014,0.008,1.081,-0.059,0.078,-25.283,0.334,9.757
1747652412.35,0.076,0.023,0.006,1.106,-0.092,0.119,-24.658,0.312,9.816
1747652412.36,0.083,0.039,0.008,1.126,-0.064,0.121,-24.019,0.297,9.889
1747652412.37,0.112,0.038,0.031,1.147,-0.032,0.085,-23.369,0.295,9.950
1747652412.38,0.108,0.037,0.043,1.122,-0.026,0.046,-22.720,0.293,9.987
1747652412.39,0.061,0.027,0.018,1.081,-0.000,0.030,-22.093,0.290,10.006
1747652412.40,0.004,0.004,0.010,1.091,0.069,0.028,-21.473,0.314,10.019
1747652412.41,-0.043,-0.016,0.012,1.105,0.113,0.049,-20.846,0.373,10.038
1747652412.42,-0.071,-0.004,0.000,1.110,0.110,0.092,-20.213,0.452,10.075
1747652412.43,-0.076,0.030,0.001,1.116,0.101,0.122,-19.578,0.532,10.136
1747652412.44,-0.041,0.087,0.028,1.148,0.081,0.100,-18.931,0.607,9.978
1747652412.45,0.005,0.125,0.038,1.190,0.047,0.056,-18.263,0.655,10.018
1747652412.46,0.033,0.130,0.034,1.233,0.000,0.013,-17.571,0.672,9.812
1747652412.47,0.048,0.097,0.032,1.269,-0.037,-0.033,-16.857,0.657,9.798
1747652412.48,0.040,0.061,0.037,1.272,-0.041,-0.073,-16.130,0.621,9.300
1747652412.49,0.013,0.008,0.039,1.247,-0.002,-0.092,-15.412,0.593,9.242
1747652412.50,-0.007,-0.046,0.008,1.247,0.010,-0.064,-14.700,0.582,8.742
1747652412.51,-0.045,-0.070,-0.032,1.239,0.033,-0.017,-13.989,0.585,8.711
1747652412.52,-0.070,-0.024,-0.035,1.202,0.099,-0.022,-13.292,0.618,8.237
1747652412.53,-0.042,0.050,-0.025,1.198,0.154,-0.069,-12.608,0.684,8.202
1747652412.54,-0.031,0.073,0.008,1.201,0.182,-0.095,-11.924,0.768,7.685
1747652412.55,-0.040,0.043,0.050,1.208,0.162,-0.103,-11.236,0.854,7.617
1747652412.56,-0.016,-0.009,0.038,1.214,0.126,-0.097,-10.547,0.921,7.080
1747652412.57,0.029,-0.037,-0.010,1.247,0.171,-0.127,-9.847,0.988,7.006
1747652412.58,0.060,-0.037,-0.032,1.246,0.101,-0.131,-9.135,1.050,6.450
1747652412.59,0.058,0.044,-0.022,1.192,0.082,-0.095,-8.438,1.086,6.371
1747652412.60,0.059,0.104,-0.019,1.225,0.136,-0.042,-7.755,1.144,5.852
1747652412.61,0.041,0.077,-0.065,1.322,0.114,-0.011,-7.026,1.211,5.822
1747652412.62,0.015,0.054,-0.091,1.324,0.141,0.025,-6.270,1.281,5.344
1747652412.63,0.018,0.066,-0.042,1.329,0.162,0.023,-5.511,1.367,5.343
1747652412.64,0.028,0.026,-0.013,1.340,0.231,-0.003,-4.751,1.470,4.853
1747652412.65,0.038,-0.002,0.003,1.295,0.212,0.005,-3.995,1.591,4.827
1747652412.66,0.047,-0.014,-0.008,1.279,0.210,0.042,-3.261,1.712,4.358
1747652412.67,0.057,0.010,-0.003,1.275,0.202,0.072,-2.532,1.828,4.366
1747652412.68,0.038,0.070,-0.014,1.272,0.219,0.131,-1.800,1.950,3.930
1747652412.69,0.034,0.145,0.038,1.304,0.283,0.174,-1.069,2.094,3.992
1747652412.70,0.033,0.196,0.028,1.400,0.399,0.162,-0.285,2.286,3.598
1747652412.71,0.027,0.175,-0.030,1.281,0.400,0.116,0.484,2.523,3.645
1747652412.72,0.035,0.063,-0.037,1.272,0.188,0.113,1.209,2.693,3.212
1747652412.73,0.024,-0.113,-0.117,1.261,0.101,0.123,1.936,2.766,3.247
1747652412.74,0.015,-0.195,-0.089,1.225,0.129,0.050,2.654,2.855,2.793
1747652412.75,-0.016,-0.147,-0.031,1.194,0.237,0.059,3.339,2.954,2.355
1747652412.76,-0.062,-0.118,0.001,1.146,0.409,0.054,4.012,3.143,2.351
1747652412.77,-0.088,-0.129,0.029,1.099,0.441,0.090,4.651,3.390,1.908
1747652412.78,-0.044,-0.099,0.001,1.074,0.412,0.145,5.276,3.634,1.938
1747652412.79,0.036,0.015,-0.021,1.109,0.293,0.203,5.901,3.833,1.550
1747652412.80,0.081,0.180,0.019,1.174,0.194,0.225,6.563,3.960,1.630
1747652412.81,0.089,0.277,0.039,1.138,0.104,0.223,7.232,4.038,1.255
1747652412.82,0.082,0.208,0.003,1.114,-0.009,0.224,7.881,4.054,1.338
1747652412.83,0.064,0.043,-0.102,1.082,-0.086,0.214,8.515,4.012,0.965
1747652412.84,0.049,-0.062,-0.136,1.043,-0.075,0.157,9.128,3.952,1.031
1747652412.85,-0.006,-0.085,-0.093,1.003,0.002,0.078,9.716,3.924,0.607
1747652412.86,-0.106,-0.087,-0.041,0.948,0.113,0.040,10.274,3.959,0.599
1747652412.87,-0.168,-0.121,-0.012,0.954,0.177,0.063,10.815,4.047,0.149
1747652412.88,-0.156,-0.125,-0.019,0.947,0.179,0.072,11.360,4.151,0.150
1747652412.89,-0.105,-0.028,-0.007,0.968,0.087,0.049,11.906,4.231,-0.301
1747652412.90,-0.039,0.116,-0.014,0.991,-0.043,0.032,12.465,4.248,-0.321
1747652412.91,-0.002,0.197,-0.020,1.006,-0.133,0.009,13.035,4.202,-0.810
1747652412.92,0.010,0.158,-0.023,1.014,-0.181,-0.011,13.608,4.119,-0.854
1747652412.93,0.014,0.099,-0.035,1.011,-0.180,-0.046,14.185,4.028,-1.350
1747652412.94,-0.001,0.065,-0.056,1.009,-0.088,-0.085,14.756,3.961,-1.428
1747652412.95,-0.026,0.018,-0.075,0.989,-0.081,-0.095,15.333,3.933,-1.965
1747652412.96,-0.038,-0.023,-0.072,0.965,-0.007,-0.075,15.883,3.934,-2.050
1747652412.97,-0.016,-0.046,-0.016,0.929,0.048,-0.100,16.420,3.972,-2.559
1747652412.98,-0.054,-0.076,-0.026,0.908,0.082,-0.105,16.939,4.038,-2.660
1747652412.99,-0.038,-0.093,-0.021,0.877,0.112,-0.106,17.442,4.124,-3.186
1747652413.00,-0.003,-0.044,-0.042,0.887,0.108,-0.081,17.939,4.217,-3.281
1747652413.01,0.015,0.080,-0.048,0.879,0.114,-0.070,18.440,4.305,-3.793
1747652413.02,0.011,0.147,-0.039,0.862,0.100,-0.048,18.931,4.392,-3.868
1747652413.03,0.024,0.116,-0.065,0.893,0.020,-0.008,19.429,4.446,-4.343
1747652413.04,0.042,0.110,-0.115,0.886,-0.071,0.003,19.937,4.445,-4.385
1747652413.05,0.060,0.073,-0.123,0.877,-0.126,-0.003,20.438,4.402,-4.843
1747652413.06,0.071,0.002,-0.115,0.836,-0.101,-0.036,20.926,4.346,-4.892
1747652413.07,0.060,-0.063,-0.073,0.740,-0.159,-0.090,21.386,4.301,-5.400
1747652413.08,0.019,-0.137,-0.054,0.710,-0.132,-0.075,21.787,4.247,-5.479
1747652413.09,0.005,-0.136,0.008,0.670,-0.063,-0.082,22.179,4.221,-5.977
1747652413.10,-0.064,-0.065,-0.018,0.649,-0.012,-0.059,22.549,4.229,-6.051
1747652413.11,-0.042,0.009,-0.057,0.633,0.001,-0.044,22.911,4.250,-6.498
1747652413.12,-0.012,0.070,-0.094,0.609,-0.013,-0.042,23.264,4.269,-6.554
1747652413.13,-0.009,0.123,-0.107,0.603,-0.048,-0.011,23.607,4.270,-6.978
1747652413.14,-0.010,0.130,-0.133,0.609,-0.102,0.020,23.952,4.239,-7.003
1747652413.15,0.002,0.095,-0.158,0.580,-0.152,0.030,24.294,4.170,-7.388
1747652413.16,0.010,0.037,-0.161,0.533,-0.170,0.009,24.611,4.081,-7.399
1747652413.17,0.017,-0.023,-0.115,0.536,-0.172,-0.021,24.913,3.994,-7.795
1747652413.18,-0.004,-0.052,-0.025,0.533,-0.120,-0.054,25.220,3.927,-7.842
1747652413.19,-0.060,-0.017,0.065,0.437,-0.077,-0.078,25.494,3.901,-8.270
1747652413.20,-0.036,-0.031,0.028,0.408,-0.110,-0.040,25.729,3.872,-8.326
1747652413.21,-0.007,-0.072,-0.035,0.388,-0.083,-0.003,25.956,3.827,-8.712
1747652413.22,-0.020,0.009,-0.065,0.343,-0.050,0.005,26.165,3.796,-8.725
1747652413.23,-0.019,0.020,-0.093,0.270,-0.042,0.018,26.341,3.774,-9.091
1747652413.24,-0.011,-0.072,-0.119,0.204,-0.041,0.033,26.477,3.747,-9.086
1747652413.25,-0.000,-0.104,-0.106,0.135,-0.033,0.051,26.575,3.718,-9.414
1747652413.26,0.009,-0.101,-0.065,0.077,-0.039,0.058,26.637,3.684,-9.384
1747652413.27,0.012,-0.103,-0.046,0.018,-0.040,0.065,26.666,3.644,-9.682
1747652413.28,0.009,-0.102,-0.041,-0.027,-0.031,0.072,26.663,3.605,-9.639
1747652413.29,0.001,-0.083,-0.026,0.002,-0.032,0.088,26.658,3.564,-9.904
1747652413.30,-0.015,-0.052,-0.013,-0.052,-0.015,0.085,26.650,3.527,-9.848
1747652413.31,-0.004,-0.048,0.007,-0.076,-0.029,0.085,26.614,3.490,-10.100
1747652413.32,0.024,-0.059,-0.012,-0.083,-0.031,0.100,26.574,3.443,-10.038
1747652413.33,0.013,-0.042,-0.043,-0.131,-0.020,0.110,26.516,3.397,-10.272
1747652413.34,0.004,-0.029,-0.051,-0.143,-0.006,0.119,26.442,3.355,-10.194
1747652413.35,-0.004,-0.031,-0.065,-0.161,-0.002,0.117,26.361,3.316,-10.417
1747652413.36,-0.015,-0.033,-0.043,-0.175,-0.005,0.097,26.270,3.281,-10.342
1747652413.37,-0.019,-0.028,-0.014,-0.189,-0.008,0.071,26.169,3.253,-10.585
1747652413.38,-0.025,-0.032,0.024,-0.184,-0.014,0.051,26.065,3.226,-10.540
1747652413.39,-0.038,-0.022,0.036,-0.167,-0.001,0.029,25.965,3.208,-10.805
1747652413.40,-0.044,0.006,0.029,-0.118,0.014,0.025,25.886,3.202,-10.782
1747652413.41,-0.047,0.025,0.010,-0.099,0.037,0.015,25.827,3.209,-11.057
1747652413.42,-0.036,0.038,-0.009,-0.088,0.046,0.007,25.774,3.231,-11.048
1747652413.43,-0.009,0.040,-0.011,-0.064,0.014,0.001,25.732,3.246,-11.325
1747652413.44,-0.001,0.036,-0.011,-0.057,0.008,0.001,25.698,3.248,-11.320
1747652413.45,-0.003,0.038,-0.000,-0.030,0.013,0.005,25.673,3.253,-11.598
1747652413.46,-0.001,0.043,0.007,-0.002,0.009,-0.001,25.667,3.257,-11.595
1747652413.47,-0.001,0.047,0.009,0.010,0.011,-0.015,25.671,3.263,-11.867
1747652413.48,0.001,0.041,0.008,0.048,-0.010,-0.019,25.686,3.267,-11.877
1747652413.49,0.006,0.044,-0.002,0.096,-0.007,-0.023,25.727,3.266,-12.155
1747652413.50,0.003,0.062,0.000,0.117,-0.003,-0.035,25.787,3.271,-12.177
1747652413.51,-0.005,0.061,0.024,0.147,-0.004,-0.045,25.857,3.282,-12.464
1747652413.52,-0.012,0.045,0.018,0.170,-0.008,-0.052,25.944,3.294,-12.500
1747652413.53,-0.005,0.049,-0.002,0.178,-0.026,-0.053,26.038,3.301,-12.793
1747652413.54,0.008,0.042,-0.018,0.192,-0.033,-0.060,26.139,3.302,-12.836
1747652413.55,0.006,0.032,-0.028,0.193,-0.014,-0.064,26.242,3.310,-13.127
1747652413.56,-0.006,0.038,-0.015,0.205,-0.004,-0.057,26.348,3.326,-13.173
1747652413.57,-0.014,0.033,-0.013,0.229,0.003,-0.047,26.464,3.343,-13.454
1747652413.58,-0.024,0.033,-0.017,0.233,0.039,-0.043,26.587,3.373,-13.492
1747652413.59,-0.026,0.029,-0.011,0.234,0.040,-0.049,26.711,3.413,-13.769
1747652413.60,-0.014,0.009,-0.014,0.237,0.005,-0.058,26.837,3.443,-13.811
1747652413.61,-0.008,-0.003,-0.017,0.231,-0.012,-0.077,26.959,3.463,-14.094
1747652413.62,0.000,-0.001,-0.018,0.224,-0.026,-0.083,27.078,3.480,-14.155
1747652413.63,0.010,0.001,-0.023,0.220,-0.036,-0.078,27.195,3.489,-14.436
1747652413.64,0.000,0.002,-0.027,0.214,-0.016,-0.067,27.312,3.496,-14.707
1747652413.65,-0.010,0.005,-0.032,0.193,0.004,-0.049,27.421,3.513,-14.752
1747652413.66,-0.011,0.002,-0.032,0.182,0.009,-0.034,27.521,3.531,-14.999
1747652413.67,-0.001,-0.004,-0.037,0.150,0.005,-0.023,27.610,3.543,-15.021
1747652413.68,0.020,-0.011,-0.034,0.117,-0.005,-0.027,27.681,3.552,-15.248
1747652413.68,0.028,-0.024,-0.033,0.112,-0.013,-0.030,27.743,3.555,-15.269
1747652413.70,0.017,-0.029,-0.025,0.146,-0.023,-0.030,27.811,3.555,-15.498
1747652413.70,0.001,-0.025,-0.023,0.153,-0.012,-0.029,27.898,3.558,-15.523
1747652413.72,-0.004,-0.020,-0.002,0.116,-0.038,-0.038,27.970,3.557,-15.750
1747652413.72,0.010,-0.034,-0.008,0.099,-0.057,-0.030,28.029,3.540,-15.776
1747652413.73,0.025,-0.036,-0.049,0.083,-0.039,-0.025,28.078,3.520,-15.986
1747652413.74,0.014,-0.015,-0.037,0.056,-0.008,-0.017,28.116,3.515,-16.003
1747652413.75,-0.003,-0.017,-0.019,0.035,-0.002,-0.006,28.140,3.520,-16.205
1747652413.76,0.001,-0.019,-0.021,0.018,-0.013,0.001,28.156,3.518,-16.207
1747652413.77,0.013,-0.002,-0.037,-0.007,-0.013,0.007,28.159,3.509,-16.392
1747652413.78,0.014,-0.009,-0.026,0.046,-0.019,0.024,28.167,3.496,-16.382
1747652413.79,0.002,-0.007,-0.010,0.069,-0.024,0.021,28.206,3.478,-16.557
1747652413.80,-0.005,0.023,-0.006,0.014,-0.025,0.010,28.231,3.462,-16.548
1747652413.81,0.029,0.005,-0.026,0.030,-0.066,0.019,28.242,3.433,-16.733
1747652413.82,0.033,-0.008,-0.056,0.042,-0.044,0.019,28.264,3.395,-16.723
1747652413.83,-0.022,0.021,-0.028,0.039,0.011,0.008,28.288,3.383,-16.890
1747652413.84,-0.047,0.027,-0.015,0.040,0.015,0.001,28.312,3.391,-16.889
1747652413.85,-0.041,0.001,-0.021,0.026,0.006,-0.008,28.330,3.399,-17.063
1747652413.86,-0.033,0.014,-0.025,0.020,0.017,-0.012,28.340,3.409,-17.070
1747652413.87,-0.020,0.047,-0.043,0.028,0.047,-0.006,28.353,3.430,-17.252
1747652413.88,-0.035,0.053,-0.050,0.045,0.092,0.000,28.371,3.471,-17.255
1747652413.89,-0.060,0.043,-0.055,0.023,0.133,0.006,28.393,3.537,-17.423
1747652413.90,-0.051,0.014,-0.051,-0.018,0.189,0.017,28.391,3.628,-17.417
1747652413.91,-0.011,-0.029,-0.031,-0.038,0.233,0.017,28.375,3.741,-17.559
1747652413.92,0.023,-0.044,-0.038,-0.083,0.246,0.026,28.339,3.867,-17.541
1747652413.93,0.044,-0.046,-0.047,-0.134,0.212,0.035,28.280,3.984,-17.676
1747652413.94,0.060,-0.071,-0.087,-0.247,0.192,0.055,28.173,4.080,-17.638
1747652413.95,0.070,-0.123,-0.092,-0.331,0.170,0.111,28.008,4.152,-17.737
1747652413.96,0.076,-0.148,-0.070,-0.421,0.132,0.156,27.799,4.187,-17.631
1747652413.97,0.093,-0.118,-0.088,-0.538,0.097,0.162,27.533,4.191,-17.665
1747652413.98,0.091,-0.117,-0.129,-0.637,0.125,0.175,27.205,4.190,-17.529
1747652413.99,0.052,-0.170,-0.113,-0.767,0.190,0.191,26.814,4.211,-17.524
1747652414.00,0.008,-0.214,-0.065,-0.893,0.203,0.213,26.348,4.249,-17.356
1747652414.01,-0.017,-0.221,-0.068,-0.976,0.229,0.239,25.825,4.289,-17.306
1747652414.02,-0.011,-0.186,-0.075,-1.042,0.211,0.252,25.261,4.327,-17.101
1747652414.03,0.002,-0.135,-0.097,-1.133,0.161,0.244,24.653,4.346,-17.029
1747652414.04,0.009,-0.118,-0.129,-1.191,0.095,0.233,24.000,4.335,-16.825
1747652414.05,0.026,-0.131,-0.126,-1.273,0.059,0.205,23.311,4.300,-16.753
1747652414.06,0.040,-0.132,-0.103,-1.365,-0.003,0.170,22.565,4.248,-16.577
1747652414.07,0.042,-0.116,-0.090,-1.383,-0.056,0.161,21.790,4.168,-16.533
1747652414.08,0.009,-0.084,-0.091,-1.434,-0.066,0.152,20.995,4.074,-16.375
1747652414.09,-0.036,-0.047,-0.091,-1.467,-0.055,0.146,20.174,3.987,-16.337
1747652414.10,-0.063,-0.029,-0.112,-1.472,-0.042,0.152,19.341,3.907,-16.185
1747652414.11,-0.090,-0.024,-0.095,-1.471,0.012,0.138,18.509,3.849,-16.134
1747652414.12,-0.110,-0.004,-0.064,-1.484,0.067,0.090,17.672,3.833,-16.005
1747652414.13,-0.106,0.011,-0.054,-1.490,0.078,0.053,16.828,3.845,-15.987
1747652414.14,-0.093,0.004,-0.051,-1.504,0.089,0.039,15.977,3.869,-15.901
1747652414.15,-0.067,0.002,-0.044,-1.527,0.062,0.056,15.116,3.890,-15.885
1747652414.16,-0.028,-0.004,-0.064,-1.570,0.016,0.101,14.236,3.885,-15.777
1747652414.17,0.009,-0.033,-0.076,-1.597,-0.019,0.141,13.338,3.850,-15.692
1747652414.18,0.059,-0.062,-0.091,-1.607,-0.049,0.142,12.430,3.798,-15.545
1747652414.19,0.076,-0.071,-0.063,-1.595,-0.053,0.095,11.522,3.739,-15.450
1747652414.20,0.036,-0.059,0.013,-1.569,-0.046,0.037,10.622,3.693,-15.352
1747652414.21,-0.021,-0.048,0.059,-1.576,-0.024,-0.006,9.728,3.659,-15.321
1747652414.22,-0.080,-0.058,0.038,-1.575,0.055,-0.028,8.830,3.659,-15.274
1747652414.23,-0.114,-0.081,0.011,-1.590,0.122,-0.029,7.925,3.705,-15.268
1747652414.24,-0.103,-0.099,-0.016,-1.596,0.174,-0.032,7.017,3.784,-15.223
1747652414.25,-0.058,-0.106,-0.033,-1.613,0.182,-0.086,6.100,3.886,-15.208
1747652414.26,-0.031,-0.083,-0.017,-1.636,0.091,-0.155,5.169,3.965,-15.214
1747652414.27,-0.048,-0.056,-0.036,-1.635,0.017,-0.194,4.229,3.997,-15.248
1747652414.28,-0.082,-0.030,-0.025,-1.642,-0.013,-0.219,3.288,4.002,-15.302
1747652414.29,-0.104,-0.007,-0.018,-1.656,-0.037,-0.230,2.340,3.990,-15.351
1747652414.30,-0.091,0.009,-0.032,-1.671,-0.052,-0.223,1.384,3.966,-15.415
1747652414.31,-0.042,0.007,-0.034,-1.670,-0.049,-0.236,0.422,3.938,-15.454
1747652414.32,-0.008,-0.007,-0.031,-1.669,-0.061,-0.288,-0.538,3.907,-15.538
1747652414.33,-0.013,-0.015,-0.037,-1.655,-0.066,-0.337,-1.498,3.869,-15.611
1747652414.34,-0.056,-0.020,-0.010,-1.662,-0.002,-0.357,-2.456,3.843,-15.746
1747652414.35,-0.089,-0.023,0.025,-1.700,0.078,-0.349,-3.426,3.860,-15.849
1747652414.36,-0.077,-0.026,-0.002,-1.734,0.069,-0.317,-4.420,3.897,-15.973
1747652414.37,-0.040,-0.040,-0.040,-1.736,0.047,-0.286,-5.418,3.918,-16.066
1747652414.38,0.030,-0.051,-0.030,-1.776,0.032,-0.265,-6.429,3.935,-16.155
1747652414.39,0.121,-0.039,0.023,-1.808,-0.060,-0.246,-7.462,3.918,-16.207
1747652414.40,0.152,-0.028,0.018,-1.802,-0.091,-0.227,-8.498,3.863,-16.272
1747652414.41,0.138,-0.028,0.011,-1.791,-0.067,-0.209,-9.531,3.811,-16.259
1747652414.42,0.116,-0.027,0.006,-1.815,-0.053,-0.182,-10.561,3.770,-16.304
1747652414.43,0.091,-0.034,-0.025,-1.871,-0.107,-0.131,-11.617,3.721,-16.301
1747652414.44,0.074,-0.046,-0.044,-1.922,-0.137,-0.074,-12.702,3.652,-16.288
1747652414.45,0.070,-0.051,-0.013,-1.935,-0.140,-0.052,-13.805,3.581,-16.252
1747652414.46,0.068,-0.046,0.046,-1.899,-0.126,-0.054,-14.899,3.514,-16.214
1747652414.47,0.069,-0.039,0.067,-1.868,-0.121,-0.051,-15.973,3.454,-16.177
1747652414.48,0.078,-0.028,0.068,-1.853,-0.103,-0.042,-17.035,3.400,-16.139
1747652414.49,0.087,-0.015,0.084,-1.806,-0.073,-0.040,-18.081,3.363,-16.097
1747652414.50,0.082,-0.003,0.065,-1.779,-0.130,-0.044,-19.101,3.321,-16.060
1747652414.51,0.054,0.007,0.009,-1.801,-0.193,-0.036,-20.124,3.237,-16.021
1747652414.52,0.031,-0.001,-0.053,-1.768,-0.126,-0.048,-21.145,3.156,-15.986
1747652414.53,0.030,-0.019,-0.022,-1.748,-0.067,-0.079,-22.148,3.113,-15.966
1747652414.54,-0.004,-0.044,0.028,-1.733,-0.031,-0.115,-23.144,3.085,-15.967
1747652414.55,-0.082,-0.082,0.039,-1.734,0.041,-0.137,-24.135,3.078,-15.989
1747652414.56,-0.129,-0.121,0.010,-1.776,0.110,-0.148,-25.139,3.111,-16.019
1747652414.57,-0.126,-0.143,-0.007,-1.808,0.144,-0.162,-26.168,3.170,-16.054
1747652414.58,-0.093,-0.136,0.046,-1.774,0.123,-0.185,-27.199,3.228,-16.100
1747652414.59,-0.037,-0.101,0.077,-1.716,0.035,-0.203,-28.198,3.245,-16.162
1747652414.60,0.028,-0.049,0.066,-1.697,-0.122,-0.198,-29.177,3.190,-16.231
1747652414.61,0.088,0.001,0.051,-1.685,-0.280,-0.152,-30.147,3.046,-16.287
1747652414.62,0.138,0.028,-0.041,-1.659,-0.385,-0.094,-31.106,2.841,-16.310
1747652414.63,0.157,0.035,-0.069,-1.633,-0.424,-0.062,-32.047,2.608,-16.309
1747652414.64,0.131,0.019,-0.075,-1.643,-0.405,-0.065,-32.982,2.373,-16.304
1747652414.65,0.076,-0.017,-0.068,-1.672,-0.358,-0.084,-33.930,2.149,-16.311
1747652414.66,0.012,-0.067,-0.022,-1.708,-0.200,-0.089,-34.894,1.973,-16.329
1747652414.67,-0.032,-0.111,0.020,-1.778,-0.031,-0.090,-35.892,1.899,-16.352
1747652414.68,-0.052,-0.133,0.075,-1.835,0.044,-0.053,-36.926,1.898,-16.362
1747652414.69,-0.048,-0.135,0.071,-1.849,0.113,0.006,-37.980,1.959,-16.336
1747652414.70,-0.026,-0.118,0.069,-1.809,0.175,0.059,-39.025,2.087,-16.266
1747652414.71,0.012,-0.083,0.044,-1.759,0.173,0.100,-40.040,2.259,-16.156
1747652414.72,0.047,-0.043,-0.000,-1.740,0.129,0.119,-41.035,2.436,-16.018
1747652414.73,0.082,-0.013,-0.018,-1.721,0.103,0.124,-42.020,2.601,-15.867
1747652414.74,0.123,0.002,-0.024,-1.696,0.096,0.129,-42.991,2.766,-15.708
1747652414.75,0.148,0.001,-0.020,-1.684,0.085,0.126,-43.952,2.931,-15.541
1747652414.76,0.134,-0.003,-0.014,-1.673,0.071,0.119,-44.905,3.094,-15.372
1747652414.77,0.089,-0.005,0.001,-1.657,0.057,0.111,-45.852,3.248,-15.204
1747652414.78,0.023,-0.002,0.025,-1.639,0.044,0.099,-46.786,3.396,-15.039
1747652414.79,-0.043,0.006,0.032,-1.665,0.035,0.084,-47.723,3.539,-14.876
1747652414.80,-0.090,0.016,0.050,-1.704,0.028,0.059,-48.682,3.671,-14.722
1747652414.81,-0.109,0.025,0.059,-1.704,0.047,0.031,-49.652,3.795,-14.587
1747652414.82,-0.083,0.035,0.053,-1.679,0.047,-0.004,-50.616,3.912,-14.473
1747652414.83,-0.028,0.047,0.031,-1.666,0.003,-0.027,-51.570,3.998,-14.383
1747652414.84,0.028,0.056,0.041,-1.664,-0.039,-0.036,-52.520,4.050,-14.303
1747652414.85,0.072,0.058,0.046,-1.632,-0.109,-0.044,-53.462,4.070,-14.228
1747652414.86,0.091,0.057,0.023,-1.593,-0.197,-0.069,-54.382,4.027,-14.171
1747652414.87,0.066,0.049,-0.007,-1.594,-0.223,-0.088,-55.291,3.929,-14.142
1747652414.88,0.036,0.032,0.018,-1.617,-0.227,-0.114,-56.210,3.805,-14.133
1747652414.89,0.008,0.007,0.036,-1.641,-0.171,-0.122,-57.144,3.677,-14.147
1747652414.90,-0.016,-0.019,0.031,-1.651,-0.070,-0.110,-58.087,3.598,-14.159
1747652414.91,-0.010,-0.049,0.047,-1.641,0.011,-0.095,-59.028,3.583,-14.159
1747652414.92,0.003,-0.065,0.013,-1.656,0.036,-0.075,-59.971,3.614,-14.141
1747652414.93,0.013,-0.072,0.019,-1.636,0.015,-0.042,-60.912,3.678,-14.086
1747652414.94,0.032,-0.074,0.032,-1.599,-0.039,-0.018,-61.835,3.752,-13.994
1747652414.95,0.048,-0.047,0.002,-1.567,-0.077,-0.014,-62.737,3.815,-13.884
1747652414.96,0.050,-0.021,-0.011,-1.558,-0.140,-0.051,-63.628,3.841,-13.788
1747652414.97,0.029,0.013,-0.017,-1.541,-0.203,-0.111,-64.515,3.767,-13.759
1747652414.98,-0.011,0.041,-0.025,-1.508,-0.198,-0.177,-65.389,3.595,-13.820
1747652414.99,-0.046,0.039,-0.003,-1.454,-0.196,-0.255,-66.241,3.325,-13.994
1747652415.00,-0.078,0.026,0.007,-1.395,-0.172,-0.316,-67.062,2.939,-14.297
1747652415.01,-0.102,-0.002,-0.023,-1.366,-0.112,-0.332,-67.857,2.497,-14.686
1747652415.02,-0.089,-0.056,-0.031,-1.375,-0.021,-0.291,-68.647,2.085,-15.085
1747652415.03,-0.042,-0.104,-0.019,-1.402,0.151,-0.215,-69.445,1.811,-15.417
1747652415.04,0.021,-0.129,0.030,-1.403,0.310,-0.139,-70.250,1.740,-15.635
1747652415.05,0.060,-0.116,0.069,-1.370,0.372,-0.095,-71.045,1.826,-15.755
1747652415.06,0.053,-0.088,0.063,-1.281,0.272,-0.110,-71.806,1.921,-15.855
1747652415.07,0.011,-0.028,0.013,-1.220,0.094,-0.124,-72.518,1.888,-15.998
1747652415.08,-0.020,-0.011,-0.058,-1.240,-0.027,-0.126,-73.222,1.745,-16.165
1747652415.09,-0.019,-0.015,-0.082,-1.232,0.007,-0.142,-73.931,1.544,-16.362
1747652415.10,-0.032,-0.008,-0.083,-1.209,0.136,-0.153,-74.630,1.344,-16.611
1747652415.11,-0.047,-0.004,-0.030,-1.219,0.258,-0.151,-75.325,1.192,-16.886
1747652415.12,-0.052,-0.003,0.031,-1.198,0.360,-0.168,-76.018,1.072,-17.194
1747652415.13,-0.056,0.033,0.021,-1.196,0.375,-0.207,-76.701,0.894,-17.597
1747652415.14,-0.041,0.034,0.025,-1.212,0.319,-0.216,-77.391,0.601,-18.102
1747652415.15,0.002,0.015,0.070,-1.179,0.247,-0.202,-78.077,0.232,-18.645
1747652415.16,0.060,-0.008,0.060,-1.129,0.193,-0.175,-78.734,-0.167,-19.180
1747652415.17,0.116,-0.024,0.025,-1.166,0.186,-0.132,-79.387,-0.546,-19.673
1747652415.18,0.149,-0.052,0.071,-1.169,0.214,-0.098,-80.057,-0.826,-20.077
1747652415.19,0.140,-0.067,0.098,-1.079,0.069,-0.110,-80.699,-1.145,-20.489
1747652415.20,0.056,-0.035,-0.018,-1.022,-0.121,-0.150,-81.293,-1.732,-21.064
1747652415.21,-0.061,0.006,-0.131,-1.110,-0.077,-0.155,-81.894,-2.552,-21.826
1747652415.22,-0.111,0.016,-0.062,-1.206,0.137,-0.150,-82.553,-3.427,-22.724
1747652415.23,-0.105,0.014,0.054,-1.161,0.304,-0.174,-83.227,-4.388,-23.824
1747652415.24,-0.114,0.029,0.051,-1.036,0.328,-0.209,-83.843,-5.665,-25.295
1747652415.25,-0.138,0.032,-0.012,-0.946,0.324,-0.205,-84.391,-7.251,-27.074
1747652415.26,-0.125,-0.003,-0.061,-0.841,0.362,-0.213,-84.881,-9.077,-29.106
1747652415.27,-0.090,-0.039,-0.086,-0.742,0.415,-0.222,-85.301,-11.213,-31.471
1747652415.28,-0.054,-0.038,-0.093,-0.727,0.433,-0.216,-85.681,-13.658,-34.170
1747652415.29,-0.042,-0.010,-0.064,-0.731,0.412,-0.208,-86.051,-16.523,-37.284
1747652415.30,-0.076,0.018,-0.068,-0.713,0.472,-0.202,-86.407,-19.921,-40.938
1747652415.31,-0.107,0.005,-0.058,-0.691,0.604,-0.159,-86.740,-23.724,-45.055
1747652415.32,-0.100,-0.024,-0.056,-0.688,0.715,-0.098,-87.062,-27.707,-49.423
1747652415.33,-0.063,-0.052,-0.059,-0.709,0.774,-0.050,-87.386,-32.130,-54.279
1747652415.34,-0.012,-0.057,-0.038,-0.691,0.808,-0.038,-87.703,-37.465,-60.072
1747652415.35,0.029,-0.032,-0.036,-0.652,0.814,-0.048,-87.978,-44.142,-67.219
1747652415.36,0.052,-0.006,-0.037,-0.619,0.765,-0.063,-88.197,-52.435,-75.971
1747652415.37,0.068,0.035,-0.011,-0.587,0.631,-0.097,-88.343,-62.477,-86.418
1747652415.38,0.060,0.060,-0.010,-0.558,0.449,-0.119,-88.408,-73.696,-97.949
1747652415.39,0.041,0.054,-0.038,-0.527,0.302,-0.143,-88.392,-84.946,-109.416
1747652415.40,0.022,0.018,-0.043,-0.476,0.219,-0.192,-88.297,-94.731,-119.352
1747652415.41,0.010,-0.043,-0.029,-0.407,0.197,-0.248,-88.134,-102.079,-126.819
1747652415.42,0.006,-0.078,-0.033,-0.350,0.238,-0.272,-87.935,-106.909,-131.775
1747652415.43,0.020,-0.073,-0.040,-0.319,0.264,-0.243,-87.733,-110.283,-135.298
1747652415.44,0.045,-0.042,-0.020,-0.289,0.177,-0.211,-87.550,-112.927,-138.073
1747652415.45,0.041,0.012,-0.016,-0.255,0.022,-0.191,-87.383,-115.037,-140.243
1747652415.46,0.013,0.057,-0.019,-0.217,-0.110,-0.182,-87.228,-116.651,-141.830
1747652415.47,-0.005,0.075,-0.010,-0.208,-0.195,-0.154,-87.087,-117.998,-143.089
1747652415.48,-0.013,0.066,0.007,-0.200,-0.277,-0.126,-86.961,-119.362,-144.320
1747652415.49,-0.027,0.033,0.005,-0.138,-0.328,-0.101,-86.856,-120.511,-145.293
1747652415.50,-0.045,0.027,-0.025,-0.041,-0.263,-0.088,-86.784,-120.989,-145.597
1747652415.51,-0.056,-0.004,-0.048,0.055,-0.060,-0.072,-86.747,-120.592,-145.103
1747652415.52,-0.065,-0.015,-0.064,0.106,0.169,-0.045,-86.744,-119.553,-144.096
1747652415.53,-0.077,-0.021,-0.050,0.096,0.287,-0.031,-86.755,-118.332,-143.008
1747652415.54,-0.104,-0.021,-0.026,0.074,0.343,-0.019,-86.765,-117.259,-142.113
1747652415.55,-0.122,-0.015,-0.002,0.022,0.385,0.007,-86.776,-116.586,-141.649
1747652415.56,-0.100,-0.011,0.027,-0.018,0.380,0.041,-86.788,-116.486,-141.769
1747652415.57,-0.055,-0.004,0.041,-0.011,0.352,0.055,-86.809,-116.640,-142.133
1747652415.58,-0.017,0.013,0.028,0.003,0.298,0.060,-86.838,-116.745,-142.425
1747652415.59,0.009,0.026,0.029,0.000,0.263,0.051,-86.867,-116.817,-142.656
1747652415.60,0.025,0.015,0.043,0.003,0.282,0.044,-86.891,-116.884,-142.879
1747652415.61,0.046,-0.013,0.046,0.026,0.260,0.028,-86.913,-116.773,-142.927
1747652415.62,0.062,-0.043,0.016,0.062,0.158,0.014,-86.935,-116.328,-142.603
1747652415.63,0.060,-0.058,-0.018,0.102,0.036,-0.008,-86.958,-115.485,-141.814
1747652415.64,0.053,-0.042,-0.014,0.122,-0.110,-0.023,-86.976,-114.334,-140.641
1747652415.65,0.044,-0.000,0.013,0.130,-0.262,-0.045,-86.986,-113.044,-139.242
1747652415.66,0.018,0.051,0.012,0.137,-0.371,-0.073,-86.984,-111.621,-137.634
1747652415.67,-0.027,0.083,0.011,0.112,-0.375,-0.086,-86.967,-110.250,-136.043
1747652415.68,-0.063,0.067,0.020,0.064,-0.244,-0.072,-86.941,-109.236,-134.845
1747652415.69,-0.059,0.017,0.043,0.023,-0.063,-0.037,-86.919,-108.701,-134.222
1747652415.70,-0.024,-0.025,0.061,-0.016,0.029,0.000,-86.910,-108.617,-134.132
1747652415.71,0.004,-0.046,0.055,-0.060,0.032,0.020,-86.909,-109.009,-134.544
1747652415.72,0.014,-0.049,0.039,-0.114,-0.016,0.019,-86.907,-109.956,-135.498
1747652415.73,0.017,-0.042,0.031,-0.150,-0.078,0.009,-86.890,-111.380,-136.895
1747652415.74,0.013,-0.028,0.010,-0.156,-0.083,-0.006,-86.858,-112.955,-138.426
1747652415.75,0.005,-0.013,0.005,-0.140,-0.064,-0.025,-86.814,-114.356,-139.788
1747652415.76,-0.003,0.002,0.011,-0.092,-0.072,-0.053,-86.762,-115.322,-140.716
1747652415.77,-0.024,0.017,-0.002,-0.027,-0.057,-0.073,-86.710,-115.609,-140.967
1747652415.78,-0.044,0.029,-0.031,-0.007,-0.040,-0.062,-86.669,-115.496,-140.825
1747652415.79,-0.041,0.027,-0.032,-0.021,-0.029,-0.034,-86.638,-115.492,-140.802
1747652415.80,-0.030,0.016,-0.035,-0.017,-0.039,-0.016,-86.621,-115.638,-140.929
1747652415.81,-0.022,0.007,-0.044,-0.005,-0.085,-0.014,-86.611,-115.742,-140.999
1747652415.82,-0.020,0.007,-0.049,-0.001,-0.161,-0.013,-86.603,-115.815,-141.003
1747652415.83,-0.025,0.011,-0.045,0.014,-0.208,-0.003,-86.599,-115.841,-140.922
1747652415.84,-0.030,0.014,-0.032,0.035,-0.223,0.002,-86.605,-115.760,-140.716
1747652415.85,-0.035,0.011,-0.004,0.077,-0.227,-0.000,-86.616,-115.410,-140.236
1747652415.86,-0.040,0.007,0.010,0.118,-0.216,-0.009,-86.635,-114.537,-139.235
1747652415.87,-0.040,0.011,0.012,0.116,-0.180,-0.004,-86.655,-113.448,-138.031
1747652415.88,-0.030,0.014,0.034,0.101,-0.122,0.010,-86.679,-112.452,-136.948
1747652415.89,-0.021,0.012,0.058,0.079,-0.106,0.023,-86.707,-111.650,-136.081
1747652415.90,-0.027,-0.006,0.066,0.021,-0.129,0.033,-86.732,-111.261,-135.625
1747652415.91,-0.046,-0.035,0.078,-0.034,-0.134,0.032,-86.748,-111.485,-135.774
1747652415.92,-0.058,-0.061,0.091,-0.038,-0.125,0.020,-86.754,-112.000,-136.214
1747652415.93,-0.060,-0.067,0.084,0.001,-0.073,0.004,-86.753,-112.274,-136.431
1747652415.94,-0.055,-0.049,0.069,0.034,-0.014,0.006,-86.756,-112.138,-136.271
1747652415.95,-0.038,-0.017,0.067,0.060,0.028,0.019,-86.771,-111.719,-135.857
1747652415.96,-0.014,0.009,0.057,0.088,-0.001,0.046,-86.801,-111.145,-135.293
1747652415.97,0.002,0.014,0.026,0.120,-0.112,0.069,-86.850,-110.417,-134.534
1747652415.98,0.008,0.001,-0.021,0.143,-0.265,0.076,-86.911,-109.563,-133.571
1747652415.99,0.008,-0.018,-0.062,0.183,-0.401,0.070,-86.978,-108.420,-132.235
1747652416.00,0.009,-0.029,-0.086,0.241,-0.481,0.045,-87.042,-106.722,-130.281
1747652416.01,0.015,-0.027,-0.087,0.322,-0.507,0.022,-87.101,-104.133,-127.405
1747652416.02,0.013,-0.005,-0.082,0.429,-0.501,0.001,-87.151,-100.292,-123.271
1747652416.03,0.004,0.030,-0.079,0.505,-0.479,-0.000,-87.185,-95.227,-117.918
1747652416.04,-0.004,0.065,-0.071,0.538,-0.477,0.034,-87.205,-89.398,-111.809
1747652416.05,-0.007,0.074,-0.045,0.564,-0.485,0.066,-87.214,-83.199,-105.328
1747652416.06,-0.012,0.057,-0.018,0.583,-0.503,0.096,-87.202,-76.656,-98.495
1747652416.07,-0.015,0.036,0.009,0.573,-0.518,0.132,-87.170,-70.105,-91.644
1747652416.08,-0.022,0.010,0.030,0.576,-0.484,0.162,-87.119,-63.707,-84.950
1747652416.09,-0.031,-0.020,0.048,0.619,-0.417,0.184,-87.039,-57.210,-78.186
1747652416.10,-0.042,-0.045,0.056,0.686,-0.352,0.181,-86.903,-50.573,-71.321
1747652416.11,-0.055,-0.050,0.053,0.785,-0.322,0.171,-86.692,-44.043,-64.588
1747652416.12,-0.066,-0.044,0.031,0.906,-0.293,0.158,-86.388,-37.792,-58.150
1747652416.13,-0.071,-0.029,-0.026,0.972,-0.265,0.143,-85.997,-32.264,-52.450
1747652416.14,-0.071,-0.009,-0.053,0.981,-0.224,0.129,-85.550,-27.708,-47.741
1747652416.15,-0.074,0.014,-0.047,0.934,-0.204,0.133,-85.089,-24.088,-43.988
1747652416.16,-0.077,0.041,-0.011,0.851,-0.205,0.162,-84.649,-21.166,-40.936
1747652416.17,-0.082,0.054,0.011,0.765,-0.162,0.210,-84.253,-18.636,-38.286
1747652416.18,-0.073,0.030,0.050,0.768,-0.079,0.238,-83.877,-16.257,-35.825
1747652416.19,-0.046,-0.008,0.071,0.834,-0.034,0.237,-83.472,-14.024,-33.548
1747652416.20,-0.021,-0.035,0.061,0.904,-0.004,0.225,-83.017,-12.003,-31.502
1747652416.21,0.017,-0.047,0.029,0.932,-0.003,0.222,-82.526,-10.216,-29.703
1747652416.22,0.057,-0.043,0.009,0.983,-0.078,0.207,-82.009,-8.687,-28.136
1747652416.23,0.066,-0.020,-0.034,1.098,-0.080,0.177,-81.436,-7.419,-26.803
1747652416.24,0.060,0.015,-0.078,1.170,-0.020,0.141,-80.801,-6.366,-25.711
1747652416.25,0.064,0.031,-0.032,1.137,-0.014,0.122,-80.150,-5.527,-24.852
1747652416.26,0.061,0.016,0.030,1.062,-0.029,0.162,-79.531,-4.778,-24.079
1747652416.27,0.050,-0.012,0.106,0.977,-0.116,0.209,-78.960,-4.020,-23.268
1747652416.28,-0.009,-0.029,0.121,0.949,-0.208,0.227,-78.421,-3.319,-22.456
1747652416.29,-0.093,-0.018,0.051,0.912,-0.163,0.241,-77.897,-2.663,-21.672
1747652416.30,-0.118,-0.006,0.036,0.892,-0.023,0.230,-77.390,-2.000,-20.938
1747652416.31,-0.066,-0.010,0.081,1.009,0.069,0.178,-76.857,-1.400,-20.340
1747652416.32,-0.003,0.001,0.057,1.163,0.073,0.120,-76.233,-0.948,-19.922
1747652416.33,0.027,0.031,0.019,1.112,-0.083,0.102,-75.579,-0.663,-19.631
1747652416.34,0.019,0.049,0.052,1.059,-0.184,0.106,-74.963,-0.502,-19.377
1747652416.35,-0.001,0.057,0.088,1.045,-0.194,0.122,-74.362,-0.354,-19.113
1747652416.36,-0.022,0.062,0.116,1.007,-0.243,0.136,-73.777,-0.211,-18.835
1747652416.37,-0.077,0.040,0.110,0.993,-0.149,0.162,-73.206,-0.042,-18.534
1747652416.38,-0.113,0.001,0.058,0.972,0.040,0.193,-72.644,0.256,-18.192
1747652416.39,-0.117,-0.031,0.079,0.956,0.126,0.193,-72.094,0.643,-17.840
1747652416.40,-0.147,-0.026,0.073,0.939,0.187,0.179,-71.552,1.032,-17.524
1747652416.41,-0.175,0.009,0.042,0.961,0.290,0.147,-71.009,1.410,-17.267
1747652416.42,-0.139,0.044,0.051,1.062,0.313,0.085,-70.432,1.732,-17.113
1747652416.43,-0.076,0.071,0.027,1.183,0.222,0.006,-69.787,1.903,-17.098
1747652416.44,-0.019,0.082,-0.031,1.176,0.076,-0.038,-69.111,1.893,-17.195
1747652416.45,0.035,0.077,-0.057,1.038,0.221,-0.016,-68.473,1.866,-17.301
1747652416.46,0.085,0.041,0.042,0.862,0.464,0.008,-67.937,2.020,-17.354
1747652416.47,0.083,-0.015,0.243,0.837,0.370,0.043,-67.455,2.254,-17.370
1747652416.48,-0.034,-0.059,0.110,0.794,0.232,0.179,-66.984,2.516,-17.267
1747652416.49,-0.082,-0.092,-0.071,0.719,0.228,0.330,-66.546,2.940,-16.944
1747652416.50,-0.022,-0.091,-0.014,0.680,0.260,0.368,-66.137,3.496,-16.493
1747652416.51,0.026,-0.032,0.065,0.701,0.199,0.302,-65.733,4.008,-16.080
1747652416.52,0.101,0.044,0.045,0.756,0.057,0.166,-65.308,4.314,-15.827
1747652416.53,0.178,0.095,-0.032,0.793,-0.189,0.012,-64.864,4.316,-15.786
1747652416.54,0.202,0.114,-0.072,0.905,-0.442,-0.093,-64.385,4.006,-15.929
1747652416.55,0.171,0.096,-0.099,0.963,-0.691,-0.115,-63.851,3.482,-16.152
1747652416.56,0.113,0.051,-0.099,0.941,-0.854,-0.078,-63.311,2.858,-16.346
1747652416.57,0.045,-0.014,-0.057,0.898,-0.536,-0.005,-62.788,2.345,-16.454
1747652416.58,0.039,-0.077,0.033,0.874,0.007,0.080,-62.283,2.204,-16.451
1747652416.59,0.078,-0.129,0.136,0.880,0.076,0.169,-61.780,2.342,-16.343
1747652416.60,0.036,-0.161,-0.024,0.848,-0.093,0.261,-61.280,2.524,-16.127
1747652416.61,-0.031,-0.174,-0.202,0.831,-0.111,0.311,-60.796,2.723,-15.828
1747652416.62,-0.033,-0.177,-0.119,0.864,-0.073,0.260,-60.305,2.924,-15.537
1747652416.63,-0.019,-0.148,-0.069,0.905,-0.110,0.130,-59.794,3.024,-15.366
1747652416.64,-0.037,-0.095,-0.098,0.909,-0.265,0.019,-59.273,2.943,-15.340
1747652416.65,-0.070,-0.037,-0.113,0.912,-0.402,-0.042,-58.755,2.694,-15.404
1747652416.66,-0.075,0.009,-0.132,0.932,-0.372,-0.073,-58.229,2.374,-15.513
1747652416.67,-0.037,0.014,-0.118,0.972,-0.227,-0.099,-57.689,2.086,-15.648
1747652416.68,0.001,-0.018,-0.044,1.015,-0.057,-0.106,-57.123,1.884,-15.792
1747652416.69,0.022,-0.057,-0.012,0.993,0.093,-0.083,-56.548,1.784,-15.926
1747652416.70,0.024,-0.075,0.012,0.931,0.127,-0.015,-55.999,1.784,-16.006
1747652416.71,-0.013,-0.071,0.013,0.893,0.078,0.055,-55.481,1.836,-16.014
1747652416.72,-0.056,-0.040,-0.030,0.881,0.028,0.109,-54.973,1.910,-15.962
1747652416.73,-0.049,0.006,0.001,0.895,-0.045,0.170,-54.466,1.992,-15.856
1747652416.74,0.035,0.032,0.049,0.948,-0.121,0.175,-53.937,2.063,-15.713
1747652416.75,0.128,0.044,0.059,0.978,-0.231,0.125,-53.383,2.055,-15.598
1747652416.76,0.145,0.057,0.049,0.992,-0.278,0.028,-52.818,1.941,-15.556
1747652416.77,0.097,0.064,0.035,0.972,-0.225,-0.054,-52.256,1.758,-15.599
1747652416.78,0.036,0.068,0.072,0.974,-0.098,-0.092,-51.705,1.589,-15.698
1747652416.79,-0.020,0.068,0.117,0.970,-0.084,-0.077,-51.147,1.459,-15.803
1747652416.80,-0.075,0.071,0.079,0.874,-0.109,-0.016,-50.620,1.352,-15.869
1747652416.81,-0.094,0.078,0.051,0.816,-0.112,0.093,-50.140,1.300,-15.854
1747652416.81,-0.042,0.077,0.083,0.823,-0.112,0.150,-49.671,1.309,-15.761
1747652416.82,0.024,0.078,0.083,0.839,-0.171,0.165,-49.196,1.324,-15.636
1747652416.84,0.032,0.077,0.059,0.882,-0.248,0.104,-48.704,1.282,-15.532
1747652416.84,-0.012,0.078,0.025,0.926,-0.302,-0.015,-48.186,1.138,-15.510
1747652416.85,-0.057,0.086,0.004,0.943,-0.231,-0.131,-47.653,0.922,-15.589
1747652416.86,-0.072,0.080,0.037,0.949,-0.046,-0.219,-47.115,0.723,-15.750
1747652416.87,-0.067,0.069,0.091,0.968,0.121,-0.246,-46.568,0.598,-15.956
1747652416.88,-0.074,0.060,0.099,0.921,0.152,-0.208,-46.029,0.537,-16.155
1747652416.89,-0.102,0.051,0.090,0.864,0.168,-0.087,-45.519,0.534,-16.278
1747652416.91,-0.088,0.035,0.045,0.847,0.185,-0.041,-45.032,0.597,-16.339
1747652416.91,-0.012,0.040,0.046,0.892,0.107,-0.005,-44.537,0.665,-16.363
1747652416.93,0.031,0.019,-0.001,0.942,0.029,-0.032,-44.012,0.689,-16.383
1747652416.93,0.046,0.015,-0.029,0.983,-0.041,-0.131,-43.462,0.636,-16.452
1747652416.94,0.025,0.031,0.008,0.972,-0.054,-0.257,-42.902,0.497,-16.613
1747652416.95,-0.022,0.047,0.054,0.961,-0.012,-0.338,-42.355,0.312,-16.852
1747652416.96,-0.043,0.039,0.114,0.961,0.067,-0.303,-41.805,0.160,-17.104
1747652416.97,-0.031,-0.018,0.101,0.940,0.151,-0.259,-41.262,0.076,-17.328
1747652416.98,0.019,-0.087,0.009,0.905,0.173,-0.128,-40.734,0.074,-17.477
1747652416.99,0.096,-0.172,-0.111,0.839,0.095,-0.018,-40.236,0.120,-17.529
1747652417.00,0.161,-0.219,-0.153,0.831,0.017,-0.009,-39.762,0.147,-17.535
1747652417.01,0.197,-0.199,-0.127,0.910,-0.060,-0.102,-39.267,0.110,-17.575
1747652417.02,0.157,-0.125,-0.072,0.996,-0.138,-0.185,-38.720,-0.014,-17.684
1747652417.03,0.064,-0.051,-0.044,1.018,-0.186,-0.181,-38.144,-0.192,-17.816
1747652417.04,0.009,0.006,-0.041,1.033,-0.205,-0.125,-37.560,-0.372,-17.923
1747652417.05,0.053,0.045,-0.022,1.074,-0.142,-0.079,-36.958,-0.513,-17.990
1747652417.06,0.116,0.037,0.037,1.090,-0.116,0.013,-36.338,-0.598,-18.016
1747652417.07,0.158,0.016,0.062,1.107,-0.033,-0.044,-35.711,-0.636,-18.020
1747652417.08,0.158,0.023,0.047,1.087,-0.075,-0.036,-35.082,-0.677,-18.041
1747652417.09,0.106,0.013,0.012,1.036,-0.128,-0.001,-34.477,-0.738,-18.046
1747652417.10,0.025,-0.020,-0.008,1.026,-0.128,0.052,-33.889,-0.798,-18.018
1747652417.11,-0.015,-0.025,0.012,0.999,-0.073,0.092,-33.310,-0.824,-17.957
1747652417.12,0.003,0.001,0.029,0.984,-0.012,0.072,-32.747,-0.810,-17.890
1747652417.13,0.021,0.046,0.053,1.023,0.016,0.015,-32.175,-0.786,-17.850
1747652417.14,-0.004,0.086,0.067,1.062,0.003,-0.018,-31.579,-0.774,-17.843
1747652417.15,-0.043,0.111,0.078,1.084,-0.040,-0.038,-30.965,-0.789,-17.851
1747652417.16,-0.073,0.117,0.070,1.091,-0.088,-0.061,-30.343,-0.838,-17.874
1747652417.17,-0.090,0.102,0.058,1.101,-0.067,-0.099,-29.715,-0.905,-17.915
1747652417.18,-0.067,0.074,0.034,1.092,-0.062,-0.158,-29.089,-0.978,-17.987
1747652417.19,-0.043,0.063,0.025,1.076,-0.044,-0.182,-28.467,-1.055,-18.087
1747652417.20,-0.055,0.035,0.022,1.040,-0.039,-0.133,-27.863,-1.122,-18.179
1747652417.21,-0.060,0.011,0.005,1.037,-0.030,-0.062,-27.269,-1.163,-18.229
1747652417.22,-0.012,0.028,0.011,1.043,-0.018,0.023,-26.675,-1.177,-18.227
1747652417.23,0.071,0.072,0.028,1.040,0.007,0.075,-26.081,-1.159,-18.182
1747652417.24,0.153,0.109,0.038,1.054,-0.019,0.116,-25.485,-1.129,-18.107
1747652417.25,0.144,0.114,0.029,1.094,-0.019,0.133,-24.873,-1.104,-18.015
1747652417.26,0.071,0.098,0.026,1.094,0.020,0.130,-24.248,-1.065,-17.919
1747652417.27,0.001,0.061,0.022,1.074,0.033,0.109,-23.629,-1.012,-17.832
1747652417.28,-0.039,0.028,0.002,1.055,0.019,0.099,-23.023,-0.968,-17.757
1747652417.29,-0.068,-0.004,0.009,1.058,0.030,0.091,-22.422,-0.928,-17.687
1747652417.30,-0.084,-0.028,0.021,1.084,0.045,0.075,-21.810,-0.882,-17.626
1747652417.31,-0.076,-0.031,0.009,1.063,0.032,0.065,-21.196,-0.840,-17.573
1747652417.32,-0.047,-0.008,-0.016,1.053,-0.000,0.048,-20.593,-0.817,-17.530
1747652417.33,-0.002,0.020,-0.018,1.094,-0.015,0.054,-19.982,-0.809,-17.492
1747652417.34,0.041,0.026,0.004,1.125,-0.020,0.078,-19.348,-0.802,-17.441
1747652417.35,0.053,0.019,0.020,1.170,-0.057,0.053,-18.692,-0.807,-17.391
1747652417.36,0.013,-0.001,0.011,1.182,-0.056,0.012,-18.020,-0.832,-17.361
1747652417.37,-0.022,-0.018,0.000,1.184,-0.027,-0.013,-17.344,-0.854,-17.351
1747652417.38,-0.012,0.006,-0.002,1.177,0.035,-0.024,-16.671,-0.853,-17.351
1747652417.39,-0.013,0.029,0.021,1.193,0.051,-0.044,-15.994,-0.829,-17.362
1747652417.40,-0.054,0.028,0.035,1.212,0.046,-0.035,-15.308,-0.805,-17.376
1747652417.41,-0.085,0.018,0.031,1.223,0.055,-0.025,-14.612,-0.779,-17.382
1747652417.42,-0.077,0.029,0.027,1.249,0.107,-0.023,-13.909,-0.732,-17.386
1747652417.43,-0.039,0.052,0.044,1.279,0.152,-0.048,-13.185,-0.663,-17.398
1747652417.44,-0.011,0.037,0.057,1.277,0.190,-0.054,-12.454,-0.568,-17.420
1747652417.45,0.024,0.036,0.050,1.259,0.169,-0.057,-11.731,-0.470,-17.447
1747652417.46,0.049,0.034,0.005,1.241,0.146,-0.042,-11.015,-0.386,-17.471
1747652417.47,0.060,0.039,-0.027,1.222,0.145,-0.023,-10.312,-0.306,-17.486
1747652417.48,0.069,0.056,-0.023,1.201,0.114,0.003,-9.620,-0.234,-17.451
1747652417.49,0.042,0.059,-0.004,1.212,0.128,0.022,-8.933,-0.164,-17.442
1747652417.50,-0.021,0.053,-0.011,1.246,0.171,0.019,-8.231,-0.075,-17.398
1747652417.51,-0.048,0.071,-0.028,1.279,0.196,-0.025,-7.510,0.029,-17.401
1747652417.52,-0.048,0.068,-0.031,1.300,0.223,-0.015,-6.774,0.148,-17.392
1747652417.53,-0.016,0.023,-0.017,1.298,0.217,0.014,-6.031,0.274,-17.397
1747652417.54,0.024,0.041,0.011,1.307,0.172,0.031,-5.288,0.387,-17.388
1747652417.55,0.040,0.080,0.028,1.331,0.131,0.059,-4.532,0.475,-17.368
1747652417.56,0.044,0.091,0.038,1.324,0.077,0.071,-3.774,0.537,-17.338
1747652417.57,0.032,0.077,0.037,1.338,0.080,0.075,-3.013,0.580,-17.303
1747652417.58,0.025,0.064,-0.020,1.378,0.132,0.035,-2.239,0.640,-17.283
1747652417.59,-0.005,0.055,-0.065,1.415,0.241,-0.043,-1.440,0.741,-17.294
1747652417.60,-0.049,0.011,-0.071,1.357,0.307,-0.068,-0.646,0.897,-17.364
1747652417.61,-0.063,-0.048,-0.044,1.338,0.356,-0.061,0.122,1.086,-17.414
1747652417.62,-0.071,-0.050,-0.049,1.299,0.372,-0.045,0.875,1.297,-17.479
1747652417.63,-0.068,-0.033,-0.068,1.284,0.342,0.000,1.611,1.504,-17.510
1747652417.64,-0.013,0.031,-0.040,1.271,0.270,0.010,2.341,1.679,-17.556
1747652417.65,0.037,0.097,0.003,1.287,0.220,-0.014,3.067,1.819,-17.580
1747652417.66,0.049,0.078,0.005,1.315,0.237,-0.028,3.812,1.949,-17.660
1747652417.67,0.054,0.019,0.009,1.287,0.248,-0.034,4.553,2.092,-17.705
1747652417.68,0.058,0.012,0.010,1.290,0.270,-0.020,5.289,2.242,-17.808
1747652417.69,0.028,0.006,-0.034,1.274,0.278,-0.004,6.021,2.404,-17.844
1747652417.70,-0.024,0.066,-0.056,1.241,0.280,0.024,6.737,2.566,-17.935
1747652417.71,-0.079,0.101,-0.088,1.238,0.323,0.052,7.444,2.738,-17.947
1747652417.72,-0.114,0.075,-0.068,1.225,0.371,0.046,8.150,2.938,-18.031
1747652417.73,-0.106,0.049,-0.031,1.221,0.370,0.025,8.846,3.153,-18.048
1747652417.74,-0.067,0.035,0.010,1.250,0.302,0.005,9.552,3.352,-18.130
1747652417.75,-0.023,0.035,0.020,1.229,0.179,-0.016,10.260,3.501,-18.178
1747652417.76,0.026,0.016,-0.025,1.184,0.029,-0.035,10.947,3.570,-18.303
1747652417.77,0.062,-0.016,-0.067,1.155,-0.093,-0.074,11.611,3.565,-18.375
1747652417.78,0.057,-0.004,-0.083,1.151,-0.097,-0.146,12.263,3.522,-18.562
1747652417.79,0.008,0.015,-0.074,1.121,-0.117,-0.165,12.907,3.482,-18.698
1747652417.80,-0.050,0.002,-0.056,1.139,0.017,-0.157,13.546,3.479,-18.919
1747652417.81,-0.097,-0.010,-0.018,1.103,0.194,-0.146,14.180,3.572,-19.048
1747652417.82,-0.139,0.013,0.010,1.153,0.263,-0.119,14.814,3.735,-19.259
1747652417.83,-0.131,0.073,-0.003,1.169,0.286,-0.099,15.477,3.922,-19.368
1747652417.84,-0.082,0.099,-0.005,1.129,0.241,-0.115,16.127,4.106,-19.594
1747652417.85,0.004,0.053,-0.020,1.112,0.095,-0.138,16.760,4.238,-19.718
1747652417.86,0.067,0.017,-0.080,1.074,0.001,-0.165,17.377,4.303,-19.980
1747652417.87,0.074,-0.026,-0.078,1.037,-0.028,-0.207,17.970,4.343,-20.140
1747652417.88,0.043,-0.030,-0.090,1.022,-0.025,-0.193,18.546,4.382,-20.426
1747652417.89,0.017,0.017,-0.112,1.000,-0.009,-0.138,19.114,4.417,-20.573
1747652417.90,0.005,0.059,-0.121,1.007,0.049,-0.088,19.680,4.465,-20.806
1747652417.91,-0.009,0.086,-0.103,0.977,0.098,-0.046,20.245,4.540,-20.895
1747652417.92,0.002,0.059,-0.069,0.913,0.067,-0.032,20.781,4.612,-21.079
1747652417.93,0.041,-0.016,-0.045,0.871,0.006,-0.033,21.287,4.657,-21.145
1747652417.94,0.088,-0.073,-0.035,0.842,-0.065,-0.062,21.774,4.666,-21.331
1747652417.95,0.121,-0.104,-0.002,0.743,-0.115,-0.112,22.222,4.651,-21.424
1747652417.96,0.122,-0.140,-0.018,0.698,-0.173,-0.116,22.624,4.608,-21.649
1747652417.97,0.103,-0.163,-0.073,0.661,-0.147,-0.085,23.008,4.551,-21.745
1747652417.98,0.047,-0.123,-0.063,0.629,-0.075,-0.067,23.370,4.519,-21.935
1747652417.99,0.003,-0.076,-0.052,0.609,-0.048,-0.026,23.722,4.509,-21.995
1747652418.00,0.004,-0.058,-0.078,0.541,-0.040,-0.002,24.049,4.499,-22.139
1747652418.01,0.012,-0.069,-0.057,0.487,-0.041,0.012,24.342,4.486,-22.161
1747652418.02,0.012,-0.069,-0.049,0.441,-0.031,0.040,24.606,4.469,-22.275
1747652418.03,0.016,-0.051,-0.047,0.390,-0.045,0.059,24.845,4.443,-22.262
1747652418.04,0.015,-0.031,-0.039,0.362,-0.043,0.045,25.060,4.409,-22.346
1747652418.05,0.001,-0.008,-0.049,0.331,-0.054,0.015,25.262,4.382,-22.343
1747652418.06,0.030,-0.044,-0.044,0.263,-0.120,-0.001,25.431,4.338,-22.456
1747652418.07,0.052,-0.107,-0.063,0.219,-0.154,-0.016,25.568,4.264,-22.474
1747652418.08,0.031,-0.116,-0.067,0.167,-0.107,-0.024,25.676,4.198,-22.603
1747652418.09,-0.023,-0.101,-0.039,0.119,-0.044,-0.007,25.756,4.165,-22.622
1747652418.10,-0.051,-0.067,-0.025,0.088,-0.027,0.023,25.815,4.147,-22.706
1747652418.11,-0.044,-0.028,-0.043,0.071,-0.038,0.048,25.860,4.121,-22.687
1747652418.12,-0.020,-0.009,-0.070,0.063,-0.070,0.050,25.902,4.077,-22.746
1747652418.13,-0.005,0.011,-0.083,0.045,-0.096,0.050,25.934,4.015,-22.716
1747652418.14,-0.006,-0.007,-0.065,0.016,-0.104,0.052,25.954,3.945,-22.776
1747652418.15,-0.008,-0.043,-0.032,-0.006,-0.066,0.047,25.957,3.880,-22.743
1747652418.16,-0.008,-0.051,0.013,0.028,-0.047,0.042,25.963,3.838,-22.800
1747652418.17,-0.013,-0.035,0.029,0.027,-0.067,0.022,25.984,3.796,-22.779
1747652418.18,-0.015,-0.011,0.005,-0.015,-0.075,0.001,25.989,3.751,-22.852
1747652418.19,0.019,-0.013,-0.029,-0.032,-0.106,0.005,25.973,3.696,-22.932
1747652418.20,0.019,-0.009,-0.069,-0.026,-0.085,0.020,25.957,3.633,-22.922
1747652418.21,-0.041,0.022,-0.064,-0.028,-0.025,0.013,25.940,3.596,-22.983
1747652418.22,-0.079,0.026,-0.025,-0.040,0.023,0.007,25.922,3.592,-22.975
1747652418.23,-0.068,0.004,-0.007,-0.054,0.013,-0.005,25.896,3.603,-23.043
1747652418.24,-0.037,-0.006,0.002,-0.050,-0.013,-0.015,25.869,3.604,-23.047
1747652418.25,-0.015,0.002,0.011,-0.038,-0.035,-0.024,25.847,3.594,-23.120
1747652418.26,-0.003,0.012,0.006,-0.029,-0.045,-0.028,25.828,3.576,-23.136
1747652418.27,-0.007,0.011,-0.008,-0.025,-0.030,-0.027,25.812,3.562,-23.214
1747652418.28,-0.009,0.007,-0.012,0.001,-0.010,-0.025,25.801,3.561,-23.230
1747652418.29,0.003,0.016,-0.009,0.036,-0.026,-0.023,25.805,3.550,-23.303
1747652418.30,-0.001,0.030,-0.009,0.030,-0.007,-0.022,25.819,3.530,-23.311
1747652418.31,-0.004,0.027,0.002,0.041,0.000,-0.016,25.837,3.521,-23.385
1747652418.32,0.005,0.014,0.001,0.073,0.000,0.002,25.871,3.517,-23.387
1747652418.33,0.005,0.024,-0.003,0.077,-0.010,0.017,25.916,3.510,-23.445
1747652418.34,0.015,0.023,0.005,0.069,-0.020,0.021,25.958,3.499,-23.436
1747652418.35,0.029,0.003,0.006,0.085,-0.012,0.026,25.999,3.484,-23.490
1747652418.36,0.033,0.008,-0.006,0.112,-0.022,0.034,26.054,3.467,-23.473
1747652418.37,0.036,0.030,-0.010,0.111,-0.038,0.030,26.116,3.442,-23.525
1747652418.38,0.029,0.035,-0.015,0.113,-0.030,0.030,26.174,3.414,-23.509
1747652418.39,0.013,0.020,-0.023,0.126,-0.006,0.036,26.234,3.395,-23.553
1747652418.40,-0.005,0.019,-0.013,0.135,0.017,0.038,26.304,3.393,-23.536
1747652418.41,-0.019,0.022,-0.003,0.128,0.024,0.042,26.371,3.398,-23.571
1747652418.42,-0.018,0.012,-0.003,0.141,0.015,0.037,26.440,3.406,-23.554
1747652418.43,-0.014,0.009,-0.013,0.168,0.009,0.041,26.528,3.414,-23.600
1747652418.44,-0.004,0.027,-0.029,0.161,-0.007,0.043,26.621,3.418,-23.585
1747652418.45,0.010,0.021,-0.041,0.148,-0.030,0.038,26.697,3.410,-23.635
1747652418.46,0.013,0.004,-0.052,0.148,-0.022,0.030,26.768,3.397,-23.624
1747652418.47,-0.001,0.017,-0.046,0.127,-0.001,0.042,26.837,3.387,-23.676
1747652418.48,-0.022,-0.004,-0.019,0.103,0.026,0.064,26.894,3.379,-23.646
1747652418.49,-0.029,-0.042,0.005,0.088,0.037,0.068,26.941,3.375,-23.663
1747652418.50,-0.018,-0.041,0.010,0.080,0.007,0.066,26.988,3.367,-23.622
1747652418.51,0.011,-0.027,-0.005,0.077,-0.014,0.052,27.030,3.345,-23.642
1747652418.52,0.024,-0.023,-0.008,0.122,-0.020,0.045,27.082,3.324,-23.616
1747652418.53,-0.001,0.000,-0.010,0.121,-0.023,0.039,27.147,3.303,-23.650
1747652418.54,-0.019,0.025,-0.009,0.116,-0.033,0.041,27.209,3.279,-23.629
1747652418.55,-0.018,0.002,-0.025,0.115,-0.012,0.048,27.269,3.252,-23.653
1747652418.56,-0.036,-0.010,-0.022,0.121,0.034,0.046,27.336,3.243,-23.625
1747652418.57,-0.049,-0.003,-0.010,0.106,0.061,0.042,27.410,3.254,-23.649
1747652418.58,-0.040,-0.001,-0.013,0.084,0.047,0.037,27.471,3.273,-23.625
1747652418.59,-0.015,-0.002,-0.025,0.094,0.005,0.032,27.524,3.282,-23.666
1747652418.60,0.003,0.020,-0.039,0.116,-0.025,0.027,27.587,3.272,-23.653
1747652418.61,0.002,0.054,-0.047,0.115,-0.023,0.027,27.651,3.252,-23.695
1747652418.62,-0.001,0.050,-0.043,0.102,-0.003,0.029,27.710,3.234,-23.679
1747652418.63,0.003,0.036,-0.052,0.077,0.015,0.041,27.757,3.226,-23.704
1747652418.64,0.004,0.030,-0.067,0.049,0.014,0.050,27.793,3.215,-23.675
1747652418.65,-0.008,0.017,-0.080,0.057,0.043,0.053,27.821,3.207,-23.682
1747652418.66,-0.020,0.025,-0.059,0.056,0.100,0.037,27.857,3.230,-23.653
1747652418.67,-0.033,0.052,-0.034,0.020,0.120,0.040,27.876,3.282,-23.666
1747652418.68,-0.037,0.029,-0.050,0.029,0.128,0.071,27.888,3.335,-23.631
1747652418.69,-0.035,-0.012,-0.075,-0.016,0.204,0.083,27.890,3.404,-23.626
1747652418.70,-0.019,-0.012,-0.070,-0.071,0.228,0.111,27.863,3.500,-23.564
1747652418.71,0.028,-0.025,-0.089,-0.079,0.265,0.163,27.821,3.595,-23.514
1747652418.72,0.063,-0.063,-0.089,-0.130,0.296,0.187,27.768,3.701,-23.395
1747652418.73,0.094,-0.062,-0.084,-0.206,0.295,0.201,27.676,3.810,-23.307
1747652418.74,0.139,-0.053,-0.101,-0.271,0.241,0.199,27.548,3.897,-23.168
1747652418.75,0.120,-0.096,-0.090,-0.376,0.245,0.207,27.371,3.964,-23.075
1747652418.76,0.038,-0.147,-0.003,-0.466,0.227,0.250,27.139,4.026,-22.909
1747652418.77,0.007,-0.155,-0.009,-0.538,0.152,0.281,26.864,4.045,-22.762
1747652418.78,0.007,-0.134,-0.093,-0.627,0.128,0.253,26.543,4.032,-22.564
1747652418.79,-0.016,-0.103,-0.128,-0.698,0.125,0.226,26.174,4.028,-22.424
1747652418.80,-0.048,-0.111,-0.102,-0.788,0.076,0.209,25.763,4.010,-22.254
1747652418.81,-0.080,-0.153,-0.097,-0.871,0.069,0.187,25.296,3.980,-22.124
1747652418.82,-0.075,-0.204,-0.073,-0.960,0.072,0.158,24.784,3.958,-21.977
1747652418.83,-0.054,-0.187,-0.065,-1.071,0.061,0.149,24.210,3.939,-21.866
1747652418.84,-0.033,-0.138,-0.079,-1.159,0.047,0.168,23.580,3.911,-21.721
1747652418.85,-0.015,-0.113,-0.099,-1.221,0.053,0.214,22.909,3.872,-21.574
1747652418.86,0.001,-0.085,-0.106,-1.251,0.081,0.238,22.212,3.836,-21.382
1747652418.87,0.017,-0.050,-0.122,-1.318,0.115,0.235,21.492,3.819,-21.198
1747652418.88,0.034,-0.046,-0.121,-1.377,0.097,0.219,20.729,3.813,-21.004
1747652418.89,0.060,-0.082,-0.138,-1.410,0.039,0.207,19.946,3.787,-20.822
1747652418.90,0.060,-0.084,-0.149,-1.457,-0.012,0.206,19.132,3.733,-20.640
1747652418.91,0.039,-0.076,-0.125,-1.451,-0.005,0.227,18.314,3.664,-20.443
1747652418.92,-0.007,-0.081,-0.110,-1.501,0.085,0.232,17.481,3.626,-20.247
1747652418.93,-0.030,-0.038,-0.050,-1.506,0.112,0.217,16.631,3.630,-20.037
1747652418.94,-0.029,0.016,-0.047,-1.513,0.117,0.207,15.778,3.642,-19.854
1747652418.95,-0.039,0.042,-0.021,-1.518,0.135,0.194,14.922,3.668,-19.636
1747652418.96,-0.031,0.039,-0.018,-1.545,0.098,0.179,14.055,3.695,-19.468
1747652418.97,-0.019,0.013,-0.078,-1.554,0.064,0.165,13.177,3.703,-19.256
1747652418.98,-0.033,-0.001,-0.107,-1.588,0.080,0.134,12.290,3.709,-19.108
1747652418.99,-0.065,-0.007,-0.099,-1.618,0.134,0.080,11.377,3.745,-18.935
1747652419.00,-0.095,-0.037,-0.058,-1.632,0.118,0.030,10.456,3.802,-18.842
1747652419.01,-0.132,-0.064,-0.050,-1.669,0.094,-0.016,9.514,3.848,-18.711
1747652419.02,-0.158,-0.070,-0.047,-1.668,0.105,-0.054,8.563,3.898,-18.666
1747652419.03,-0.143,-0.064,-0.024,-1.677,0.113,-0.074,7.607,3.959,-18.549
1747652419.04,-0.093,-0.039,0.004,-1.691,0.069,-0.095,6.645,4.009,-18.528
1747652419.05,-0.040,-0.016,-0.011,-1.689,0.011,-0.126,5.676,4.029,-18.426
1747652419.06,-0.011,-0.007,-0.011,-1.683,-0.013,-0.155,4.711,4.030,-18.438
1747652419.07,-0.002,-0.015,0.007,-1.654,0.007,-0.181,3.752,4.027,-18.352
1747652419.08,-0.017,-0.025,0.017,-1.621,0.048,-0.232,2.813,4.047,-18.403
1747652419.09,-0.033,-0.027,0.011,-1.641,0.032,-0.264,1.874,4.075,-18.355
1747652419.10,-0.041,-0.042,0.016,-1.659,0.025,-0.239,0.924,4.093,-18.347
1747652419.11,-0.020,-0.074,0.020,-1.693,0.038,-0.203,-0.040,4.112,-18.404
1747652419.12,0.007,-0.096,-0.004,-1.685,0.038,-0.193,-1.011,4.133,-18.336
1747652419.13,0.014,-0.108,-0.016,-1.692,0.081,-0.195,-1.981,4.165,-18.377
1747652419.14,0.037,-0.104,0.006,-1.688,0.094,-0.204,-2.953,4.214,-18.302
1747652419.15,0.064,-0.078,0.023,-1.677,0.068,-0.220,-3.921,4.259,-18.351
1747652419.16,0.042,-0.039,0.042,-1.618,0.057,-0.216,-4.868,4.290,-18.406
1747652419.17,0.014,-0.001,0.055,-1.614,0.052,-0.186,-5.796,4.316,-18.454
1747652419.18,0.027,0.020,0.044,-1.629,0.040,-0.118,-6.726,4.341,-18.471
1747652419.19,0.058,0.021,0.012,-1.637,0.015,-0.041,-7.660,4.361,-18.445
1747652419.20,0.085,0.009,-0.014,-1.605,-0.013,0.004,-8.584,4.367,-18.383
1747652419.21,0.088,-0.007,0.017,-1.554,0.069,-0.000,-9.484,4.391,-18.309
1747652419.22,0.069,-0.017,0.083,-1.531,0.155,-0.061,-10.363,4.471,-18.257
1747652419.23,0.014,-0.005,0.074,-1.516,0.100,-0.092,-11.233,4.551,-18.233
1747652419.24,-0.072,0.015,0.016,-1.543,0.127,-0.082,-12.106,4.614,-18.213
1747652419.25,-0.098,0.029,0.006,-1.586,0.251,-0.030,-13.000,4.731,-18.171
1747652419.26,-0.033,0.028,-0.005,-1.643,0.283,0.060,-13.917,4.910,-18.083
1747652419.27,0.057,0.003,-0.047,-1.649,0.233,0.133,-14.851,5.092,-17.939
1747652419.28,0.129,-0.040,-0.078,-1.644,0.190,0.141,-15.781,5.259,-17.767
1747652419.29,0.179,-0.092,-0.053,-1.652,0.115,0.102,-16.710,5.394,-17.603
1747652419.30,0.187,-0.149,-0.040,-1.685,0.003,0.049,-17.654,5.468,-17.464
1747652419.31,0.147,-0.198,-0.019,-1.700,-0.105,0.009,-18.615,5.474,-17.351
1747652419.32,0.086,-0.231,0.011,-1.717,-0.200,-0.009,-19.586,5.418,-17.253
1747652419.33,0.024,-0.240,0.014,-1.739,-0.212,-0.010,-20.568,5.329,-17.160
1747652419.34,-0.017,-0.221,0.027,-1.806,-0.159,-0.004,-21.577,5.255,-17.065
1747652419.35,-0.041,-0.182,0.063,-1.783,-0.093,0.012,-22.602,5.222,-16.961
1747652419.36,-0.069,-0.133,0.091,-1.721,-0.066,0.011,-23.596,5.219,-16.855
1747652419.37,-0.086,-0.076,0.030,-1.682,-0.047,-0.018,-24.563,5.226,-16.759
1747652419.38,-0.076,-0.024,-0.044,-1.652,-0.031,-0.070,-25.513,5.233,-16.690
1747652419.39,-0.046,0.002,-0.040,-1.652,0.008,-0.137,-26.457,5.239,-16.659
1747652419.40,-0.012,-0.001,-0.011,-1.653,-0.010,-0.207,-27.406,5.235,-16.672
1747652419.41,-0.005,-0.024,0.027,-1.620,-0.034,-0.254,-28.348,5.196,-16.726
1747652419.42,-0.006,-0.053,0.034,-1.625,-0.041,-0.258,-29.283,5.141,-16.799
1747652419.43,0.013,-0.079,0.043,-1.651,-0.063,-0.226,-30.227,5.078,-16.863
1747652419.44,0.036,-0.098,0.003,-1.689,-0.062,-0.168,-31.187,5.022,-16.898
1747652419.45,0.065,-0.102,-0.030,-1.715,-0.046,-0.116,-32.163,4.994,-16.892
1747652419.46,0.089,-0.089,-0.011,-1.712,-0.039,-0.080,-33.143,4.990,-16.855
1747652419.47,0.092,-0.063,0.011,-1.699,-0.038,-0.069,-34.118,4.997,-16.803
1747652419.48,0.079,-0.027,0.017,-1.656,-0.071,-0.076,-35.077,4.995,-16.752
1747652419.49,0.043,0.008,0.005,-1.630,-0.122,-0.084,-36.014,4.966,-16.709
1747652419.50,0.009,0.031,-0.042,-1.649,-0.162,-0.078,-36.951,4.909,-16.667
1747652419.51,0.006,0.038,-0.080,-1.658,-0.129,-0.056,-37.895,4.856,-16.614
1747652419.52,0.025,0.025,-0.022,-1.671,-0.056,-0.046,-38.845,4.843,-16.548
1747652419.53,0.036,0.000,0.082,-1.633,0.019,-0.047,-39.789,4.878,-16.480
1747652419.54,0.036,-0.023,0.067,-1.612,0.032,-0.051,-40.713,4.938,-16.414
1747652419.55,0.022,-0.041,0.010,-1.649,0.007,-0.037,-41.642,4.999,-16.340
1747652419.56,0.006,-0.057,-0.017,-1.711,-0.041,-0.012,-42.597,5.052,-16.245
1747652419.57,0.000,-0.069,-0.047,-1.783,-0.075,0.017,-43.591,5.103,-16.121
1747652419.58,0.000,-0.072,-0.047,-1.825,-0.067,0.027,-44.617,5.164,-15.973
1747652419.59,-0.001,-0.059,-0.013,-1.840,-0.025,0.006,-45.660,5.244,-15.824
1747652419.60,-0.012,-0.031,0.025,-1.829,0.017,-0.023,-46.704,5.338,-15.691
1747652419.61,-0.023,0.001,0.031,-1.825,0.058,-0.040,-47.745,5.444,-15.574
1747652419.62,-0.018,0.028,0.038,-1.814,0.109,-0.030,-48.781,5.582,-15.455
1747652419.63,0.006,0.046,0.046,-1.816,0.096,-0.009,-49.813,5.748,-15.314
1747652419.64,0.034,0.058,0.024,-1.815,0.053,0.011,-50.845,5.920,-15.147
1747652419.65,0.062,0.059,0.016,-1.782,-0.003,0.029,-51.867,6.083,-14.957
1747652419.66,0.089,0.053,0.052,-1.705,-0.043,0.033,-52.855,6.233,-14.751
1747652419.67,0.100,0.042,0.064,-1.650,-0.080,0.008,-53.804,6.355,-14.556
1747652419.68,0.078,0.039,0.039,-1.646,-0.136,-0.045,-54.740,6.425,-14.393
1747652419.69,0.034,0.043,0.015,-1.664,-0.168,-0.102,-55.684,6.428,-14.281
1747652419.70,-0.015,0.046,0.053,-1.656,-0.134,-0.135,-56.636,6.395,-14.214
1747652419.71,-0.047,0.040,0.092,-1.610,-0.069,-0.138,-57.572,6.378,-14.167
1747652419.72,-0.059,0.033,0.081,-1.598,-0.073,-0.123,-58.488,6.383,-14.117
1747652419.73,-0.067,0.022,0.070,-1.622,-0.107,-0.092,-59.409,6.400,-14.038
1747652419.74,-0.054,0.007,0.063,-1.628,-0.102,-0.060,-60.336,6.442,-13.918
1747652419.75,-0.006,-0.007,0.040,-1.638,-0.063,-0.049,-61.265,6.528,-13.765
1747652419.76,0.054,-0.016,0.050,-1.617,-0.048,-0.073,-62.195,6.634,-13.610
1747652419.77,0.080,-0.013,0.061,-1.548,-0.069,-0.132,-63.099,6.693,-13.507
1747652419.78,0.062,0.007,0.028,-1.551,-0.067,-0.190,-63.984,6.672,-13.483
1747652419.79,0.035,0.016,0.012,-1.589,-0.034,-0.246,-64.891,6.606,-13.526
1747652419.80,-0.006,0.016,0.063,-1.557,-0.031,-0.300,-65.803,6.470,-13.655
1747652419.81,-0.075,0.014,0.037,-1.490,-0.021,-0.312,-66.688,6.276,-13.851
1747652419.82,-0.115,-0.019,0.049,-1.442,0.043,-0.280,-67.538,6.093,-14.054
1747652419.83,-0.116,-0.046,0.018,-1.442,0.168,-0.217,-68.369,6.017,-14.202
1747652419.84,-0.086,-0.071,-0.037,-1.478,0.229,-0.177,-69.211,6.076,-14.264
1747652419.85,-0.040,-0.094,-0.059,-1.431,0.186,-0.168,-70.051,6.176,-14.288
1747652419.86,-0.010,-0.088,-0.059,-1.337,0.099,-0.183,-70.846,6.216,-14.330
1747652419.87,0.008,-0.051,-0.073,-1.299,0.127,-0.210,-71.605,6.187,-14.424
1747652419.88,0.016,-0.025,-0.026,-1.300,0.246,-0.238,-72.355,6.151,-14.572
1747652419.89,0.029,-0.012,0.067,-1.291,0.359,-0.285,-73.108,6.103,-14.804
1747652419.90,0.006,0.024,0.120,-1.294,0.472,-0.291,-73.858,6.045,-15.111
1747652419.91,-0.024,0.025,0.096,-1.339,0.581,-0.245,-74.623,6.087,-15.383
1747652419.92,-0.038,0.012,0.094,-1.310,0.518,-0.216,-75.393,6.232,-15.566
1747652419.93,-0.061,0.008,0.043,-1.255,0.354,-0.207,-76.131,6.322,-15.728
1747652419.94,-0.071,-0.004,-0.039,-1.270,0.303,-0.203,-76.860,6.348,-15.890
1747652419.95,-0.014,-0.048,-0.012,-1.231,0.322,-0.205,-77.587,6.374,-16.047
1747652419.96,0.063,-0.072,0.002,-1.122,0.292,-0.229,-78.267,6.321,-16.280
1747652419.97,0.093,-0.070,-0.066,-1.089,0.315,-0.230,-78.905,6.185,-16.596
1747652419.98,0.098,-0.066,-0.051,-1.074,0.298,-0.222,-79.533,6.040,-16.926
1747652419.98,0.068,-0.070,0.000,-0.996,0.157,-0.267,-80.139,5.757,-17.350
1747652419.99,-0.024,0.007,-0.042,-0.912,0.119,-0.367,-80.697,5.067,-18.121
1747652420.00,-0.141,0.057,-0.074,-0.944,0.315,-0.446,-81.239,3.983,-19.339
1747652420.01,-0.192,0.030,0.011,-1.058,0.543,-0.481,-81.825,2.669,-20.917
1747652420.02,-0.185,-0.009,0.039,-1.109,0.674,-0.482,-82.456,1.170,-22.784
1747652420.03,-0.179,-0.046,0.073,-1.090,0.726,-0.444,-83.087,-0.495,-24.867
1747652420.04,-0.179,-0.050,0.060,-1.027,0.738,-0.378,-83.688,-2.235,-27.040
1747652420.05,-0.148,-0.022,-0.015,-0.933,0.734,-0.299,-84.237,-3.928,-29.166
1747652420.06,-0.062,-0.005,-0.056,-0.839,0.740,-0.230,-84.729,-5.490,-31.156
1747652420.07,0.045,0.007,-0.070,-0.739,0.832,-0.184,-85.163,-6.920,-33.043
1747652420.08,0.135,0.018,-0.104,-0.713,0.883,-0.123,-85.559,-8.167,-34.789
1747652420.09,0.189,0.013,-0.132,-0.685,0.743,-0.068,-85.948,-9.221,-36.320
1747652420.11,0.187,-0.016,-0.169,-0.678,0.422,-0.023,-86.325,-10.216,-37.652
1747652420.11,0.166,-0.041,-0.243,-0.660,0.218,-0.001,-86.701,-11.298,-38.911
1747652420.12,0.173,-0.052,-0.228,-0.573,0.198,-0.016,-87.047,-12.602,-40.333
1747652420.13,0.183,-0.046,-0.161,-0.426,0.171,-0.064,-87.320,-14.297,-42.137
1747652420.14,0.150,-0.020,-0.103,-0.329,0.099,-0.108,-87.510,-16.550,-44.472
1747652420.15,0.073,0.014,-0.083,-0.309,-0.029,-0.108,-87.663,-19.251,-47.196
1747652420.16,-0.003,0.026,-0.056,-0.305,-0.141,-0.105,-87.804,-22.296,-50.191
1747652420.17,-0.066,0.024,-0.034,-0.338,-0.141,-0.095,-87.948,-25.796,-53.607
1747652420.18,-0.102,0.001,0.002,-0.386,-0.042,-0.068,-88.109,-29.893,-57.654
1747652420.19,-0.104,-0.034,0.009,-0.396,0.075,-0.028,-88.287,-34.465,-62.237
1747652420.20,-0.096,-0.060,-0.002,-0.394,0.162,0.011,-88.463,-39.277,-67.118
1747652420.21,-0.092,-0.054,-0.058,-0.378,0.265,0.036,-88.637,-44.622,-72.587
1747652420.22,-0.067,-0.034,-0.072,-0.317,0.295,0.024,-88.786,-50.438,-78.569
1747652420.23,-0.034,-0.002,-0.060,-0.237,0.203,-0.015,-88.883,-56.410,-84.689
1747652420.24,-0.019,0.042,-0.050,-0.176,0.029,-0.075,-88.921,-62.327,-90.676
1747652420.25,-0.052,0.074,-0.072,-0.108,-0.128,-0.143,-88.899,-67.580,-95.899
1747652420.26,-0.111,0.098,-0.117,-0.081,-0.145,-0.173,-88.830,-71.735,-99.971
1747652420.27,-0.150,0.065,-0.094,-0.079,-0.058,-0.159,-88.751,-75.177,-103.355
1747652420.28,-0.153,0.021,-0.001,-0.073,0.079,-0.121,-88.683,-77.892,-106.075
1747652420.29,-0.136,-0.008,0.036,-0.051,0.229,-0.095,-88.630,-79.753,-108.027
1747652420.30,-0.105,-0.018,0.029,-0.046,0.282,-0.069,-88.587,-80.989,-109.413
1747652420.31,-0.071,-0.028,0.040,-0.050,0.265,-0.025,-88.565,-82.092,-110.673
1747652420.32,-0.035,-0.034,0.043,-0.026,0.250,-0.012,-88.560,-82.847,-111.574
1747652420.33,-0.012,-0.017,0.032,-0.004,0.253,-0.025,-88.552,-83.065,-111.936
1747652420.34,0.003,0.018,0.045,-0.047,0.282,-0.032,-88.537,-83.444,-112.467
1747652420.35,0.026,0.046,0.085,-0.122,0.315,-0.013,-88.528,-85.216,-114.410
1747652420.36,0.053,0.042,0.161,-0.137,0.274,0.000,-88.530,-88.058,-117.425
1747652420.37,0.064,0.019,0.159,-0.129,0.171,-0.009,-88.530,-90.869,-120.365
1747652420.38,0.053,0.005,0.100,-0.154,0.027,-0.038,-88.514,-93.906,-123.462
1747652420.39,0.035,-0.015,0.065,-0.145,-0.138,-0.075,-88.472,-97.160,-126.686
1747652420.40,0.015,-0.036,0.062,-0.104,-0.265,-0.110,-88.407,-99.625,-129.033
1747652420.41,-0.007,-0.036,0.034,-0.097,-0.284,-0.136,-88.327,-101.265,-130.513
1747652420.42,-0.026,-0.020,0.010,-0.111,-0.183,-0.131,-88.239,-102.839,-131.950
1747652420.43,-0.034,-0.005,-0.007,-0.096,-0.084,-0.088,-88.163,-104.386,-133.425
1747652420.44,-0.037,-0.003,-0.019,-0.080,-0.061,-0.038,-88.117,-105.804,-134.803
1747652420.45,-0.038,-0.013,-0.039,-0.115,-0.052,-0.002,-88.091,-107.578,-136.546
1747652420.46,-0.014,-0.031,-0.048,-0.094,-0.100,0.027,-88.078,-109.613,-138.542
1747652420.47,0.031,-0.040,-0.063,0.008,-0.185,0.058,-88.093,-110.718,-139.565
1747652420.48,0.048,-0.028,-0.111,0.073,-0.232,0.071,-88.138,-110.549,-139.275
1747652420.49,0.048,-0.001,-0.112,0.082,-0.234,0.047,-88.186,-109.763,-138.355
1747652420.50,0.032,0.036,-0.094,0.084,-0.178,-0.015,-88.209,-108.519,-136.991
1747652420.51,0.003,0.068,-0.099,0.086,-0.116,-0.048,-88.204,-106.916,-135.306
1747652420.52,-0.027,0.066,-0.084,0.077,-0.082,-0.033,-88.192,-105.329,-133.661
1747652420.53,-0.045,0.033,-0.056,0.060,0.000,-0.010,-88.190,-104.045,-132.350
1747652420.54,-0.054,0.002,-0.013,0.047,0.138,0.004,-88.194,-102.944,-131.288
1747652420.55,-0.051,-0.006,0.051,0.011,0.218,0.025,-88.207,-102.294,-130.743
1747652420.56,-0.040,-0.007,0.107,-0.028,0.227,0.037,-88.227,-102.326,-130.903
1747652420.57,-0.034,-0.014,0.095,-0.042,0.225,0.036,-88.245,-102.915,-131.621
1747652420.58,-0.028,-0.028,0.063,-0.034,0.234,0.020,-88.257,-103.531,-132.369
1747652420.59,-0.009,-0.047,0.074,-0.012,0.204,-0.004,-88.260,-103.822,-132.787
1747652420.60,0.010,-0.044,0.070,0.028,0.106,-0.038,-88.249,-103.413,-132.468
1747652420.61,0.011,-0.013,0.017,0.040,0.028,-0.060,-88.226,-102.471,-131.561
1747652420.62,0.002,0.025,-0.033,0.016,0.006,-0.062,-88.193,-101.691,-130.790
1747652420.63,0.004,0.053,-0.051,-0.001,-0.021,-0.045,-88.161,-101.397,-130.491
1747652420.64,0.003,0.056,-0.039,-0.005,-0.031,0.007,-88.148,-101.457,-130.535
1747652420.65,0.003,0.030,-0.006,0.005,0.011,0.039,-88.161,-101.617,-130.689
1747652420.66,-0.001,0.001,0.017,0.011,0.061,0.025,-88.179,-101.625,-130.719
1747652420.67,-0.017,-0.011,0.031,0.020,0.046,0.006,-88.189,-101.499,-130.626
1747652420.68,-0.036,-0.019,0.057,0.041,-0.017,-0.013,-88.191,-101.048,-130.183
1747652420.69,-0.051,-0.017,0.068,0.043,-0.059,-0.025,-88.185,-100.257,-129.370
1747652420.70,-0.054,-0.009,0.069,0.025,-0.102,-0.024,-88.174,-99.551,-128.617
1747652420.71,-0.043,-0.010,0.067,0.017,-0.148,-0.020,-88.165,-99.146,-128.140
1747652420.72,-0.026,-0.018,0.051,0.046,-0.189,-0.016,-88.159,-98.583,-127.479
1747652420.73,0.000,-0.020,0.032,0.072,-0.221,-0.019,-88.155,-97.624,-126.401
1747652420.74,0.018,-0.013,0.016,0.083,-0.231,-0.023,-88.148,-96.391,-125.038
1747652420.75,0.020,-0.003,0.007,0.085,-0.222,-0.012,-88.141,-95.076,-123.593
1747652420.76,0.012,0.004,0.007,0.089,-0.231,0.010,-88.140,-93.854,-122.242
1747652420.77,-0.002,0.015,0.008,0.089,-0.229,0.041,-88.151,-92.658,-120.911
1747652420.78,-0.014,0.019,-0.001,0.079,-0.166,0.062,-88.176,-91.591,-119.729
1747652420.79,-0.006,0.003,-0.000,0.085,-0.099,0.062,-88.206,-90.545,-118.608
1747652420.80,0.006,-0.011,-0.003,0.100,-0.045,0.060,-88.235,-89.211,-117.232
1747652420.81,0.005,-0.019,-0.003,0.120,-0.029,0.067,-88.270,-87.345,-115.345
1747652420.82,-0.008,-0.015,-0.000,0.132,-0.048,0.070,-88.307,-84.974,-112.951
1747652420.83,-0.038,-0.001,-0.006,0.156,-0.068,0.068,-88.341,-82.152,-110.094
1747652420.84,-0.068,0.009,-0.012,0.200,-0.061,0.056,-88.360,-78.598,-106.501
1747652420.85,-0.077,0.018,-0.019,0.232,-0.027,0.058,-88.362,-74.204,-102.079
1747652420.86,-0.062,0.022,-0.019,0.229,-0.006,0.079,-88.355,-69.534,-97.398
1747652420.87,-0.028,0.015,-0.006,0.252,-0.041,0.102,-88.347,-64.576,-92.426
1747652420.88,-0.010,0.003,-0.004,0.282,-0.089,0.124,-88.333,-58.954,-86.764
1747652420.89,-0.012,-0.011,0.003,0.304,-0.104,0.137,-88.301,-52.916,-80.669
1747652420.90,-0.020,-0.021,0.027,0.327,-0.129,0.144,-88.245,-46.867,-74.551
1747652420.91,-0.032,-0.027,0.031,0.370,-0.182,0.159,-88.157,-40.888,-68.480
1747652420.92,-0.045,-0.026,0.028,0.418,-0.221,0.163,-88.026,-35.122,-62.595
1747652420.93,-0.057,-0.012,0.014,0.453,-0.247,0.151,-87.853,-29.896,-57.230
1747652420.94,-0.067,0.006,0.010,0.514,-0.277,0.136,-87.646,-24.976,-52.158
1747652420.95,-0.071,0.020,-0.004,0.579,-0.337,0.116,-87.385,-20.824,-47.827
1747652420.96,-0.067,0.025,-0.044,0.605,-0.366,0.108,-87.085,-17.485,-44.282
1747652420.97,-0.046,0.020,-0.054,0.611,-0.376,0.124,-86.770,-14.719,-41.301
1747652420.98,-0.006,0.005,-0.009,0.656,-0.453,0.148,-86.438,-12.261,-38.603
1747652420.99,0.023,-0.005,0.008,0.716,-0.536,0.168,-86.069,-10.018,-36.073
1747652421.00,0.030,-0.009,0.004,0.720,-0.612,0.184,-85.679,-8.072,-33.791
1747652421.01,0.034,-0.014,0.028,0.740,-0.652,0.199,-85.280,-6.393,-31.743
1747652421.02,0.029,-0.010,0.030,0.775,-0.664,0.207,-84.860,-4.936,-29.903
1747652421.03,0.009,0.003,0.025,0.837,-0.667,0.196,-84.412,-3.714,-28.294
1747652421.04,-0.025,0.013,0.019,0.892,-0.664,0.161,-83.922,-2.816,-27.010
1747652421.05,-0.055,0.015,-0.007,0.870,-0.637,0.126,-83.421,-2.247,-26.061
1747652421.06,-0.069,0.009,-0.002,0.793,-0.502,0.099,-82.947,-1.897,-25.379
1747652421.07,-0.068,0.007,0.037,0.741,-0.369,0.098,-82.514,-1.605,-24.836
1747652421.08,-0.058,0.014,0.095,0.772,-0.305,0.106,-82.084,-1.283,-24.320
1747652421.09,-0.065,0.024,0.072,0.816,-0.283,0.120,-81.632,-0.938,-23.801
1747652421.10,-0.085,0.024,0.031,0.873,-0.237,0.143,-81.151,-0.556,-23.262
1747652421.11,-0.080,0.015,0.013,0.958,-0.135,0.169,-80.628,-0.091,-22.680
1747652421.12,-0.056,0.006,-0.004,1.044,-0.010,0.190,-80.058,0.463,-22.075
1747652421.13,-0.035,-0.003,0.006,1.119,0.079,0.189,-79.436,1.045,-21.506
1747652421.14,-0.028,-0.012,-0.006,1.096,0.135,0.168,-78.798,1.563,-21.040
1747652421.15,-0.029,-0.016,-0.006,1.018,0.247,0.160,-78.189,2.031,-20.672
1747652421.16,-0.023,-0.023,0.064,0.927,0.388,0.182,-77.632,2.559,-20.317
1747652421.17,-0.027,-0.023,0.122,0.881,0.476,0.220,-77.112,3.203,-19.915
1747652421.18,-0.054,-0.009,0.112,0.845,0.460,0.270,-76.612,3.940,-19.436
1747652421.19,-0.052,-0.005,0.072,0.817,0.396,0.297,-76.128,4.712,-18.892
1747652421.20,0.008,-0.018,0.026,0.831,0.317,0.274,-75.645,5.402,-18.394
1747652421.21,0.103,-0.022,-0.011,0.896,0.153,0.233,-75.144,5.906,-18.014
1747652421.22,0.194,-0.014,-0.034,1.070,-0.043,0.178,-74.575,6.158,-17.788
1747652421.23,0.227,0.005,-0.092,1.145,-0.259,0.119,-73.931,6.125,-17.732
1747652421.24,0.188,0.022,-0.089,1.121,-0.404,0.086,-73.280,5.891,-17.772
1747652421.25,0.104,0.009,0.003,1.083,-0.345,0.091,-72.647,5.620,-17.824
1747652421.26,0.019,-0.018,0.046,1.004,-0.145,0.141,-72.047,5.500,-17.801
1747652421.27,-0.032,-0.043,0.064,0.924,0.080,0.193,-71.490,5.611,-17.666
1747652421.28,-0.087,-0.051,0.085,0.853,0.243,0.227,-70.974,5.910,-17.453
1747652421.29,-0.145,-0.043,0.111,0.824,0.239,0.270,-70.483,6.311,-17.178
1747652421.30,-0.166,-0.026,0.044,0.814,0.241,0.309,-70.001,6.760,-16.845
1747652421.31,-0.115,0.002,-0.003,0.854,0.268,0.263,-69.510,7.201,-16.531
1747652421.32,-0.015,0.032,0.008,0.968,0.150,0.124,-68.981,7.451,-16.400
1747652421.33,0.034,0.053,-0.057,1.064,-0.127,-0.017,-68.398,7.341,-16.528
1747652421.34,0.027,0.057,-0.150,1.074,-0.288,-0.103,-67.796,6.935,-16.827
1747652421.35,0.022,0.042,-0.112,1.071,-0.216,-0.153,-67.195,6.433,-17.209
1747652421.36,0.027,0.024,-0.002,0.972,-0.038,-0.120,-66.620,6.020,-17.577
1747652421.37,0.015,-0.004,0.039,0.892,0.139,-0.034,-66.099,5.822,-17.825
1747652421.38,-0.039,-0.042,0.057,0.816,0.230,0.056,-65.611,5.834,-17.931
1747652421.39,-0.098,-0.060,0.066,0.753,0.264,0.131,-65.165,5.994,-17.912
1747652421.40,-0.123,-0.061,0.062,0.789,0.240,0.198,-64.718,6.243,-17.799
1747652421.41,-0.085,-0.054,-0.039,0.809,0.161,0.201,-64.251,6.496,-17.647
1747652421.42,0.006,-0.046,-0.081,0.838,0.047,0.140,-63.775,6.650,-17.543
1747652421.43,0.084,-0.033,-0.067,0.917,-0.123,0.024,-63.273,6.607,-17.567
1747652421.44,0.128,-0.014,-0.061,1.037,-0.267,-0.088,-62.720,6.331,-17.748
1747652421.45,0.121,0.004,-0.070,1.091,-0.267,-0.149,-62.121,5.912,-18.040
1747652421.46,0.094,0.012,-0.050,1.066,-0.088,-0.119,-61.514,5.544,-18.339
1747652421.47,0.079,-0.003,0.036,1.032,0.083,-0.013,-60.923,5.375,-18.535
1747652421.48,0.045,-0.017,0.108,0.994,0.070,0.089,-60.342,5.369,-18.600
1747652421.49,-0.025,-0.010,0.073,0.929,0.009,0.174,-59.790,5.430,-18.551
1747652421.50,-0.048,-0.010,-0.003,0.956,-0.026,0.189,-59.246,5.522,-18.441
1747652421.51,-0.010,-0.018,-0.011,1.015,-0.195,0.126,-58.677,5.526,-18.368
1747652421.52,0.011,-0.012,-0.031,1.082,-0.410,0.021,-58.075,5.328,-18.397
1747652421.53,0.026,-0.004,-0.075,1.106,-0.558,-0.092,-57.453,4.926,-18.538
1747652421.54,0.026,0.009,-0.079,1.129,-0.535,-0.195,-56.824,4.398,-18.787
1747652421.55,-0.008,0.025,-0.030,1.079,-0.345,-0.252,-56.200,3.878,-19.105
1747652421.56,-0.063,0.042,0.036,0.993,-0.063,-0.235,-55.620,3.493,-19.426
1747652421.57,-0.113,0.042,0.103,0.946,0.277,-0.150,-55.074,3.344,-19.681
1747652421.58,-0.114,0.030,0.158,0.864,0.445,0.006,-54.559,3.458,-19.809
1747652421.59,-0.080,0.012,0.188,0.835,0.327,0.179,-54.075,3.715,-19.770
1747652421.60,-0.020,-0.012,0.053,0.875,0.223,0.275,-53.579,4.007,-19.598
1747652421.61,0.066,-0.006,-0.029,0.927,0.149,0.295,-53.053,4.288,-19.381
1747652421.62,0.123,0.019,0.011,0.970,0.018,0.211,-52.502,4.475,-19.209
1747652421.63,0.116,0.049,-0.000,1.004,-0.132,0.074,-51.933,4.491,-19.148
1747652421.64,0.066,0.090,0.009,1.022,-0.289,-0.071,-51.355,4.314,-19.219
1747652421.65,-0.003,0.129,0.002,1.021,-0.366,-0.171,-50.778,3.980,-19.400
1747652421.66,-0.045,0.144,0.013,0.990,-0.283,-0.176,-50.210,3.618,-19.620
1747652421.67,-0.013,0.116,0.077,0.924,-0.062,-0.104,-49.668,3.380,-19.799
1747652421.68,0.089,0.056,0.116,0.885,0.026,0.014,-49.156,3.314,-19.886
1747652421.69,0.171,-0.010,0.103,0.868,-0.102,0.158,-48.653,3.317,-19.856
1747652421.70,0.193,-0.064,-0.004,0.844,-0.183,0.266,-48.158,3.341,-19.712
1747652421.71,0.176,-0.090,-0.034,0.873,-0.256,0.307,-47.661,3.369,-19.506
1747652421.72,0.097,-0.089,-0.019,0.910,-0.294,0.302,-47.141,3.367,-19.292
1747652421.73,-0.015,-0.063,-0.045,0.916,-0.285,0.240,-46.610,3.336,-19.107
1747652421.74,-0.092,-0.009,-0.039,0.945,-0.251,0.131,-46.075,3.260,-18.997
1747652421.75,-0.135,0.051,-0.016,0.978,-0.169,0.009,-45.523,3.149,-18.984
1747652421.76,-0.134,0.093,0.025,0.981,-0.087,-0.062,-44.963,3.028,-19.052
1747652421.77,-0.088,0.089,0.052,0.972,0.002,-0.061,-44.408,2.937,-19.145
1747652421.78,-0.016,0.032,0.043,0.974,0.033,0.004,-43.854,2.907,-19.210
1747652421.79,0.065,-0.032,0.015,0.984,-0.041,0.099,-43.295,2.907,-19.210
1747652421.80,0.119,-0.100,-0.018,0.982,-0.116,0.179,-42.729,2.910,-19.139
1747652421.81,0.160,-0.131,-0.064,0.970,-0.196,0.178,-42.169,2.893,-19.036
1747652421.82,0.132,-0.118,-0.066,1.006,-0.349,0.117,-41.603,2.787,-18.961
1747652421.83,0.016,-0.085,-0.076,1.044,-0.381,0.063,-41.015,2.593,-18.930
1747652421.84,-0.079,-0.046,-0.064,1.044,-0.270,-0.012,-40.417,2.396,-18.945
1747652421.85,-0.111,-0.008,-0.006,1.029,-0.143,-0.095,-39.827,2.232,-19.018
1747652421.86,-0.120,0.018,0.053,1.032,-0.054,-0.115,-39.241,2.106,-19.130
1747652421.87,-0.102,0.015,0.100,1.017,0.024,-0.105,-38.659,2.029,-19.245
1747652421.88,-0.024,0.018,0.104,0.988,0.043,-0.041,-38.089,2.000,-19.323
1747652421.89,0.040,-0.017,0.039,0.983,-0.013,0.014,-37.528,1.991,-19.357
1747652421.90,0.052,-0.055,-0.028,1.016,-0.132,0.038,-36.957,1.946,-19.363
1747652421.91,0.042,-0.065,-0.058,1.029,-0.200,0.032,-36.372,1.850,-19.360
1747652421.92,0.029,-0.050,-0.028,1.040,-0.193,-0.007,-35.782,1.728,-19.373
1747652421.93,0.008,-0.015,0.032,1.073,-0.138,-0.058,-35.179,1.609,-19.417
1747652421.94,-0.040,0.024,0.065,1.089,-0.088,-0.092,-34.563,1.504,-19.489
1747652421.95,-0.083,0.059,0.061,1.107,-0.064,-0.104,-33.936,1.408,-19.579
1747652421.96,-0.080,0.083,0.057,1.102,0.017,-0.080,-33.308,1.348,-19.662
1747652421.97,-0.018,0.104,0.074,1.093,0.056,-0.037,-32.681,1.340,-19.719
1747652421.98,0.030,0.104,0.046,1.061,-0.001,0.006,-32.067,1.345,-19.744
1747652421.99,0.023,0.085,-0.011,1.054,-0.046,0.022,-31.463,1.325,-19.750
1747652422.00,0.024,0.061,-0.003,1.060,-0.051,0.037,-30.860,1.298,-19.747
1747652422.01,0.045,0.033,0.035,1.061,-0.052,0.042,-30.253,1.275,-19.734
1747652422.02,0.037,0.012,0.015,1.079,-0.048,0.015,-29.643,1.249,-19.729
1747652422.03,-0.017,0.011,0.010,1.125,-0.026,-0.034,-29.014,1.213,-19.750
1747652422.04,-0.090,0.010,0.043,1.177,0.077,-0.086,-28.356,1.203,-19.805
1747652422.05,-0.105,0.005,0.058,1.173,0.118,-0.137,-27.685,1.217,-19.894
1747652422.06,-0.093,0.018,0.083,1.156,0.155,-0.156,-27.022,1.247,-20.005
1747652422.07,-0.053,0.043,0.058,1.118,0.122,-0.109,-26.375,1.281,-20.104
1747652422.08,0.005,0.052,-0.009,1.077,-0.017,-0.016,-25.749,1.287,-20.161
1747652422.09,0.104,0.077,-0.046,1.065,-0.147,0.108,-25.137,1.245,-20.147
1747652422.10,0.162,0.066,-0.039,1.055,-0.212,0.168,-24.529,1.174,-20.071
1747652422.11,0.169,0.051,-0.009,1.057,-0.234,0.138,-23.926,1.079,-19.985
1747652422.12,0.095,0.022,0.016,1.110,-0.180,0.099,-23.306,0.983,-19.924
1747652422.13,0.001,0.005,0.045,1.138,-0.079,0.065,-22.661,0.924,-19.884
1747652422.14,-0.070,-0.013,0.043,1.122,0.025,0.002,-22.014,0.912,-19.874
1747652422.15,-0.105,-0.045,-0.024,1.103,0.046,-0.014,-21.380,0.929,-19.893
1747652422.16,-0.076,-0.054,-0.049,1.124,0.031,0.022,-20.745,0.949,-19.903
1747652422.17,0.004,-0.024,-0.044,1.155,-0.006,0.048,-20.093,0.961,-19.893
1747652422.18,0.060,0.039,-0.008,1.167,-0.067,0.065,-19.430,0.948,-19.870
1747652422.19,0.057,0.106,0.045,1.195,-0.094,0.066,-18.756,0.910,-19.842
1747652422.20,0.017,0.151,0.071,1.217,-0.076,0.080,-18.066,0.869,-19.811
1747652422.21,-0.013,0.150,0.064,1.224,-0.054,0.089,-17.369,0.845,-19.770
1747652422.22,-0.038,0.079,0.035,1.236,-0.010,0.078,-16.664,0.836,-19.731
1747652422.23,-0.063,0.002,0.004,1.203,0.018,0.051,-15.966,0.849,-19.702
1747652422.24,-0.047,-0.040,0.005,1.193,-0.009,0.003,-15.285,0.856,-19.695
1747652422.25,-0.005,-0.073,0.004,1.231,-0.030,-0.027,-14.592,0.839,-19.713
1747652422.26,0.060,-0.014,0.042,1.235,-0.030,-0.065,-13.887,0.813,-19.750
1747652422.27,0.093,0.036,0.079,1.245,-0.057,-0.089,-13.183,0.775,-19.806
1747652422.28,0.061,0.049,0.064,1.318,-0.047,-0.054,-12.452,0.731,-19.727
1747652422.29,0.015,0.046,0.030,1.347,-0.006,-0.015,-11.690,0.709,-19.755
1747652422.30,-0.005,0.034,0.012,1.334,0.080,0.000,-10.924,0.726,-19.641
1747652422.31,-0.014,0.031,-0.002,1.351,0.149,-0.022,-10.158,0.790,-19.658
1747652422.32,-0.029,0.005,-0.003,1.353,0.214,-0.041,-9.385,0.889,-19.582
1747652422.33,-0.027,-0.040,0.005,1.400,0.270,-0.049,-8.603,1.023,-19.622
1747652422.34,-0.009,-0.045,-0.020,1.454,0.252,-0.027,-7.784,1.168,-19.561
1747652422.35,0.001,-0.030,-0.065,1.399,0.258,0.007,-6.970,1.309,-19.584
1747652422.36,0.048,0.013,-0.050,1.406,0.323,0.055,-6.173,1.475,-19.474
1747652422.37,0.076,0.023,-0.028,1.422,0.315,0.050,-5.361,1.662,-19.465
1747652422.38,0.047,0.104,-0.035,1.421,0.250,0.094,-4.551,1.825,-19.352
1747652422.39,0.012,0.130,-0.046,1.422,0.224,0.133,-3.736,1.959,-19.312
1747652422.40,0.009,0.114,-0.040,1.397,0.269,0.136,-2.928,2.101,-19.202
1747652422.41,0.030,0.067,0.013,1.358,0.298,0.135,-2.138,2.267,-19.153
1747652422.42,0.058,0.006,0.028,1.269,0.248,0.119,-1.382,2.427,-19.046
1747652422.43,0.060,-0.048,-0.034,1.174,0.153,0.101,-0.685,2.542,-19.014
1747652422.44,0.034,-0.120,-0.081,1.111,0.086,0.082,-0.031,2.608,-18.941
1747652422.45,0.016,-0.137,-0.058,1.065,0.047,0.058,0.590,2.645,-18.930
1747652422.46,0.010,-0.078,-0.040,1.091,0.016,0.027,1.204,2.664,-18.895
1747652422.47,0.019,0.033,-0.053,1.129,0.053,-0.004,1.839,2.682,-18.918
1747652422.48,-0.017,0.147,-0.040,1.136,0.110,0.012,2.486,2.732,-18.912
1747652422.49,-0.089,0.172,-0.002,1.163,0.122,0.072,3.144,2.799,-18.921
1747652422.50,-0.124,0.156,-0.000,1.141,0.158,0.094,3.806,2.876,-18.895
1747652422.51,-0.067,0.134,-0.002,1.130,0.146,0.067,4.456,2.965,-18.882
1747652422.52,0.002,0.091,-0.014,1.128,0.073,0.056,5.102,3.028,-18.853
1747652422.53,0.045,0.022,-0.052,1.157,0.060,0.046,5.752,3.064,-18.858
1747652422.54,0.066,-0.039,-0.067,1.221,0.112,-0.012,6.434,3.114,-18.870
1747652422.55,0.039,-0.060,-0.061,1.188,0.156,-0.087,7.121,3.203,-18.939
1747652422.56,-0.018,-0.070,-0.019,1.183,0.158,-0.118,7.792,3.307,-19.034
1747652422.57,-0.051,-0.079,-0.021,1.146,0.176,-0.104,8.455,3.415,-19.137
1747652422.58,-0.090,-0.024,-0.002,1.128,0.252,-0.079,9.100,3.550,-19.247
1747652422.59,-0.121,0.058,0.025,1.162,0.285,-0.030,9.748,3.716,-19.322
1747652422.60,-0.126,0.132,0.025,1.204,0.353,0.020,10.425,3.907,-19.373
1747652422.61,-0.069,0.135,0.008,1.154,0.320,0.014,11.100,4.113,-19.410
1747652422.62,0.036,0.079,-0.029,1.094,0.128,-0.034,11.738,4.254,-19.474
1747652422.63,0.111,0.005,-0.110,1.062,-0.037,-0.070,12.350,4.292,-19.551
1747652422.64,0.119,-0.083,-0.097,1.002,-0.078,-0.102,12.934,4.278,-19.664
1747652422.65,0.066,-0.169,-0.026,0.987,-0.042,-0.119,13.491,4.267,-19.774
1747652422.66,-0.016,-0.144,0.003,1.033,0.024,-0.083,14.064,4.286,-19.915
1747652422.67,-0.063,-0.074,-0.010,1.034,0.099,-0.033,14.651,4.343,-19.995
1747652422.68,-0.056,0.034,-0.020,1.035,0.080,-0.006,15.237,4.411,-20.092
1747652422.69,-0.021,0.089,-0.059,1.026,0.051,-0.006,15.827,4.461,-20.143
1747652422.70,-0.002,0.084,-0.048,0.989,-0.022,-0.016,16.399,4.486,-20.246
1747652422.71,0.025,0.062,-0.045,0.957,-0.092,-0.019,16.953,4.468,-20.339
1747652422.72,0.049,0.014,-0.075,0.912,-0.137,-0.056,17.488,4.423,-20.407
1747652422.73,0.049,-0.058,-0.061,0.911,-0.164,-0.093,18.000,4.363,-20.543
1747652422.74,0.018,-0.094,-0.048,0.925,-0.194,-0.130,18.519,4.296,-20.653
1747652422.75,-0.034,-0.105,-0.067,0.900,-0.217,-0.158,19.033,4.222,-20.837
1747652422.76,-0.036,-0.093,-0.064,0.887,-0.256,-0.194,19.536,4.133,-20.983
1747652422.77,-0.011,-0.040,-0.121,0.855,-0.260,-0.218,20.023,4.041,-21.209
1747652422.78,-0.024,0.026,-0.117,0.815,-0.250,-0.223,20.491,3.953,-21.377
1747652422.79,-0.064,0.104,-0.049,0.742,-0.197,-0.239,20.926,3.885,-21.611
1747652422.80,-0.109,0.126,0.043,0.685,-0.127,-0.235,21.322,3.857,-21.786
1747652422.81,-0.118,0.052,0.059,0.679,-0.120,-0.214,21.701,3.851,-22.013
1747652422.82,-0.077,0.031,-0.028,0.655,-0.142,-0.224,22.075,3.833,-22.174
1747652422.83,0.003,0.028,-0.113,0.656,-0.178,-0.255,22.438,3.809,-22.412
1747652422.84,0.078,0.003,-0.115,0.631,-0.192,-0.300,22.794,3.775,-22.606
1747652422.85,0.101,-0.056,-0.074,0.532,-0.186,-0.230,23.112,3.738,-22.851
1747652422.86,0.131,-0.120,-0.045,0.538,-0.151,-0.154,23.410,3.695,-22.990
1747652422.87,0.118,-0.135,-0.026,0.509,-0.116,-0.086,23.704,3.658,-23.140
1747652422.88,0.083,-0.078,-0.014,0.472,-0.132,-0.044,23.982,3.611,-23.197
1747652422.89,0.083,-0.036,-0.025,0.430,-0.148,-0.047,24.239,3.550,-23.302
1747652422.90,0.099,-0.046,-0.019,0.386,-0.180,-0.052,24.468,3.476,-23.350
1747652422.91,0.094,-0.051,-0.010,0.366,-0.203,-0.039,24.681,3.384,-23.451
1747652422.92,0.056,-0.027,-0.051,0.318,-0.170,-0.011,24.877,3.287,-23.479
1747652422.93,0.010,-0.016,-0.093,0.265,-0.098,0.015,25.042,3.215,-23.552
1747652422.94,-0.032,-0.036,-0.104,0.217,-0.018,0.039,25.181,3.178,-23.546
1747652422.95,-0.051,-0.051,-0.087,0.171,-0.002,0.060,25.293,3.166,-23.583
1747652422.96,-0.030,-0.072,-0.051,0.166,-0.066,0.067,25.391,3.132,-23.548
1747652422.97,-0.016,-0.089,-0.032,0.140,-0.130,0.032,25.481,3.063,-23.576
1747652422.98,0.005,-0.059,-0.048,0.136,-0.168,-0.022,25.559,2.978,-23.578
1747652422.99,0.002,-0.004,-0.054,0.123,-0.195,-0.047,25.633,2.884,-23.660
1747652423.00,-0.041,0.019,-0.058,0.115,-0.167,-0.038,25.697,2.792,-23.691
1747652423.01,-0.085,0.025,-0.058,0.108,-0.106,-0.029,25.760,2.724,-23.776
1747652423.01,-0.113,0.045,-0.056,0.088,-0.030,-0.023,25.816,2.694,-23.795
1747652423.03,-0.121,0.027,-0.039,0.059,0.018,-0.012,25.858,2.698,-23.875
1747652423.04,-0.082,-0.018,-0.039,0.032,0.011,-0.008,25.883,2.711,-23.882
1747652423.04,-0.022,-0.018,-0.052,0.011,-0.025,-0.008,25.898,2.708,-23.941
1747652423.06,0.027,-0.007,-0.057,0.000,-0.041,-0.001,25.900,2.690,-23.943
1747652423.06,0.047,-0.014,-0.041,0.012,-0.063,0.006,25.902,2.660,-24.000
1747652423.08,0.046,0.005,-0.042,0.004,-0.090,0.018,25.906,2.610,-23.992
1747652423.08,0.030,0.027,-0.054,-0.010,-0.066,0.026,25.902,2.556,-24.027
1747652423.09,0.010,0.023,-0.048,-0.019,-0.005,0.030,25.891,2.522,-24.006
1747652423.10,-0.031,0.007,-0.013,-0.006,0.038,0.037,25.882,2.517,-24.025
1747652423.12,-0.054,-0.006,0.023,-0.004,0.016,0.030,25.883,2.521,-24.002
1747652423.12,-0.019,-0.022,0.016,-0.035,-0.055,0.008,25.872,2.504,-24.033
1747652423.13,0.028,-0.021,-0.021,-0.029,-0.079,-0.001,25.850,2.462,-24.031
1747652423.14,0.040,-0.033,-0.034,-0.021,-0.043,0.001,25.837,2.430,-24.067
1747652423.15,0.001,-0.014,-0.010,-0.037,-0.043,0.009,25.819,2.409,-24.065
1747652423.16,-0.028,0.009,-0.015,-0.045,-0.033,0.013,25.793,2.384,-24.091
1747652423.17,-0.037,-0.004,-0.019,-0.035,0.001,0.001,25.767,2.373,-24.084
1747652423.18,-0.044,0.006,0.007,-0.008,0.002,-0.008,25.754,2.373,-24.118
1747652423.19,-0.047,0.031,0.007,-0.006,-0.011,-0.017,25.753,2.365,-24.122
1747652423.20,-0.027,0.035,-0.010,0.009,0.010,-0.028,25.756,2.366,-24.173
1747652423.21,-0.013,0.029,-0.009,0.051,0.036,-0.023,25.774,2.391,-24.192
1747652423.22,-0.019,0.068,-0.009,0.052,0.040,-0.007,25.807,2.426,-24.243
1747652423.23,-0.020,0.089,-0.031,0.057,0.038,0.019,25.838,2.445,-24.240
1747652423.24,-0.012,0.050,-0.060,0.060,0.079,0.028,25.872,2.468,-24.255
1747652423.25,-0.009,0.026,-0.041,0.032,0.068,0.027,25.899,2.498,-24.236
1747652423.26,-0.001,-0.014,-0.013,0.025,0.032,0.017,25.912,2.513,-24.245
1747652423.27,0.003,-0.051,-0.004,0.054,0.056,0.005,25.932,2.525,-24.237
1747652423.28,0.010,-0.020,0.009,0.040,0.104,-0.006,25.955,2.569,-24.265
1747652423.29,-0.001,0.006,0.002,-0.004,0.142,0.014,25.962,2.636,-24.265
1747652423.30,-0.039,-0.027,-0.043,-0.034,0.271,0.057,25.944,2.737,-24.271
1747652423.31,-0.057,-0.057,-0.048,-0.093,0.385,0.083,25.902,2.905,-24.223
1747652423.32,-0.036,-0.048,-0.074,-0.147,0.426,0.137,25.829,3.103,-24.179
1747652423.33,-0.002,-0.064,-0.124,-0.192,0.389,0.169,25.737,3.288,-24.073
1747652423.34,0.016,-0.095,-0.124,-0.327,0.354,0.166,25.594,3.449,-23.996
1747652423.35,0.016,-0.151,-0.040,-0.398,0.296,0.172,25.394,3.584,-23.876
1747652423.36,0.044,-0.186,-0.064,-0.478,0.249,0.167,25.150,3.684,-23.776
1747652423.37,0.035,-0.178,-0.052,-0.570,0.233,0.138,24.862,3.773,-23.660
1747652423.38,0.011,-0.179,-0.060,-0.707,0.181,0.140,24.501,3.844,-23.575
1747652423.39,0.027,-0.209,-0.107,-0.805,0.170,0.169,24.076,3.888,-23.447
1747652423.40,0.043,-0.208,-0.114,-0.929,0.157,0.171,23.590,3.921,-23.337
1747652423.41,0.021,-0.146,-0.111,-1.004,0.176,0.174,23.044,3.957,-23.191
1747652423.42,-0.010,-0.142,-0.106,-1.076,0.223,0.204,22.460,4.007,-23.064
1747652423.43,-0.023,-0.152,-0.077,-1.153,0.260,0.224,21.833,4.078,-22.883
1747652423.44,-0.004,-0.119,-0.080,-1.226,0.256,0.249,21.167,4.156,-22.711
1747652423.45,0.049,-0.107,-0.104,-1.297,0.179,0.274,20.458,4.207,-22.496
1747652423.46,0.109,-0.108,-0.098,-1.339,0.058,0.291,19.720,4.195,-22.272
1747652423.47,0.140,-0.081,-0.119,-1.365,-0.017,0.281,18.961,4.128,-22.038
1747652423.48,0.125,-0.028,-0.126,-1.405,-0.036,0.249,18.183,4.041,-21.818
1747652423.49,0.040,-0.015,-0.105,-1.445,-0.007,0.249,17.380,3.964,-21.611
1747652423.50,-0.049,-0.052,-0.093,-1.492,0.060,0.240,16.554,3.919,-21.375
1747652423.51,-0.093,-0.054,-0.073,-1.522,0.108,0.206,15.702,3.914,-21.180
1747652423.52,-0.116,-0.027,-0.071,-1.549,0.156,0.166,14.835,3.944,-20.973
1747652423.53,-0.121,0.011,-0.064,-1.571,0.175,0.153,13.953,4.003,-20.818
1747652423.54,-0.102,0.009,-0.083,-1.624,0.135,0.157,13.049,4.056,-20.618
1747652423.55,-0.060,-0.025,-0.128,-1.609,0.094,0.140,12.131,4.087,-20.461
1747652423.56,-0.023,-0.038,-0.123,-1.626,0.085,0.064,11.215,4.112,-20.281
1747652423.57,-0.043,-0.018,-0.059,-1.652,0.028,-0.038,10.282,4.133,-20.206
1747652423.58,-0.083,-0.002,-0.062,-1.687,-0.055,-0.103,9.328,4.118,-20.094
1747652423.59,-0.135,-0.002,-0.065,-1.718,-0.025,-0.128,8.353,4.092,-20.091
1747652423.60,-0.161,-0.014,-0.041,-1.756,0.006,-0.109,7.359,4.088,-20.001
1747652423.61,-0.135,-0.012,-0.048,-1.802,0.004,-0.053,6.342,4.087,-19.893
1747652423.62,-0.063,-0.011,-0.070,-1.845,0.071,-0.022,5.301,4.100,-19.836
1747652423.63,0.025,-0.021,-0.044,-1.842,0.135,-0.066,4.247,4.156,-19.692
1747652423.64,0.017,-0.039,-0.026,-1.867,0.131,-0.118,3.188,4.230,-19.668
1747652423.65,-0.043,-0.062,-0.035,-1.880,0.118,-0.138,2.115,4.301,-19.566
1747652423.66,-0.045,-0.077,-0.052,-1.923,0.117,-0.161,1.027,4.368,-19.569
1747652423.67,-0.014,-0.085,-0.045,-1.974,0.062,-0.163,-0.089,4.423,-19.472
1747652423.68,0.022,-0.095,-0.068,-2.056,-0.062,-0.108,-1.241,4.422,-19.462
1747652423.69,0.071,-0.101,-0.103,-2.136,-0.193,-0.023,-2.439,4.350,-19.408
1747652423.70,0.138,-0.093,-0.071,-2.161,-0.254,0.035,-3.664,4.224,-19.311
1747652423.71,0.183,-0.079,-0.018,-2.150,-0.258,0.033,-4.890,4.085,-19.200
1747652423.72,0.172,-0.069,0.030,-2.136,-0.278,-0.005,-6.111,3.941,-19.106
1747652423.73,0.096,-0.072,0.031,-2.113,-0.251,-0.030,-7.323,3.794,-19.035
1747652423.74,0.005,-0.081,0.044,-2.089,-0.155,-0.042,-8.522,3.686,-18.978
1747652423.75,-0.057,-0.082,0.070,-2.103,-0.040,-0.052,-9.718,3.638,-18.927
1747652423.76,-0.097,-0.072,0.075,-2.090,0.073,-0.042,-10.916,3.655,-18.878
1747652423.77,-0.109,-0.060,0.089,-2.047,0.142,-0.047,-12.097,3.730,-18.826
1747652423.78,-0.090,-0.042,0.072,-2.030,0.169,-0.059,-13.258,3.828,-18.779
1747652423.79,-0.049,-0.018,0.042,-2.033,0.175,-0.070,-14.419,3.939,-18.736
1747652423.80,0.002,0.001,0.034,-2.030,0.106,-0.092,-15.580,4.033,-18.699
1747652423.81,0.029,0.010,0.009,-2.007,-0.013,-0.112,-16.735,4.067,-18.674
1747652423.82,0.036,0.009,0.002,-2.014,-0.114,-0.124,-17.884,4.037,-18.659
1747652423.83,0.062,-0.004,0.015,-2.046,-0.205,-0.118,-19.046,3.948,-18.649
1747652423.84,0.123,-0.029,0.045,-1.983,-0.191,-0.081,-20.203,3.839,-18.625
1747652423.85,0.184,-0.075,0.050,-1.866,-0.059,-0.056,-21.300,3.778,-18.589
1747652423.86,0.190,-0.119,0.066,-1.829,0.044,-0.051,-22.353,3.792,-18.546
1747652423.87,0.125,-0.150,0.095,-1.815,0.122,-0.046,-23.393,3.858,-18.500
1747652423.88,0.030,-0.177,0.069,-1.841,0.170,-0.031,-24.434,3.964,-18.445
1747652423.89,-0.042,-0.190,0.032,-1.911,0.206,-0.010,-25.501,4.102,-18.375
1747652423.90,-0.063,-0.187,-0.035,-2.031,0.237,0.041,-26.622,4.272,-18.275
1747652423.91,-0.038,-0.168,-0.047,-2.102,0.218,0.117,-27.799,4.474,-18.124
1747652423.92,0.017,-0.137,-0.012,-2.093,0.176,0.188,-28.988,4.685,-17.916
1747652423.93,0.087,-0.089,0.007,-2.068,0.143,0.207,-30.161,4.899,-17.670
1747652423.94,0.137,-0.028,0.040,-2.048,0.052,0.152,-31.323,5.080,-17.430
1747652423.95,0.122,0.030,0.061,-1.987,-0.074,0.063,-32.468,5.174,-17.236
1747652423.96,0.065,0.061,0.062,-1.874,-0.126,-0.017,-33.566,5.186,-17.102
1747652423.97,0.023,0.065,0.019,-1.777,-0.118,-0.083,-34.604,5.160,-17.024
1747652423.98,-0.001,0.054,-0.031,-1.767,-0.120,-0.125,-35.614,5.115,-16.986
1747652423.99,-0.024,0.022,-0.049,-1.808,-0.162,-0.119,-36.637,5.050,-16.963
1747652424.00,-0.047,-0.034,-0.035,-1.863,-0.173,-0.066,-37.687,4.978,-16.916
1747652424.01,-0.044,-0.098,-0.044,-1.904,-0.089,-0.017,-38.761,4.956,-16.826
1747652424.02,-0.015,-0.137,-0.011,-1.913,0.037,0.011,-39.849,5.017,-16.706
1747652424.03,0.014,-0.142,0.063,-1.879,0.160,0.030,-40.928,5.167,-16.565
1747652424.04,0.037,-0.128,0.064,-1.834,0.193,0.054,-41.982,5.377,-16.404
1747652424.05,0.044,-0.102,0.008,-1.807,0.199,0.068,-43.011,5.614,-16.221
1747652424.06,0.044,-0.069,-0.044,-1.852,0.164,0.071,-44.046,5.858,-16.022
1747652424.07,0.046,-0.040,-0.017,-1.853,0.100,0.066,-45.098,6.080,-15.812
1747652424.08,0.054,-0.023,0.009,-1.791,0.063,0.030,-46.131,6.270,-15.612
1747652424.09,0.070,-0.007,0.030,-1.749,0.022,-0.023,-47.132,6.414,-15.447
1747652424.10,0.087,0.018,0.031,-1.767,-0.055,-0.076,-48.131,6.499,-15.322
1747652424.11,0.096,0.044,0.037,-1.811,-0.153,-0.100,-49.152,6.512,-15.223
1747652424.12,0.102,0.062,0.038,-1.842,-0.176,-0.092,-50.196,6.490,-15.127
1747652424.13,0.119,0.069,0.089,-1.811,-0.186,-0.070,-51.241,6.477,-15.013
1747652424.14,0.116,0.062,0.147,-1.722,-0.235,-0.039,-52.246,6.460,-14.881
1747652424.15,0.076,0.056,0.080,-1.684,-0.257,-0.009,-53.212,6.444,-14.724
1747652424.16,0.042,0.046,-0.016,-1.672,-0.282,-0.008,-54.165,6.432,-14.548
1747652424.17,0.006,0.035,-0.062,-1.680,-0.336,-0.044,-55.116,6.387,-14.387
1747652424.18,-0.045,0.025,-0.071,-1.688,-0.291,-0.092,-56.077,6.304,-14.265
1747652424.19,-0.076,0.009,-0.027,-1.639,-0.168,-0.170,-57.030,6.219,-14.210
1747652424.20,-0.097,-0.002,0.003,-1.600,-0.064,-0.247,-57.961,6.122,-14.246
1747652424.21,-0.124,-0.007,0.022,-1.633,0.033,-0.276,-58.892,6.029,-14.348
1747652424.22,-0.137,-0.023,0.058,-1.731,0.134,-0.267,-59.863,5.982,-14.456
1747652424.23,-0.127,-0.045,0.082,-1.763,0.241,-0.240,-60.874,6.020,-14.537
1747652424.24,-0.072,-0.069,0.087,-1.759,0.251,-0.205,-61.887,6.130,-14.578
1747652424.25,0.004,-0.075,0.039,-1.750,0.224,-0.178,-62.896,6.263,-14.580
1747652424.26,0.079,-0.069,0.064,-1.680,0.185,-0.166,-63.883,6.404,-14.555
1747652424.27,0.131,-0.049,0.061,-1.595,0.106,-0.190,-64.823,6.499,-14.543
1747652424.28,0.127,-0.006,-0.001,-1.554,-0.015,-0.241,-65.728,6.479,-14.593
1747652424.29,0.070,0.022,-0.044,-1.530,-0.048,-0.291,-66.621,6.335,-14.725
1747652424.30,0.006,0.016,-0.026,-1.495,0.041,-0.326,-67.498,6.136,-14.936
1747652424.31,-0.041,-0.006,0.006,-1.514,0.103,-0.334,-68.371,5.940,-15.196
1747652424.32,-0.070,-0.025,-0.017,-1.527,0.088,-0.325,-69.256,5.743,-15.468
1747652424.33,-0.071,-0.045,-0.077,-1.489,0.059,-0.320,-70.132,5.520,-15.750
1747652424.34,-0.049,-0.062,-0.105,-1.479,0.063,-0.325,-70.991,5.258,-16.063
1747652424.35,-0.010,-0.074,-0.053,-1.472,0.100,-0.326,-71.848,4.976,-16.408
1747652424.36,0.050,-0.090,0.014,-1.442,0.173,-0.307,-72.693,4.708,-16.770
1747652424.37,0.100,-0.074,0.043,-1.385,0.227,-0.259,-73.513,4.506,-17.102
1747652424.38,0.106,-0.058,0.055,-1.313,0.187,-0.219,-74.290,4.362,-17.377
1747652424.39,0.057,-0.024,-0.017,-1.317,0.175,-0.176,-75.046,4.259,-17.589
1747652424.40,0.002,0.002,-0.070,-1.329,0.180,-0.145,-75.807,4.226,-17.730
1747652424.41,-0.046,0.015,-0.053,-1.312,0.190,-0.149,-76.566,4.218,-17.845
1747652424.42,-0.097,0.016,-0.021,-1.275,0.335,-0.147,-77.309,4.232,-17.979
1747652424.43,-0.121,0.012,0.037,-1.251,0.540,-0.149,-78.036,4.342,-18.124
1747652424.44,-0.126,-0.017,0.138,-1.216,0.570,-0.162,-78.746,4.509,-18.287
1747652424.45,-0.139,-0.028,0.116,-1.156,0.366,-0.214,-79.429,4.510,-18.563
1747652424.46,-0.164,-0.027,-0.032,-1.100,0.233,-0.268,-80.082,4.180,-19.062
1747652424.47,-0.158,-0.039,-0.103,-1.034,0.375,-0.293,-80.702,3.644,-19.775
1747652424.48,-0.083,-0.057,-0.030,-0.986,0.537,-0.297,-81.287,3.060,-20.636
1747652424.49,-0.006,-0.051,0.028,-0.956,0.523,-0.301,-81.848,2.402,-21.614
1747652424.50,0.006,-0.023,0.031,-0.921,0.407,-0.301,-82.390,1.556,-22.736
1747652424.51,-0.027,0.015,-0.008,-0.906,0.398,-0.266,-82.914,0.578,-23.948
1747652424.52,-0.039,0.022,0.022,-0.881,0.511,-0.178,-83.426,-0.224,-25.013
1747652424.53,-0.012,-0.004,0.113,-0.847,0.574,-0.112,-83.918,-0.670,-25.778
1747652424.54,-0.003,-0.015,0.110,-0.826,0.520,-0.103,-84.394,-0.988,-26.413
1747652424.55,-0.043,-0.035,0.011,-0.831,0.481,-0.141,-84.863,-1.547,-27.260
1747652424.56,-0.062,-0.065,-0.040,-0.760,0.549,-0.189,-85.321,-2.539,-28.544
1747652424.57,-0.023,-0.071,-0.052,-0.595,0.652,-0.252,-85.693,-4.067,-30.427
1747652424.58,0.039,-0.006,-0.101,-0.633,0.475,-0.264,-86.033,-6.253,-32.951
1747652424.59,0.114,0.032,-0.035,-0.633,0.170,-0.208,-86.374,-8.811,-35.701
1747652424.60,0.139,0.045,-0.046,-0.585,-0.133,-0.166,-86.703,-11.554,-38.460
1747652424.61,0.098,0.125,-0.054,-0.350,-0.331,-0.163,-86.947,-14.437,-41.207
1747652424.62,0.023,0.100,-0.050,-0.191,-0.347,-0.180,-87.061,-17.184,-43.762
1747652424.63,0.015,0.015,-0.034,-0.223,-0.384,-0.217,-87.134,-20.255,-46.629
1747652424.64,0.037,-0.054,-0.048,-0.229,-0.398,-0.236,-87.207,-23.950,-50.101
1747652424.65,0.012,-0.092,-0.135,-0.221,-0.217,-0.170,-87.270,-27.513,-53.482
1747652424.66,-0.076,-0.075,-0.140,-0.241,0.180,-0.075,-87.352,-30.159,-56.118
1747652424.67,-0.172,-0.040,-0.003,-0.263,0.510,-0.041,-87.460,-32.193,-58.359
1747652424.68,-0.253,0.008,0.075,-0.297,0.566,-0.041,-87.579,-34.366,-60.849
1747652424.69,-0.299,0.039,0.042,-0.358,0.556,-0.016,-87.721,-37.054,-63.857
1747652424.70,-0.255,0.031,0.013,-0.370,0.577,0.037,-87.891,-40.059,-67.188
1747652424.71,-0.126,0.012,-0.007,-0.243,0.558,0.092,-88.051,-42.268,-69.725
1747652424.72,0.014,-0.000,-0.046,-0.073,0.514,0.126,-88.159,-42.364,-70.128
1747652424.73,0.117,-0.009,-0.085,0.052,0.489,0.129,-88.212,-40.399,-68.449
1747652424.74,0.169,-0.006,-0.105,0.177,0.375,0.084,-88.201,-37.308,-65.607
1747652424.75,0.170,0.014,-0.137,0.261,0.256,-0.008,-88.110,-34.224,-62.701
1747652424.76,0.134,0.027,-0.157,0.244,0.180,-0.107,-87.971,-32.593,-61.190
1747652424.77,0.077,0.023,-0.111,0.253,0.160,-0.128,-87.816,-32.108,-60.800
1747652424.78,0.026,0.015,-0.053,0.294,0.150,-0.059,-87.651,-31.138,-59.919
1747652424.79,0.004,0.003,-0.005,0.233,0.128,0.045,-87.516,-29.272,-58.133
1747652424.80,-0.025,-0.017,0.061,0.140,0.108,0.117,-87.446,-27.113,-56.039
1747652424.81,-0.064,-0.047,0.122,0.130,0.080,0.126,-87.411,-24.902,-53.881
1747652424.82,-0.088,-0.063,0.139,0.150,0.017,0.097,-87.363,-22.865,-51.872
1747652424.83,-0.101,-0.053,0.110,0.140,-0.062,0.056,-87.303,-21.325,-50.316
1747652424.84,-0.089,-0.035,0.105,0.136,-0.152,0.010,-87.237,-20.443,-49.372
1747652424.85,-0.053,-0.007,0.075,0.148,-0.206,-0.033,-87.158,-20.089,-48.913
1747652424.86,-0.013,0.016,0.020,0.130,-0.212,-0.056,-87.074,-20.145,-48.847
1747652424.87,0.034,0.031,0.014,0.084,-0.200,-0.040,-87.006,-20.364,-48.949
1747652424.88,0.089,0.038,0.046,0.055,-0.248,-0.010,-86.964,-20.488,-48.948
1747652424.89,0.108,0.042,0.062,0.065,-0.342,-0.002,-86.931,-20.492,-48.784
1747652424.90,0.075,0.047,0.035,0.076,-0.363,0.018,-86.895,-20.350,-48.435
1747652424.91,0.020,0.034,0.014,0.062,-0.268,0.039,-86.863,-19.994,-47.895
1747652424.92,-0.036,0.002,0.024,0.022,-0.131,0.051,-86.848,-19.532,-47.317
1747652424.93,-0.078,-0.031,0.052,0.011,0.015,0.064,-86.855,-19.010,-46.762
1747652424.94,-0.104,-0.044,0.063,0.045,0.108,0.061,-86.853,-18.284,-46.072
1747652424.95,-0.117,-0.025,0.026,0.060,0.145,0.060,-86.834,-17.415,-45.276
1747652424.96,-0.105,0.002,-0.026,0.042,0.171,0.055,-86.818,-16.558,-44.508
1747652424.97,-0.063,0.019,-0.035,0.033,0.182,0.060,-86.809,-15.744,-43.795
1747652424.98,-0.007,0.028,-0.014,0.067,0.128,0.069,-86.795,-14.835,-42.976
1747652424.99,0.026,0.038,-0.012,0.098,0.029,0.064,-86.757,-13.923,-42.108
1747652425.00,0.024,0.041,-0.029,0.096,-0.041,0.055,-86.711,-13.141,-41.319
1747652425.01,0.012,0.021,-0.032,0.069,-0.055,0.043,-86.672,-12.584,-40.731
1747652425.02,0.003,-0.008,-0.012,0.068,-0.037,0.035,-86.641,-12.181,-40.300
1747652425.03,0.003,-0.029,0.002,0.085,-0.051,0.030,-86.602,-11.835,-39.931
1747652425.04,0.012,-0.031,-0.007,0.091,-0.117,0.025,-86.553,-11.529,-39.577
1747652425.05,0.023,-0.026,-0.026,0.082,-0.145,0.028,-86.504,-11.253,-39.223
1747652425.06,0.042,-0.019,-0.018,0.053,-0.129,0.035,-86.471,-10.925,-38.815
1747652425.07,0.067,-0.005,0.019,0.066,-0.156,0.027,-86.442,-10.599,-38.410
1747652425.08,0.072,0.017,0.027,0.086,-0.243,0.012,-86.399,-10.395,-38.091
1747652425.09,0.052,0.034,-0.014,0.066,-0.291,0.005,-86.355,-10.350,-37.887
1747652425.10,0.038,0.027,-0.029,0.046,-0.222,-0.003,-86.324,-10.390,-37.777
1747652425.11,0.036,0.006,-0.021,0.025,-0.178,-0.018,-86.303,-10.523,-37.798
1747652425.12,0.019,-0.013,-0.005,0.017,-0.178,-0.032,-86.289,-10.776,-37.950
1747652425.13,-0.011,-0.016,-0.008,0.035,-0.183,-0.039,-86.265,-11.013,-38.084
1747652425.14,-0.027,-0.002,-0.014,0.050,-0.176,-0.038,-86.236,-11.190,-38.159
1747652425.15,-0.034,0.016,-0.004,0.053,-0.140,-0.027,-86.210,-11.277,-38.155
1747652425.16,-0.036,0.022,0.008,0.045,-0.077,-0.007,-86.187,-11.247,-38.065
1747652425.17,-0.034,0.009,0.017,0.040,-0.051,0.009,-86.164,-11.100,-37.883
1747652425.18,-0.037,-0.008,0.003,0.047,-0.028,0.010,-86.138,-10.897,-37.656
1747652425.19,-0.047,-0.017,-0.014,0.032,0.002,0.014,-86.115,-10.674,-37.425
1747652425.20,-0.037,-0.017,-0.010,0.004,0.030,0.014,-86.106,-10.487,-37.247
1747652425.21,-0.022,-0.004,-0.006,-0.009,0.020,0.018,-86.108,-10.370,-37.147
1747652425.22,-0.017,0.016,0.018,-0.021,-0.028,0.016,-86.115,-10.306,-37.081
1747652425.23,-0.019,0.029,0.038,-0.017,-0.062,0.005,-86.126,-10.332,-37.082
1747652425.24,-0.024,0.026,0.041,-0.022,-0.060,0.001,-86.138,-10.482,-37.195
1747652425.25,-0.020,0.007,0.054,-0.040,-0.013,0.003,-86.159,-10.671,-37.362
1747652425.26,-0.012,-0.018,0.077,-0.032,-0.016,-0.010,-86.179,-10.901,-37.586
1747652425.27,-0.018,-0.023,0.065,-0.028,-0.071,-0.022,-86.188,-11.265,-37.927
1747652425.28,-0.022,-0.013,0.023,-0.029,-0.104,-0.026,-86.197,-11.686,-38.296
1747652425.29,-0.009,-0.001,0.004,-0.024,-0.125,-0.015,-86.206,-12.041,-38.586
1747652425.30,0.020,0.005,0.007,-0.025,-0.158,0.008,-86.222,-12.271,-38.735
1747652425.31,0.053,-0.000,0.003,-0.014,-0.216,0.031,-86.244,-12.339,-38.698
1747652425.32,0.073,-0.018,-0.012,0.016,-0.290,0.048,-86.254,-12.216,-38.429
1747652425.33,0.069,-0.037,-0.037,0.056,-0.352,0.067,-86.247,-11.901,-37.929
1747652425.34,0.054,-0.047,-0.048,0.105,-0.420,0.068,-86.219,-11.443,-37.249
1747652425.35,0.022,-0.038,-0.064,0.170,-0.469,0.063,-86.156,-10.963,-36.512
1747652425.36,-0.015,-0.016,-0.077,0.229,-0.481,0.065,-86.052,-10.425,-35.701
1747652425.37,-0.031,0.000,-0.063,0.288,-0.477,0.065,-85.913,-9.819,-34.819
1747652425.38,-0.040,0.012,-0.057,0.335,-0.472,0.060,-85.743,-9.191,-33.917
1747652425.39,-0.052,0.022,-0.061,0.350,-0.433,0.076,-85.556,-8.506,-32.970
1747652425.40,-0.056,0.027,-0.044,0.350,-0.375,0.096,-85.365,-7.771,-32.000
1747652425.41,-0.060,0.026,-0.014,0.370,-0.314,0.115,-85.170,-6.934,-30.963
1747652425.42,-0.076,0.014,0.023,0.379,-0.247,0.138,-84.965,-5.987,-29.850
1747652425.43,-0.083,-0.011,0.049,0.378,-0.184,0.167,-84.758,-4.912,-28.649
1747652425.44,-0.075,-0.029,0.076,0.399,-0.208,0.176,-84.546,-3.797,-27.420
1747652425.45,-0.062,-0.026,0.077,0.448,-0.274,0.187,-84.311,-2.729,-26.209
1747652425.46,-0.046,-0.004,0.042,0.507,-0.311,0.178,-84.042,-1.754,-25.058
1747652425.47,-0.016,0.018,-0.001,0.544,-0.295,0.158,-83.744,-0.962,-24.086
1747652425.48,0.015,0.031,0.006,0.597,-0.299,0.131,-83.421,-0.355,-23.306
1747652425.49,0.032,0.039,0.030,0.669,-0.304,0.102,-83.059,0.030,-22.742
1747652425.50,0.015,0.048,-0.001,0.689,-0.205,0.117,-82.669,0.364,-22.259
1747652425.51,-0.004,0.027,0.044,0.662,-0.188,0.148,-82.280,0.802,-21.710
1747652425.52,-0.036,-0.010,0.101,0.624,-0.226,0.180,-81.913,1.306,-21.077
1747652425.53,-0.085,-0.029,0.060,0.618,-0.137,0.220,-81.558,1.913,-20.356
1747652425.54,-0.085,-0.035,0.097,0.659,-0.066,0.238,-81.190,2.633,-19.573
1747652425.55,-0.057,-0.023,0.131,0.734,-0.140,0.209,-80.787,3.261,-18.883
1747652425.56,-0.047,0.010,0.060,0.812,-0.305,0.149,-80.340,3.594,-18.416
1747652425.57,-0.040,0.041,-0.023,0.912,-0.411,0.073,-79.844,3.574,-18.226
1747652425.58,-0.025,0.060,-0.060,0.886,-0.455,-0.005,-79.324,3.258,-18.291
1747652425.59,-0.013,0.063,-0.102,0.783,-0.334,-0.061,-78.849,2.794,-18.526
1747652425.60,-0.020,0.042,-0.026,0.791,-0.119,-0.059,-78.405,2.386,-18.813
1747652425.61,-0.018,0.007,0.106,0.840,-0.035,-0.011,-77.941,2.153,-19.011
1747652425.62,-0.024,-0.015,0.060,0.852,0.030,0.087,-77.454,2.156,-19.004
1747652425.63,-0.019,-0.032,-0.015,0.815,0.153,0.193,-76.974,2.480,-18.724
1747652425.64,0.018,-0.052,0.012,0.752,0.183,0.254,-76.522,3.042,-18.251
1747652425.65,0.048,-0.058,0.030,0.757,0.094,0.236,-76.088,3.607,-17.754
1747652425.66,0.058,-0.041,-0.020,0.839,0.011,0.145,-75.626,3.953,-17.427
1747652425.67,0.064,-0.013,-0.094,0.905,-0.007,0.046,-75.124,4.028,-17.348
1747652425.68,0.074,0.003,-0.120,0.945,0.008,-0.036,-74.596,3.899,-17.482
1747652425.69,0.070,0.002,-0.076,0.991,0.064,-0.048,-74.045,3.691,-17.717
1747652425.70,0.035,-0.010,0.017,0.946,0.123,-0.005,-73.491,3.568,-17.904
1747652425.71,-0.019,-0.029,0.117,0.898,0.067,0.046,-72.969,3.555,-17.977
1747652425.72,-0.105,-0.027,0.070,0.895,0.013,0.095,-72.455,3.596,-17.954
1747652425.73,-0.185,-0.007,-0.033,0.828,0.115,0.168,-71.958,3.760,-17.813
1747652425.74,-0.155,-0.001,0.006,0.809,0.314,0.195,-71.488,4.108,-17.578
1747652425.75,-0.062,-0.015,0.025,0.897,0.338,0.148,-70.997,4.492,-17.379
1747652425.76,0.005,-0.029,-0.040,1.006,0.179,0.035,-70.451,4.669,-17.350
1747652425.77,0.038,-0.026,-0.135,1.103,0.087,-0.092,-69.849,4.561,-17.541
1747652425.78,0.065,-0.021,-0.149,1.063,0.088,-0.191,-69.231,4.257,-17.916
1747652425.79,0.085,-0.020,-0.051,0.911,0.135,-0.177,-68.676,3.933,-18.330
1747652425.80,0.070,-0.019,0.128,0.861,0.108,-0.099,-68.179,3.721,-18.639
1747652425.81,-0.003,0.005,0.128,0.804,0.053,0.049,-67.705,3.644,-18.765
1747652425.82,-0.045,0.020,-0.002,0.743,0.215,0.188,-67.261,3.818,-18.653
1747652425.83,0.021,0.001,0.036,0.765,0.289,0.219,-66.826,4.185,-18.421
1747652425.84,0.078,-0.018,0.053,0.834,0.120,0.187,-66.362,4.492,-18.218
1747652425.85,0.080,-0.041,-0.058,0.908,-0.089,0.140,-65.859,4.624,-18.083
1747652425.86,0.084,-0.064,-0.161,1.028,-0.210,0.025,-65.306,4.543,-18.073
1747652425.87,0.086,-0.060,-0.201,1.139,-0.232,-0.115,-64.689,4.253,-18.249
1747652425.88,0.075,-0.041,-0.118,1.092,-0.117,-0.180,-64.053,3.867,-18.559
1747652425.89,0.033,-0.028,0.096,0.924,0.099,-0.118,-63.482,3.607,-18.846
1747652425.90,-0.040,-0.024,0.281,0.783,0.183,0.047,-63.000,3.588,-18.963
1747652425.91,-0.086,-0.011,0.167,0.712,0.156,0.206,-62.570,3.777,-18.859
1747652425.92,-0.055,0.019,-0.032,0.685,0.162,0.293,-62.165,4.091,-18.605
1747652425.93,0.015,0.031,0.015,0.762,0.149,0.322,-61.742,4.458,-18.294
1747652425.94,0.107,0.017,0.051,0.839,0.029,0.275,-61.272,4.763,-18.010
1747652425.95,0.160,0.013,0.005,0.944,-0.198,0.161,-60.755,4.865,-17.841
1747652425.96,0.113,0.026,-0.056,1.009,-0.437,0.038,-60.192,4.695,-17.822
1747652425.97,0.010,0.054,-0.129,1.008,-0.459,-0.060,-59.617,4.337,-17.926
1747652425.98,-0.084,0.077,-0.098,0.952,-0.218,-0.124,-59.060,3.978,-18.113
1747652425.99,-0.143,0.080,0.040,0.882,0.128,-0.152,-58.543,3.759,-18.336
1747652426.00,-0.181,0.063,0.179,0.827,0.385,-0.115,-58.062,3.734,-18.547
1747652426.01,-0.184,0.028,0.228,0.785,0.377,-0.039,-57.604,3.838,-18.688
1747652426.02,-0.151,-0.011,0.034,0.766,0.328,0.022,-57.164,3.986,-18.751
1747652426.03,-0.081,-0.028,-0.071,0.796,0.246,0.039,-56.719,4.134,-18.772
1747652426.04,-0.011,-0.026,-0.043,0.842,0.123,-0.003,-56.252,4.206,-18.812
1747652426.05,0.008,-0.019,-0.040,0.922,0.003,-0.071,-55.753,4.157,-18.914
1747652426.06,-0.003,0.005,-0.045,1.011,-0.065,-0.157,-55.206,3.986,-19.096
1747652426.07,-0.035,0.044,-0.050,1.060,-0.064,-0.246,-54.622,3.726,-19.367
1747652426.08,-0.067,0.080,-0.027,1.016,0.051,-0.294,-54.036,3.445,-19.700
1747652426.09,-0.070,0.091,0.017,0.957,0.238,-0.254,-53.485,3.269,-20.025
1747652426.10,-0.031,0.071,0.079,0.946,0.245,-0.192,-52.950,3.201,-20.290
1747652426.11,0.025,0.035,0.062,0.929,0.136,-0.044,-52.417,3.179,-20.455
1747652426.12,0.106,-0.005,0.036,0.865,0.039,0.028,-51.905,3.194,-20.504
1747652426.13,0.208,-0.036,0.031,0.853,-0.156,0.064,-51.417,3.163,-20.504
1747652426.14,0.234,-0.065,0.011,0.896,-0.305,0.053,-50.917,3.037,-20.493
1747652426.15,0.185,-0.081,-0.021,0.930,-0.383,0.036,-50.395,2.836,-20.496
1747652426.16,0.110,-0.070,-0.011,0.982,-0.402,0.010,-49.850,2.594,-20.516
1747652426.17,0.033,-0.043,0.016,0.993,-0.313,-0.025,-49.282,2.349,-20.559
1747652426.18,-0.021,-0.010,0.061,0.925,-0.103,-0.055,-48.736,2.178,-20.628
1747652426.19,-0.017,0.041,0.093,0.884,-0.001,-0.053,-48.222,2.097,-20.707
1747652426.19,-0.022,0.056,0.076,0.854,-0.047,0.005,-47.726,2.047,-20.757
1747652426.21,-0.015,0.064,0.009,0.830,-0.099,0.102,-47.247,2.019,-20.737
1747652426.22,0.023,0.061,0.043,0.870,-0.131,0.180,-46.760,2.022,-20.641
1747652426.22,0.055,0.044,0.059,0.920,-0.150,0.199,-46.246,2.039,-20.508
1747652426.24,0.047,0.037,0.049,0.968,-0.216,0.155,-45.703,2.023,-20.388
1747652426.24,-0.002,0.049,0.023,0.977,-0.283,0.077,-45.144,1.928,-20.319
1747652426.25,-0.063,0.066,0.005,0.985,-0.272,-0.021,-44.586,1.764,-20.323
1747652426.26,-0.102,0.082,0.013,0.992,-0.134,-0.129,-44.021,1.586,-20.402
1747652426.28,-0.117,0.084,0.025,0.978,-0.058,-0.168,-43.461,1.436,-20.543
1747652426.28,-0.093,0.104,0.028,0.992,-0.035,-0.162,-42.901,1.308,-20.692
1747652426.30,-0.095,0.056,0.018,0.989,-0.018,-0.140,-42.336,1.202,-20.826
1747652426.30,-0.060,0.016,0.023,0.976,-0.022,-0.119,-41.776,1.115,-20.941
1747652426.31,-0.010,-0.023,0.049,0.970,-0.033,-0.096,-41.221,1.036,-21.036
1747652426.32,0.025,-0.045,0.053,0.969,-0.028,-0.074,-40.669,0.969,-21.112
1747652426.33,0.052,-0.038,0.032,0.972,-0.064,-0.063,-40.115,0.904,-21.175
1747652426.34,0.063,-0.005,0.009,0.958,-0.081,-0.025,-39.564,0.830,-21.220
1747652426.35,0.063,0.031,0.002,0.962,-0.051,0.005,-39.019,0.782,-21.237
1747652426.36,0.057,0.058,0.035,0.995,-0.069,-0.006,-38.459,0.745,-21.246
1747652426.37,0.006,0.074,0.024,1.004,-0.101,-0.041,-37.889,0.679,-21.272
1747652426.38,-0.041,0.066,0.031,1.025,-0.101,-0.054,-37.310,0.594,-21.315
1747652426.39,-0.046,0.021,0.043,1.025,-0.033,-0.053,-36.723,0.525,-21.362
1747652426.40,-0.020,-0.035,0.025,0.972,0.046,-0.050,-36.152,0.506,-21.405
1747652426.41,0.022,-0.072,-0.000,0.941,0.090,-0.048,-35.607,0.522,-21.446
1747652426.42,0.048,-0.086,-0.036,0.920,0.090,-0.033,-35.076,0.553,-21.483
1747652426.43,0.051,-0.074,-0.031,0.921,0.054,0.010,-34.551,0.588,-21.497
1747652426.44,0.064,-0.045,-0.021,0.934,-0.018,0.045,-34.022,0.608,-21.484
1747652426.45,0.078,-0.010,-0.016,0.955,-0.076,0.060,-33.481,0.597,-21.454
1747652426.46,0.062,0.009,0.005,0.967,-0.098,0.046,-32.932,0.563,-21.421
1747652426.47,0.022,0.014,0.038,1.012,-0.105,-0.006,-32.367,0.508,-21.413
1747652426.48,-0.029,0.007,0.062,1.025,-0.080,-0.040,-31.783,0.443,-21.434
1747652426.49,-0.055,-0.008,0.057,0.990,-0.034,-0.054,-31.207,0.390,-21.471
1747652426.50,-0.036,-0.025,0.023,0.965,-0.007,-0.014,-30.649,0.364,-21.500
1747652426.51,0.021,-0.037,-0.024,0.952,0.027,0.041,-30.101,0.372,-21.495
1747652426.52,0.079,-0.009,-0.018,0.929,0.003,0.109,-29.564,0.407,-21.450
1747652426.53,0.102,0.043,0.020,0.938,-0.027,0.185,-29.033,0.442,-21.359
1747652426.54,0.093,0.076,0.021,0.950,-0.079,0.228,-28.493,0.476,-21.228
1747652426.55,0.050,0.093,0.029,0.976,-0.100,0.222,-27.941,0.492,-21.084
