Time,AccX,AccY,AccZ,GyroX,GyroY,GyroZ,Pitch,Roll,Yaw
1747653276.35,-0.006,-0.006,-0.033,0.075,0.155,0.014,-86.774,-54.209,-36.419
1747653276.36,0.011,-0.004,-0.014,0.082,0.156,-0.035,-86.738,-53.490,-35.790
1747653276.37,-0.004,0.015,-0.014,0.079,0.080,-0.039,-86.690,-52.953,-35.321
1747653276.37,-0.040,0.023,-0.044,0.078,0.024,-0.025,-86.645,-52.449,-34.844
1747653276.38,-0.064,0.012,-0.032,0.061,0.016,-0.016,-86.609,-51.976,-34.380
1747653276.38,-0.048,-0.002,-0.011,0.022,0.030,-0.009,-86.586,-51.726,-34.144
1747653276.40,-0.004,-0.015,-0.003,0.000,0.030,0.007,-86.577,-51.636,-34.072
1747653276.41,0.044,-0.025,-0.014,-0.009,0.023,0.042,-86.585,-51.504,-33.955
1747653276.41,0.087,-0.030,-0.029,-0.025,0.030,0.084,-86.619,-51.198,-33.664
1747653276.42,0.110,-0.032,-0.027,-0.004,0.033,0.075,-86.661,-50.790,-33.274
1747653276.43,0.082,0.001,-0.031,0.007,0.021,0.053,-86.687,-50.352,-32.851
1747653276.44,0.037,0.022,-0.035,-0.003,0.000,0.052,-86.707,-50.011,-32.517
1747653276.45,0.002,0.026,-0.022,0.014,-0.036,0.064,-86.728,-49.623,-32.118
1747653276.46,-0.019,0.022,-0.035,0.015,-0.048,0.076,-86.751,-49.061,-31.529
1747653276.48,-0.020,0.006,-0.027,-0.028,-0.016,0.083,-86.787,-48.596,-31.043
1747653276.48,-0.002,-0.017,0.008,-0.049,0.014,0.100,-86.841,-48.268,-30.716
1747653276.49,0.025,-0.038,0.019,-0.036,-0.004,0.114,-86.905,-47.797,-30.250
1747653276.50,0.041,-0.036,0.004,-0.031,-0.057,0.107,-86.966,-47.200,-29.635
1747653276.51,0.035,-0.022,0.005,-0.026,-0.091,0.074,-87.016,-46.747,-29.139
1747653276.52,0.020,-0.004,0.014,-0.016,-0.100,0.033,-87.046,-46.546,-28.885
1747653276.53,-0.002,0.002,0.021,-0.019,-0.125,0.006,-87.060,-46.604,-28.879
1747653276.54,-0.034,-0.003,0.018,-0.017,-0.163,-0.005,-87.065,-46.831,-29.024
1747653276.56,-0.052,-0.008,0.001,-0.022,-0.172,0.003,-87.069,-47.107,-29.204
1747653276.56,-0.034,-0.007,-0.007,-0.033,-0.177,0.016,-87.083,-47.356,-29.353
1747653276.57,0.003,-0.001,-0.004,-0.034,-0.190,0.020,-87.107,-47.603,-29.497
1747653276.58,0.031,0.011,0.003,-0.011,-0.185,0.017,-87.125,-47.727,-29.512
1747653276.59,0.043,0.020,-0.002,-0.001,-0.170,0.013,-87.135,-47.714,-29.397
1747653276.60,0.041,0.013,0.010,0.014,-0.134,0.013,-87.140,-47.638,-29.234
1747653276.61,0.026,-0.001,0.015,0.037,-0.123,0.011,-87.136,-47.400,-28.923
1747653276.62,-0.003,-0.005,0.007,0.045,-0.109,0.009,-87.122,-47.118,-28.574
1747653276.63,-0.038,-0.001,0.003,0.046,-0.082,0.001,-87.104,-46.820,-28.221
1747653276.64,-0.062,0.005,-0.005,0.044,-0.066,0.002,-87.085,-46.517,-27.875
1747653276.66,-0.071,0.003,-0.021,0.030,-0.015,0.014,-87.074,-46.179,-27.512
1747653276.66,-0.046,-0.009,-0.009,0.012,0.032,0.034,-87.077,-45.796,-27.135
1747653276.67,-0.012,-0.014,0.014,-0.007,0.050,0.042,-87.093,-45.420,-26.782
1747653276.68,0.002,-0.006,0.021,-0.014,0.053,0.035,-87.115,-45.146,-26.539
1747653276.69,-0.005,0.007,0.013,-0.003,0.053,0.026,-87.133,-44.939,-26.361
1747653276.71,-0.022,0.015,0.008,-0.004,0.071,0.018,-87.143,-44.769,-26.226
1747653276.71,-0.032,0.014,0.015,-0.005,0.065,0.006,-87.147,-44.690,-26.187
1747653276.72,-0.034,0.010,0.011,-0.009,0.056,-0.000,-87.148,-44.734,-26.264
1747653276.73,-0.027,0.005,0.003,-0.031,0.068,-0.003,-87.150,-44.920,-26.485
1747653276.74,-0.008,0.005,0.016,-0.041,0.086,-0.000,-87.160,-45.233,-26.843
1747653276.76,0.007,0.015,0.024,-0.040,0.090,-0.001,-87.177,-45.560,-27.220
1747653276.76,0.011,0.022,0.023,-0.036,0.063,-0.010,-87.192,-45.894,-27.599
1747653276.77,0.006,0.028,0.015,-0.031,0.050,-0.022,-87.199,-46.299,-28.035
1747653276.78,-0.007,0.024,0.009,-0.030,0.057,-0.037,-87.197,-46.813,-28.581
1747653276.79,-0.020,0.012,0.015,-0.047,0.073,-0.039,-87.193,-47.503,-29.307
1747653276.80,-0.037,-0.005,0.021,-0.066,0.102,-0.040,-87.194,-48.341,-30.197
1747653276.81,-0.050,-0.021,0.027,-0.098,0.107,-0.037,-87.204,-49.348,-31.264
1747653276.82,-0.050,-0.034,0.021,-0.129,0.151,-0.023,-87.234,-50.574,-32.563
1747653276.83,-0.027,-0.039,0.020,-0.142,0.188,-0.020,-87.278,-51.922,-34.012
1747653276.84,0.010,-0.028,0.019,-0.141,0.175,-0.017,-87.324,-53.340,-35.537
1747653276.85,0.037,-0.008,0.001,-0.130,0.127,-0.016,-87.365,-54.731,-37.015
1747653276.86,0.057,0.013,-0.013,-0.105,0.070,-0.013,-87.397,-55.995,-38.338
1747653276.87,0.069,0.024,-0.017,-0.067,0.007,-0.015,-87.415,-56.986,-39.353
1747653276.88,0.063,0.021,-0.031,-0.035,-0.044,-0.018,-87.422,-57.680,-40.037
1747653276.89,0.048,0.004,-0.042,-0.014,-0.066,-0.016,-87.419,-58.123,-40.447
1747653276.90,0.033,-0.020,-0.039,-0.008,-0.083,-0.006,-87.416,-58.410,-40.691
1747653276.91,0.024,-0.040,-0.037,0.009,-0.059,-0.001,-87.413,-58.527,-40.765
1747653276.92,0.013,-0.042,-0.034,0.026,-0.016,-0.008,-87.405,-58.395,-40.611
1747653276.93,0.006,-0.022,-0.030,0.017,0.009,-0.007,-87.395,-58.174,-40.388
1747653276.94,0.002,0.009,-0.022,-0.003,0.027,-0.005,-87.392,-58.090,-40.315
1747653276.95,-0.003,0.037,-0.007,0.013,0.037,0.005,-87.394,-57.975,-40.218
1747653276.96,-0.006,0.045,-0.006,0.014,0.048,0.009,-87.395,-57.652,-39.919
1747653276.97,-0.000,0.026,-0.002,-0.020,0.058,0.017,-87.403,-57.467,-39.764
1747653276.98,0.016,-0.007,0.018,-0.043,0.069,0.029,-87.425,-57.511,-39.845
1747653276.99,0.031,-0.037,0.031,-0.048,0.080,0.030,-87.453,-57.659,-40.038
1747653277.00,0.036,-0.044,0.037,-0.051,0.064,0.025,-87.482,-57.876,-40.296
1747653277.01,0.024,-0.028,0.036,-0.041,0.027,0.020,-87.506,-58.183,-40.629
1747653277.02,0.012,-0.006,0.031,-0.009,-0.016,0.013,-87.520,-58.323,-40.772
1747653277.03,0.009,0.012,0.019,0.017,-0.031,0.011,-87.525,-58.206,-40.640
1747653277.04,0.010,0.019,0.012,0.034,-0.009,0.013,-87.523,-57.842,-40.263
1747653277.05,0.006,0.015,0.016,0.053,0.018,0.006,-87.514,-57.289,-39.713
1747653277.06,-0.007,0.007,0.016,0.069,0.010,0.002,-87.498,-56.604,-39.037
1747653277.07,-0.020,0.005,0.014,0.059,-0.026,0.002,-87.482,-55.922,-38.350
1747653277.08,-0.030,0.015,0.026,0.060,-0.053,0.013,-87.474,-55.310,-37.714
1747653277.09,-0.038,0.022,0.044,0.062,-0.071,0.025,-87.468,-54.590,-36.957
1747653277.10,-0.040,0.010,0.047,0.047,-0.075,0.029,-87.467,-53.912,-36.236
1747653277.11,-0.028,-0.015,0.053,0.037,-0.080,0.030,-87.470,-53.338,-35.618
1747653277.12,-0.007,-0.035,0.054,0.056,-0.085,0.029,-87.470,-52.713,-34.945
1747653277.13,0.007,-0.045,0.049,0.091,-0.102,0.017,-87.458,-51.869,-34.047
1747653277.14,0.005,-0.032,0.035,0.150,-0.128,0.002,-87.421,-50.726,-32.837
1747653277.15,-0.008,-0.006,0.010,0.217,-0.138,-0.005,-87.352,-49.130,-31.163
1747653277.16,-0.019,0.022,-0.011,0.269,-0.113,-0.006,-87.256,-47.201,-29.158
1747653277.17,-0.025,0.041,-0.014,0.299,-0.067,0.006,-87.144,-45.046,-26.949
1747653277.18,-0.027,0.039,-0.004,0.318,-0.033,0.031,-87.026,-42.702,-24.573
1747653277.19,-0.021,0.013,0.010,0.353,-0.020,0.046,-86.901,-40.163,-22.016
1747653277.20,-0.021,-0.013,0.012,0.374,0.004,0.064,-86.763,-37.481,-19.324
1747653277.21,-0.020,-0.022,0.028,0.379,0.050,0.078,-86.620,-34.777,-16.630
1747653277.22,-0.016,-0.015,0.050,0.401,0.075,0.093,-86.466,-32.093,-13.979
1747653277.23,-0.023,-0.007,0.050,0.420,0.070,0.105,-86.297,-29.437,-11.359
1747653277.24,-0.025,-0.009,0.043,0.465,0.084,0.114,-86.104,-26.810,-8.770
1747653277.25,-0.011,-0.014,0.040,0.530,0.059,0.099,-85.874,-24.232,-6.228
1747653277.26,0.006,-0.018,0.016,0.605,0.029,0.072,-85.595,-21.900,-3.914
1747653277.27,0.024,-0.020,-0.003,0.662,-0.021,0.061,-85.268,-19.839,-1.849
1747653277.28,0.045,-0.011,-0.008,0.669,-0.076,0.076,-84.920,-17.993,0.032
1747653277.29,0.056,0.010,0.005,0.693,-0.080,0.085,-84.563,-16.318,1.762
1747653277.30,0.048,0.024,0.020,0.727,-0.020,0.092,-84.185,-14.751,3.366
1747653277.31,0.035,0.022,0.043,0.705,0.053,0.100,-83.798,-13.287,4.828
1747653277.32,0.017,0.013,0.068,0.670,0.067,0.105,-83.431,-11.970,6.115
1747653277.33,-0.015,0.001,0.084,0.729,0.021,0.108,-83.054,-10.776,7.291
1747653277.34,-0.053,-0.011,0.058,0.748,0.006,0.117,-82.647,-9.661,8.410
1747653277.35,-0.075,-0.007,0.056,0.743,0.036,0.138,-82.239,-8.599,9.468
1747653277.36,-0.061,-0.002,0.059,0.750,0.033,0.154,-81.828,-7.554,10.502
1747653277.37,-0.020,0.004,0.022,0.718,0.040,0.167,-81.422,-6.560,11.487
1747653277.38,0.027,0.010,0.033,0.698,0.053,0.153,-81.031,-5.670,12.361
1747653277.39,0.060,0.022,0.057,0.697,0.073,0.120,-80.643,-4.921,13.082
1747653277.40,0.050,0.038,0.101,0.738,0.058,0.086,-80.240,-4.341,13.631
1747653277.41,-0.011,0.039,0.124,0.760,0.001,0.076,-79.816,-3.890,14.070
1747653277.42,-0.097,0.022,0.093,0.757,-0.047,0.075,-79.386,-3.517,14.463
1747653277.43,-0.155,-0.003,0.065,0.765,-0.123,0.083,-78.955,-3.201,14.834
1747653277.44,-0.173,-0.026,0.029,0.789,-0.169,0.100,-78.515,-2.909,15.220
1747653277.45,-0.151,-0.037,-0.004,0.828,-0.127,0.119,-78.058,-2.579,15.644
1747653277.46,-0.095,-0.031,-0.000,0.921,-0.079,0.107,-77.562,-2.240,16.053
1747653277.47,-0.045,-0.003,-0.027,0.930,0.035,0.079,-77.031,-1.931,16.384
1747653277.48,-0.009,0.033,-0.006,0.860,0.156,0.049,-76.521,-1.655,16.613
1747653277.49,0.003,0.056,0.027,0.818,0.252,0.028,-76.043,-1.396,16.756
1747653277.50,-0.019,0.042,0.001,0.760,0.300,0.049,-75.591,-1.123,16.875
1747653277.51,-0.052,-0.006,-0.014,0.700,0.348,0.127,-75.176,-0.726,17.094
1747653277.52,-0.065,-0.073,0.025,0.696,0.421,0.231,-74.780,-0.119,17.496
1747653277.53,-0.028,-0.120,0.034,0.718,0.469,0.331,-74.375,0.718,18.096
1747653277.54,0.051,-0.121,0.027,0.768,0.408,0.390,-73.948,1.673,18.825
1747653277.55,0.121,-0.074,0.002,0.841,0.313,0.388,-73.480,2.587,19.564
1747653277.56,0.177,-0.009,-0.024,0.858,0.282,0.322,-72.983,3.348,20.186
1747653277.57,0.208,0.047,0.014,0.911,0.302,0.216,-72.472,3.910,20.599
1747653277.58,0.165,0.071,0.055,0.964,0.210,0.144,-71.929,4.255,20.802
1747653277.59,0.051,0.059,0.004,0.948,0.046,0.137,-71.375,4.438,20.918
1747653277.60,-0.045,0.024,-0.040,0.849,-0.042,0.171,-70.853,4.567,21.057
1747653277.61,-0.074,-0.013,-0.028,0.721,-0.014,0.237,-70.398,4.770,21.293
1747653277.62,-0.043,-0.043,0.025,0.661,0.045,0.315,-69.994,5.121,21.657
1747653277.63,0.019,-0.051,0.048,0.657,0.097,0.367,-69.602,5.599,22.124
1747653277.64,0.078,-0.030,0.069,0.711,0.175,0.345,-69.196,6.118,22.594
1747653277.65,0.117,0.007,0.095,0.807,0.137,0.252,-68.746,6.532,22.938
1747653277.66,0.093,0.040,0.048,0.831,0.012,0.176,-68.265,6.742,23.116
1747653277.67,0.042,0.056,-0.024,0.829,-0.038,0.132,-67.784,6.805,23.195
1747653277.68,0.004,0.056,-0.062,0.847,-0.038,0.102,-67.301,6.805,23.219
1747653277.69,-0.038,0.046,-0.057,0.838,0.009,0.076,-66.816,6.777,23.201
1747653277.70,-0.095,0.021,-0.007,0.812,0.142,0.083,-66.343,6.792,23.172
1747653277.71,-0.133,-0.017,0.001,0.778,0.208,0.118,-65.884,6.906,23.179
1747653277.72,-0.147,-0.052,-0.055,0.731,0.151,0.180,-65.446,7.078,23.255
1747653277.73,-0.127,-0.084,-0.103,0.691,0.180,0.259,-65.028,7.327,23.430
1747653277.74,-0.038,-0.106,-0.064,0.660,0.239,0.328,-64.625,7.698,23.706
1747653277.75,0.059,-0.111,-0.009,0.680,0.266,0.350,-64.220,8.139,24.034
1747653277.76,0.128,-0.086,0.033,0.749,0.283,0.316,-63.791,8.563,24.332
1747653277.77,0.167,-0.032,0.050,0.785,0.244,0.276,-63.329,8.919,24.557
1747653277.78,0.158,0.022,0.044,0.754,0.130,0.226,-62.873,9.174,24.719
1747653277.79,0.089,0.048,0.042,0.789,-0.001,0.182,-62.421,9.297,24.816
1747653277.80,0.013,0.041,-0.034,0.832,-0.150,0.177,-61.947,9.302,24.868
1747653277.81,-0.010,0.019,-0.097,0.839,-0.244,0.187,-61.458,9.235,24.924
1747653277.82,-0.012,-0.002,-0.099,0.812,-0.230,0.163,-60.974,9.140,24.974
1747653277.83,-0.028,-0.016,-0.025,0.761,-0.182,0.130,-60.518,9.043,24.998
1747653277.84,-0.057,-0.025,0.020,0.703,-0.098,0.117,-60.093,8.967,25.004
1747653277.85,-0.076,-0.022,-0.016,0.636,-0.002,0.133,-59.705,8.956,25.024
1747653277.86,-0.061,-0.008,0.040,0.646,0.088,0.186,-59.332,9.036,25.089
1747653277.87,-0.013,0.006,0.081,0.687,0.150,0.246,-58.936,9.209,25.209
1747653277.88,0.034,0.029,0.071,0.698,0.159,0.261,-58.521,9.431,25.364
1747653277.89,0.049,0.056,0.029,0.689,0.126,0.222,-58.108,9.631,25.499
1747653277.90,0.053,0.077,-0.006,0.686,0.003,0.190,-57.701,9.750,25.592
1747653277.91,0.033,0.073,-0.049,0.684,-0.139,0.174,-57.298,9.765,25.659
1747653277.92,-0.005,0.051,-0.063,0.672,-0.176,0.155,-56.902,9.715,25.710
1747653277.93,-0.030,0.030,-0.022,0.701,-0.183,0.119,-56.502,9.631,25.732
1747653277.94,-0.026,0.022,0.006,0.729,-0.191,0.085,-56.089,9.507,25.713
1747653277.95,-0.010,0.025,0.030,0.755,-0.164,0.071,-55.663,9.367,25.665
1747653277.96,0.013,0.029,0.073,0.774,-0.154,0.083,-55.225,9.236,25.615
1747653277.97,0.027,0.027,0.061,0.808,-0.137,0.102,-54.773,9.123,25.581
1747653277.98,0.021,0.018,0.020,0.860,-0.050,0.126,-54.291,9.054,25.563
1747653277.99,0.008,0.013,-0.003,0.829,0.034,0.124,-53.801,9.045,25.555
1747653278.00,-0.017,0.002,-0.008,0.742,0.013,0.087,-53.347,9.049,25.538
1747653278.01,-0.073,-0.013,-0.027,0.679,-0.063,0.056,-52.941,9.001,25.497
1747653278.02,-0.130,-0.035,-0.058,0.626,-0.102,0.057,-52.568,8.917,25.453
1747653278.03,-0.144,-0.044,-0.030,0.590,-0.042,0.060,-52.221,8.845,25.419
1747653278.04,-0.132,-0.026,0.060,0.617,0.079,0.065,-51.878,8.836,25.392
1747653278.05,-0.106,0.004,0.126,0.713,0.147,0.058,-51.498,8.875,25.357
1747653278.06,-0.075,0.033,0.099,0.816,0.194,0.054,-51.061,8.929,25.300
1747653278.07,-0.024,0.057,0.041,0.851,0.178,0.029,-50.585,8.975,25.221
1747653278.08,0.020,0.071,-0.030,0.811,0.165,0.023,-50.112,8.998,25.127
1747653278.09,0.055,0.060,-0.054,0.771,0.119,-0.015,-49.666,9.002,25.018
1747653278.10,0.092,0.033,-0.060,0.769,0.004,-0.008,-49.233,8.947,24.900
1747653278.11,0.104,0.000,-0.052,0.733,-0.050,0.016,-48.807,8.856,24.800
1747653278.12,0.096,-0.023,0.022,0.677,-0.055,0.044,-48.407,8.775,24.732
1747653278.13,0.086,-0.039,0.055,0.603,-0.075,0.071,-48.041,8.712,24.697
1747653278.14,0.073,-0.044,0.042,0.561,-0.098,0.109,-47.707,8.661,24.698
1747653278.15,0.054,-0.042,0.058,0.572,-0.098,0.158,-47.376,8.635,24.739
1747653278.16,0.050,-0.036,0.062,0.583,-0.096,0.194,-47.035,8.635,24.814
1747653278.17,0.070,-0.017,0.026,0.618,-0.090,0.207,-46.680,8.650,24.906
1747653278.18,0.093,0.019,-0.004,0.652,-0.123,0.177,-46.304,8.649,24.986
1747653278.19,0.080,0.062,-0.042,0.657,-0.154,0.119,-45.919,8.599,25.027
1747653278.20,0.037,0.093,-0.068,0.628,-0.182,0.066,-45.549,8.501,25.024
1747653278.21,-0.018,0.092,-0.050,0.621,-0.223,0.037,-45.192,8.360,24.990
1747653278.22,-0.066,0.058,-0.016,0.640,-0.223,0.031,-44.835,8.198,24.944
1747653278.23,-0.084,0.018,0.034,0.685,-0.181,0.033,-44.458,8.048,24.894
1747653278.24,-0.072,-0.017,0.051,0.700,-0.172,0.034,-44.062,7.914,24.843
1747653278.25,-0.048,-0.044,0.015,0.686,-0.164,0.040,-43.667,7.784,24.798
1747653278.26,-0.013,-0.059,-0.060,0.646,-0.113,0.034,-43.286,7.677,24.757
1747653278.27,0.028,-0.055,-0.113,0.573,-0.138,0.017,-42.939,7.579,24.713
1747653278.28,0.022,-0.038,-0.151,0.494,-0.187,0.009,-42.638,7.452,24.667
1747653278.29,-0.010,-0.020,-0.105,0.471,-0.144,0.049,-42.364,7.337,24.641
1747653278.30,-0.023,-0.005,0.014,0.462,-0.058,0.085,-42.095,7.285,24.648
1747653278.31,-0.024,0.024,0.069,0.466,-0.008,0.099,-41.827,7.287,24.675
1747653278.32,-0.004,0.066,0.091,0.488,-0.034,0.101,-41.550,7.298,24.704
1747653278.33,0.030,0.088,0.089,0.524,-0.091,0.105,-41.257,7.282,24.734
1747653278.34,0.068,0.079,0.044,0.543,-0.176,0.106,-40.945,7.226,24.762
1747653278.35,0.084,0.059,-0.031,0.543,-0.288,0.087,-40.631,7.108,24.784
1747653278.36,0.076,0.038,-0.093,0.539,-0.357,0.053,-40.320,6.922,24.789
1747653278.37,0.040,0.016,-0.080,0.555,-0.294,0.010,-40.009,6.715,24.764
1747653278.38,-0.017,-0.003,-0.013,0.558,-0.165,-0.030,-39.694,6.547,24.707
1747653278.39,-0.078,-0.022,0.028,0.551,-0.071,-0.036,-39.381,6.435,24.634
1747653278.40,-0.132,-0.051,0.041,0.528,0.009,-0.000,-39.076,6.380,24.575
1747653278.41,-0.131,-0.082,0.033,0.486,0.075,0.032,-38.786,6.388,24.546
1747653278.42,-0.061,-0.097,0.019,0.461,0.076,0.033,-38.516,6.425,24.532
1747653278.43,0.006,-0.086,-0.003,0.477,0.045,0.019,-38.250,6.448,24.513
1747653278.44,0.042,-0.050,-0.012,0.496,-0.014,-0.014,-37.973,6.436,24.475
1747653278.45,0.040,0.002,-0.023,0.494,-0.089,-0.029,-37.694,6.371,24.418
1747653278.46,0.023,0.040,-0.032,0.500,-0.108,-0.032,-37.414,6.276,24.356
1747653278.47,0.010,0.050,-0.027,0.504,-0.071,-0.028,-37.131,6.190,24.298
1747653278.48,0.005,0.040,-0.024,0.505,-0.063,-0.034,-36.846,6.117,24.238
1747653278.49,-0.000,0.012,-0.020,0.492,-0.052,-0.018,-36.563,6.049,24.180
1747653278.50,0.003,-0.024,-0.002,0.468,-0.032,0.024,-36.290,6.005,24.146
1747653278.51,0.038,-0.050,-0.018,0.446,-0.055,0.071,-36.029,5.980,24.146
1747653278.52,0.072,-0.053,-0.046,0.446,-0.082,0.105,-35.771,5.959,24.176
1747653278.53,0.123,-0.032,-0.033,0.466,-0.129,0.130,-35.506,5.928,24.225
1747653278.54,0.171,0.003,-0.018,0.487,-0.156,0.137,-35.227,5.880,24.285
1747653278.55,0.185,0.047,-0.000,0.507,-0.160,0.121,-34.938,5.822,24.340
1747653278.56,0.135,0.070,0.024,0.516,-0.175,0.115,-34.638,5.752,24.384
1747653278.57,0.042,0.056,0.039,0.475,-0.171,0.144,-34.349,5.682,24.437
1747653278.58,-0.031,0.010,0.046,0.441,-0.124,0.193,-34.080,5.645,24.521
1747653278.59,-0.048,-0.038,0.027,0.428,-0.059,0.236,-33.821,5.659,24.641
1747653278.60,-0.033,-0.043,-0.009,0.404,0.018,0.237,-33.569,5.722,24.777
1747653278.61,-0.020,0.006,-0.028,0.334,0.029,0.200,-33.346,5.805,24.900
1747653278.62,-0.037,0.076,-0.058,0.316,0.019,0.160,-33.153,5.875,25.000
1747653278.63,-0.073,0.118,-0.051,0.316,0.011,0.138,-32.966,5.925,25.078
1747653278.64,-0.107,0.116,-0.022,0.319,-0.001,0.118,-32.778,5.964,25.144
1747653278.65,-0.111,0.081,0.008,0.311,-0.006,0.084,-32.593,5.986,25.190
1747653278.66,-0.088,0.042,0.020,0.314,0.017,0.039,-32.412,6.000,25.210
1747653278.67,-0.058,0.020,0.024,0.335,0.017,0.002,-32.227,6.007,25.200
1747653278.68,-0.050,0.012,0.024,0.334,0.008,-0.011,-32.037,5.999,25.173
1747653278.69,-0.044,0.010,-0.005,0.303,-0.006,-0.023,-31.855,5.982,25.139
1747653278.70,-0.034,0.014,-0.044,0.265,-0.006,-0.049,-31.696,5.955,25.096
1747653278.71,-0.035,0.033,-0.069,0.258,-0.009,-0.072,-31.551,5.921,25.037
1747653278.72,-0.049,0.055,-0.088,0.248,-0.010,-0.082,-31.412,5.879,24.968
1747653278.73,-0.068,0.057,-0.074,0.235,-0.012,-0.088,-31.280,5.837,24.896
1747653278.74,-0.068,0.042,-0.016,0.230,-0.007,-0.099,-31.157,5.791,24.818
1747653278.75,-0.042,0.012,0.023,0.272,-0.010,-0.092,-31.020,5.746,24.736
1747653278.76,0.001,-0.026,0.034,0.289,-0.032,-0.066,-30.864,5.699,24.665
1747653278.77,0.040,-0.045,-0.004,0.279,-0.039,-0.047,-30.705,5.648,24.610
1747653278.78,0.077,-0.041,-0.059,0.236,0.022,-0.064,-30.561,5.615,24.557
1747653278.79,0.103,-0.016,-0.077,0.213,0.062,-0.092,-30.439,5.609,24.491
1747653278.80,0.083,0.017,-0.090,0.184,0.046,-0.091,-30.330,5.603,24.417
1747653278.81,0.020,0.039,-0.056,0.151,0.046,-0.052,-30.240,5.600,24.358
1747653278.82,-0.015,0.036,0.002,0.145,0.038,-0.010,-30.159,5.610,24.330
1747653278.83,-0.004,-0.000,0.016,0.137,-0.015,0.019,-30.079,5.615,24.324
1747653278.84,0.020,-0.040,-0.002,0.131,-0.066,0.048,-30.001,5.598,24.337
1747653278.85,0.061,-0.041,-0.015,0.151,-0.082,0.048,-29.918,5.568,24.362
1747653278.86,0.085,-0.000,-0.000,0.177,-0.047,0.028,-29.822,5.539,24.376
1747653278.87,0.055,0.030,0.015,0.182,-0.003,0.035,-29.715,5.531,24.384
1747653278.88,-0.002,0.011,-0.001,0.159,0.038,0.062,-29.614,5.553,24.407
1747653278.89,-0.017,-0.029,-0.043,0.130,0.031,0.076,-29.528,5.593,24.444
1747653278.90,0.003,-0.042,-0.085,0.086,0.011,0.078,-29.464,5.627,24.487
1747653278.91,0.030,-0.027,-0.087,0.051,-0.012,0.077,-29.423,5.650,24.534
1747653278.92,0.028,0.015,-0.057,0.032,-0.031,0.066,-29.394,5.660,24.580
1747653278.93,0.003,0.064,-0.021,0.033,-0.047,0.064,-29.371,5.660,24.620
1747653278.94,-0.022,0.076,0.013,0.048,-0.075,0.070,-29.343,5.649,24.662
1747653278.95,-0.027,0.046,0.010,0.074,-0.070,0.068,-29.307,5.630,24.704
1747653278.96,-0.014,0.010,0.025,0.083,-0.063,0.052,-29.259,5.610,24.740
1747653278.97,-0.005,-0.002,0.040,0.090,-0.032,0.017,-29.205,5.589,24.756
1747653278.98,-0.011,0.002,0.012,0.051,-0.007,-0.023,-29.159,5.576,24.749
1747653278.99,-0.022,0.008,-0.054,-0.003,-0.002,-0.031,-29.145,5.563,24.729
1747653279.00,-0.019,-0.003,-0.100,-0.047,-0.007,0.002,-29.159,5.556,24.721
1747653279.01,-0.006,0.006,-0.065,-0.101,-0.046,0.061,-29.201,5.557,24.747
1747653279.02,0.043,0.051,-0.054,-0.136,-0.119,0.077,-29.269,5.534,24.802
1747653279.03,0.093,0.099,-0.058,-0.123,-0.116,0.065,-29.342,5.491,24.856
1747653279.04,0.108,0.112,-0.002,-0.089,-0.123,0.047,-29.399,5.446,24.900
1747653279.05,0.066,0.073,0.000,-0.069,-0.136,0.015,-29.443,5.383,24.925
1747653279.06,0.003,0.015,-0.011,-0.073,-0.093,0.009,-29.481,5.321,24.937
1747653279.07,-0.026,-0.036,-0.006,-0.135,-0.039,0.010,-29.538,5.288,24.948
1747653279.08,-0.012,-0.050,-0.060,-0.214,0.026,-0.000,-29.634,5.291,24.961
1747653279.09,0.002,-0.015,-0.103,-0.276,0.073,0.016,-29.773,5.330,24.979
1747653279.10,-0.005,0.044,-0.069,-0.307,0.039,0.039,-29.938,5.384,25.016
1747653279.11,0.003,0.084,-0.060,-0.314,0.008,0.032,-30.114,5.422,25.062
1747653279.12,0.014,0.088,-0.059,-0.312,-0.022,0.003,-30.293,5.437,25.094
1747653279.13,0.023,0.052,-0.071,-0.314,-0.011,-0.044,-30.473,5.429,25.102
1747653279.14,0.025,-0.004,-0.098,-0.323,0.047,-0.110,-30.657,5.423,25.071
1747653279.15,0.000,-0.044,-0.088,-0.372,0.103,-0.159,-30.861,5.431,25.002
1747653279.16,-0.060,-0.055,-0.084,-0.429,0.135,-0.166,-31.097,5.454,24.917
1747653279.17,-0.134,-0.042,-0.023,-0.454,0.179,-0.146,-31.356,5.505,24.841
1747653279.18,-0.144,-0.012,0.014,-0.474,0.163,-0.121,-31.627,5.575,24.783
1747653279.19,-0.075,0.016,-0.013,-0.486,0.096,-0.098,-31.906,5.627,24.742
1747653279.20,0.030,0.029,-0.050,-0.502,0.016,-0.097,-32.191,5.643,24.711
1747653279.21,0.118,0.035,-0.085,-0.532,-0.059,-0.125,-32.491,5.607,24.670
1747653279.22,0.149,0.029,-0.119,-0.507,-0.095,-0.140,-32.796,5.533,24.615
1747653279.23,0.122,0.002,-0.091,-0.441,-0.130,-0.143,-33.073,5.433,24.550
1747653279.24,0.057,-0.027,-0.059,-0.404,-0.149,-0.164,-33.321,5.312,24.475
1747653279.25,-0.005,-0.054,-0.032,-0.385,-0.134,-0.211,-33.555,5.174,24.373
1747653279.26,-0.058,-0.084,-0.023,-0.394,-0.098,-0.248,-33.788,5.033,24.238
1747653279.27,-0.080,-0.120,-0.042,-0.437,-0.075,-0.238,-34.036,4.904,24.095
1747653279.28,-0.062,-0.150,-0.073,-0.505,-0.085,-0.205,-34.314,4.788,23.969
1747653279.29,-0.028,-0.163,-0.093,-0.573,-0.035,-0.158,-34.631,4.698,23.874
1747653279.30,0.016,-0.153,-0.053,-0.646,0.023,-0.101,-34.984,4.664,23.820
1747653279.31,0.068,-0.127,-0.017,-0.689,0.062,-0.041,-35.367,4.682,23.809
1747653279.32,0.111,-0.095,-0.018,-0.735,0.084,0.008,-35.773,4.742,23.840
1747653279.33,0.136,-0.058,0.002,-0.761,0.103,0.023,-36.199,4.829,23.896
1747653279.34,0.142,-0.017,0.001,-0.759,0.081,0.024,-36.631,4.921,23.960
1747653279.35,0.124,0.014,-0.030,-0.757,0.009,0.013,-37.061,4.983,24.020
1747653279.36,0.074,0.029,-0.043,-0.763,-0.050,0.009,-37.492,5.003,24.074
1747653279.37,0.023,0.030,-0.052,-0.795,-0.098,0.012,-37.934,4.995,24.129
1747653279.38,-0.004,0.018,-0.064,-0.837,-0.123,0.026,-38.397,4.970,24.193
1747653279.39,-0.010,-0.002,-0.066,-0.877,-0.074,0.044,-38.884,4.962,24.274
1747653279.40,0.002,-0.020,-0.029,-0.870,-0.006,0.048,-39.380,4.997,24.364
1747653279.41,0.007,-0.028,-0.003,-0.844,0.018,0.038,-39.865,5.059,24.452
1747653279.42,-0.012,-0.024,-0.025,-0.873,-0.018,0.012,-40.350,5.109,24.528
1747653279.43,-0.038,-0.013,-0.022,-0.925,-0.049,0.006,-40.861,5.129,24.593
1747653279.44,-0.041,-0.008,-0.025,-0.962,-0.046,0.013,-41.397,5.148,24.664
1747653279.45,-0.011,-0.003,-0.022,-0.993,-0.056,0.012,-41.953,5.169,24.740
1747653279.46,0.008,0.006,-0.014,-1.012,-0.041,0.005,-42.523,5.191,24.818
1747653279.47,0.019,0.016,0.000,-1.007,-0.001,-0.002,-43.099,5.231,24.892
1747653279.48,0.021,0.023,0.013,-0.985,-0.016,-0.012,-43.665,5.274,24.958
1747653279.48,0.000,0.031,-0.016,-1.000,-0.070,-0.022,-44.229,5.291,25.017
1747653279.49,-0.020,0.034,-0.042,-1.046,-0.097,-0.010,-44.812,5.286,25.080
1747653279.50,-0.018,0.023,-0.032,-1.072,-0.081,0.003,-45.415,5.289,25.155
1747653279.51,-0.003,0.003,-0.017,-1.090,-0.073,0.007,-46.029,5.307,25.242
1747653279.53,0.011,-0.015,-0.017,-1.108,-0.048,-0.001,-46.655,5.334,25.330
1747653279.53,0.022,-0.030,-0.019,-1.127,0.005,-0.031,-47.291,5.376,25.406
1747653279.55,0.006,-0.039,-0.014,-1.120,0.044,-0.084,-47.933,5.423,25.449
1747653279.55,-0.044,-0.043,-0.010,-1.090,0.060,-0.135,-48.567,5.451,25.444
1747653279.56,-0.103,-0.044,-0.027,-1.091,0.064,-0.162,-49.194,5.457,25.405
1747653279.57,-0.134,-0.044,-0.050,-1.137,0.073,-0.156,-49.836,5.460,25.358
1747653279.58,-0.121,-0.043,-0.049,-1.174,0.069,-0.139,-50.501,5.474,25.323
1747653279.59,-0.075,-0.040,-0.041,-1.211,0.050,-0.113,-51.187,5.497,25.312
1747653279.60,-0.007,-0.034,-0.014,-1.222,0.076,-0.089,-51.885,5.544,25.328
1747653279.61,0.064,-0.022,0.010,-1.199,0.132,-0.082,-52.578,5.629,25.360
1747653279.62,0.102,-0.002,0.007,-1.180,0.127,-0.113,-53.259,5.722,25.381
1747653279.63,0.084,0.018,0.004,-1.145,0.101,-0.140,-53.927,5.780,25.372
1747653279.64,0.041,0.027,-0.014,-1.136,0.081,-0.153,-54.582,5.808,25.341
1747653279.65,0.010,0.024,-0.026,-1.152,0.033,-0.149,-55.240,5.813,25.306
1747653279.66,-0.005,0.011,-0.037,-1.177,-0.028,-0.121,-55.907,5.799,25.288
1747653279.67,-0.000,-0.001,-0.057,-1.211,-0.026,-0.113,-56.593,5.786,25.294
1747653279.68,0.015,-0.009,-0.034,-1.202,0.014,-0.131,-57.286,5.787,25.298
1747653279.69,0.024,-0.010,-0.019,-1.167,-0.008,-0.163,-57.967,5.768,25.270
1747653279.70,0.021,-0.008,-0.030,-1.151,-0.077,-0.178,-58.634,5.694,25.211
1747653279.71,0.024,-0.009,-0.026,-1.178,-0.107,-0.176,-59.304,5.582,25.142
1747653279.72,0.044,-0.013,-0.027,-1.212,-0.101,-0.176,-59.993,5.464,25.076
1747653279.73,0.070,-0.028,-0.003,-1.212,-0.097,-0.189,-60.692,5.339,24.998
1747653279.74,0.083,-0.048,0.011,-1.220,-0.083,-0.204,-61.394,5.198,24.897
1747653279.75,0.083,-0.070,0.006,-1.203,-0.093,-0.220,-62.095,5.040,24.773
1747653279.76,0.069,-0.083,-0.022,-1.171,-0.165,-0.225,-62.782,4.836,24.624
1747653279.77,0.044,-0.078,-0.081,-1.167,-0.220,-0.218,-63.456,4.583,24.467
1747653279.78,0.017,-0.059,-0.099,-1.197,-0.213,-0.228,-64.140,4.307,24.300
1747653279.79,-0.016,-0.029,-0.060,-1.194,-0.166,-0.270,-64.832,4.007,24.088
1747653279.80,-0.064,-0.003,-0.018,-1.168,-0.103,-0.317,-65.517,3.663,23.795
1747653279.81,-0.114,0.015,0.006,-1.146,-0.021,-0.342,-66.187,3.293,23.429
1747653279.82,-0.143,0.015,0.021,-1.160,0.063,-0.337,-66.854,2.939,23.030
1747653279.83,-0.149,0.000,0.034,-1.197,0.091,-0.309,-67.534,2.623,22.637
1747653279.84,-0.125,-0.022,0.030,-1.248,0.078,-0.262,-68.239,2.344,22.283
1747653279.85,-0.069,-0.042,0.023,-1.303,0.085,-0.220,-68.972,2.112,21.986
1747653279.86,0.003,-0.045,0.007,-1.324,0.079,-0.208,-69.727,1.909,21.717
1747653279.87,0.066,-0.039,0.001,-1.277,0.031,-0.224,-70.475,1.667,21.427
1747653279.88,0.095,-0.030,-0.008,-1.188,0.011,-0.258,-71.183,1.336,21.065
1747653279.89,0.098,-0.022,0.007,-1.104,0.011,-0.295,-71.841,0.907,20.607
1747653279.90,0.096,-0.010,0.000,-1.062,-0.013,-0.335,-72.458,0.369,20.043
1747653279.91,0.078,0.005,-0.041,-1.098,0.023,-0.358,-73.074,-0.271,19.371
1747653279.92,0.055,0.012,-0.022,-1.147,0.057,-0.362,-73.715,-0.961,18.624
1747653279.93,0.025,0.010,0.011,-1.093,-0.003,-0.354,-74.354,-1.712,17.826
1747653279.94,-0.013,0.001,-0.030,-0.987,-0.018,-0.346,-74.939,-2.532,16.986
1747653279.95,-0.031,-0.020,-0.031,-0.997,0.068,-0.323,-75.489,-3.357,16.121
1747653279.96,-0.027,-0.044,0.046,-1.084,0.168,-0.287,-76.071,-4.127,15.256
1747653279.97,-0.022,-0.067,0.051,-1.127,0.197,-0.271,-76.691,-4.880,14.370
1747653279.98,-0.038,-0.082,-0.020,-1.114,0.157,-0.265,-77.315,-5.694,13.430
1747653279.99,-0.044,-0.089,-0.055,-1.060,0.146,-0.248,-77.918,-6.575,12.441
1747653280.00,-0.017,-0.089,-0.028,-0.999,0.164,-0.227,-78.483,-7.470,11.437
1747653280.01,-0.003,-0.069,0.032,-0.949,0.188,-0.222,-79.017,-8.385,10.400
1747653280.02,-0.019,-0.031,0.041,-0.902,0.148,-0.239,-79.518,-9.398,9.269
1747653280.03,-0.043,0.021,-0.027,-0.912,0.126,-0.259,-80.001,-10.592,7.980
1747653280.04,-0.049,0.060,-0.048,-0.966,0.224,-0.268,-80.497,-11.972,6.484
1747653280.05,-0.028,0.076,0.013,-0.994,0.393,-0.274,-81.011,-13.480,4.776
1747653280.06,0.011,0.072,0.071,-0.994,0.402,-0.293,-81.522,-15.180,2.820
1747653280.07,0.015,0.064,0.056,-0.992,0.347,-0.302,-82.019,-17.187,0.576
1747653280.08,0.005,0.036,0.007,-0.995,0.301,-0.289,-82.505,-19.498,-1.945
1747653280.09,0.033,-0.003,0.011,-0.975,0.232,-0.276,-82.975,-22.097,-4.717
1747653280.10,0.057,-0.039,0.020,-0.930,0.191,-0.272,-83.412,-24.997,-7.758
1747653280.11,0.061,-0.063,0.035,-0.872,0.181,-0.275,-83.801,-28.188,-11.077
1747653280.12,0.062,-0.067,0.025,-0.833,0.093,-0.282,-84.143,-31.717,-14.708
1747653280.13,0.040,-0.049,-0.004,-0.805,0.000,-0.287,-84.441,-35.630,-18.664
1747653280.14,0.012,-0.020,-0.029,-0.854,-0.017,-0.284,-84.713,-40.040,-23.087
1747653280.15,-0.006,0.003,-0.007,-0.904,-0.000,-0.280,-84.976,-45.137,-28.200
1747653280.16,-0.027,0.017,0.010,-0.856,-0.009,-0.275,-85.198,-50.747,-33.828
1747653280.17,-0.050,0.026,-0.012,-0.755,0.015,-0.259,-85.349,-56.328,-39.428
1747653280.18,-0.058,0.019,-0.023,-0.706,0.070,-0.238,-85.442,-61.624,-44.766
1747653280.19,-0.055,0.007,0.020,-0.727,0.103,-0.216,-85.502,-66.932,-50.141
1747653280.20,-0.057,0.001,0.047,-0.729,0.081,-0.190,-85.539,-72.397,-55.678
1747653280.21,-0.068,-0.000,0.019,-0.679,0.016,-0.187,-85.540,-77.716,-61.041
1747653280.22,-0.081,-0.007,-0.008,-0.640,-0.029,-0.186,-85.499,-82.684,-66.017
1747653280.23,-0.071,-0.026,-0.013,-0.613,0.020,-0.163,-85.431,-87.299,-70.643
1747653280.24,-0.027,-0.054,-0.008,-0.586,0.108,-0.127,-85.351,-91.520,-74.913
1747653280.25,0.004,-0.076,-0.007,-0.566,0.202,-0.087,-85.270,-95.394,-78.890
1747653280.26,0.004,-0.072,0.015,-0.542,0.202,-0.064,-85.188,-98.956,-82.588
1747653280.27,-0.034,-0.038,0.007,-0.549,0.150,-0.074,-85.093,-102.372,-86.115
1747653280.28,-0.090,-0.002,-0.020,-0.557,0.209,-0.101,-84.968,-105.669,-89.525
1747653280.29,-0.104,0.023,-0.019,-0.551,0.284,-0.125,-84.813,-108.700,-92.710
1747653280.30,-0.073,0.031,-0.011,-0.505,0.321,-0.133,-84.639,-111.343,-95.538
1747653280.31,-0.035,0.024,-0.032,-0.420,0.337,-0.117,-84.471,-113.439,-97.834
1747653280.32,0.010,0.016,-0.060,-0.324,0.273,-0.095,-84.329,-114.986,-99.567
1747653280.33,0.049,0.028,-0.083,-0.229,0.131,-0.066,-84.221,-116.096,-100.798
1747653280.34,0.063,0.055,-0.082,-0.197,-0.049,-0.041,-84.142,-116.985,-101.715
1747653280.35,0.050,0.071,-0.043,-0.216,-0.190,-0.030,-84.070,-117.984,-102.647
1747653280.36,0.025,0.066,-0.002,-0.258,-0.196,-0.023,-83.994,-119.158,-103.713
1747653280.37,0.013,0.046,0.035,-0.306,-0.106,-0.022,-83.904,-120.509,-104.981
1747653280.38,0.010,0.021,0.064,-0.323,0.010,-0.039,-83.797,-121.888,-106.340
1747653280.39,0.005,-0.020,0.078,-0.303,0.086,-0.057,-83.676,-123.099,-107.588
1747653280.40,0.009,-0.070,0.078,-0.245,0.103,-0.058,-83.561,-124.041,-108.593
1747653280.41,0.022,-0.099,0.038,-0.191,0.013,-0.031,-83.467,-124.782,-109.376
1747653280.42,0.041,-0.092,-0.027,-0.115,-0.103,-0.005,-83.409,-125.386,-109.958
1747653280.43,0.050,-0.053,-0.053,-0.050,-0.226,0.020,-83.385,-125.822,-110.304
1747653280.44,0.033,0.000,-0.032,-0.002,-0.307,0.036,-83.390,-126.157,-110.484
1747653280.45,-0.001,0.038,0.003,0.011,-0.251,0.022,-83.406,-126.392,-110.557
1747653280.46,-0.043,0.047,0.031,0.039,-0.114,-0.006,-83.418,-126.426,-110.485
1747653280.47,-0.070,0.022,0.004,0.050,0.039,-0.025,-83.426,-126.214,-110.250
1747653280.48,-0.071,-0.011,-0.028,0.034,0.150,-0.030,-83.427,-125.901,-109.994
1747653280.49,-0.063,-0.029,-0.019,-0.003,0.167,-0.018,-83.421,-125.678,-109.862
1747653280.50,-0.051,-0.035,0.000,-0.051,0.187,0.003,-83.409,-125.676,-109.959
1747653280.51,-0.027,-0.030,0.041,-0.065,0.242,0.026,-83.398,-125.835,-110.244
1747653280.52,0.003,-0.018,0.092,-0.035,0.236,0.041,-83.399,-126.003,-110.552
1747653280.53,0.031,-0.006,0.097,-0.012,0.155,0.049,-83.413,-126.117,-110.782
1747653280.54,0.060,0.006,0.082,-0.006,0.057,0.048,-83.431,-126.235,-110.961
1747653280.55,0.089,0.020,0.045,-0.008,-0.032,0.029,-83.445,-126.370,-111.104
1747653280.56,0.106,0.032,0.011,0.036,-0.124,-0.011,-83.452,-126.375,-111.065
1747653280.57,0.101,0.038,-0.011,0.083,-0.200,-0.049,-83.456,-126.121,-110.714
1747653280.58,0.082,0.026,0.001,0.124,-0.227,-0.052,-83.466,-125.653,-110.119
1747653280.59,0.057,0.002,0.043,0.150,-0.228,-0.010,-83.495,-125.143,-109.473
1747653280.60,0.023,-0.017,0.054,0.163,-0.170,0.021,-83.549,-124.645,-108.856
1747653280.61,-0.028,-0.022,0.053,0.163,-0.139,0.016,-83.610,-124.125,-108.245
1747653280.62,-0.085,-0.019,0.052,0.168,-0.160,0.006,-83.667,-123.552,-107.582
1747653280.63,-0.122,-0.029,0.034,0.154,-0.151,0.009,-83.722,-122.972,-106.906
1747653280.64,-0.128,-0.044,0.029,0.149,-0.119,0.039,-83.780,-122.476,-106.331
1747653280.65,-0.107,-0.047,0.040,0.204,-0.082,0.063,-83.860,-121.912,-105.705
1747653280.66,-0.089,-0.024,0.035,0.253,0.005,0.064,-83.960,-121.078,-104.843
1747653280.67,-0.083,0.008,0.053,0.286,0.086,0.042,-84.065,-119.943,-103.729
1747653280.68,-0.074,0.036,0.058,0.329,0.094,0.015,-84.163,-118.490,-102.322
1747653280.69,-0.072,0.044,0.025,0.358,0.079,0.006,-84.258,-116.738,-100.610
1747653280.70,-0.053,0.034,0.020,0.355,0.085,0.041,-84.355,-114.899,-98.809
1747653280.71,-0.008,0.018,0.041,0.366,0.041,0.089,-84.470,-113.108,-97.049
1747653280.72,0.031,0.006,0.032,0.394,-0.057,0.109,-84.603,-111.237,-95.165
1747653280.73,0.039,-0.002,0.016,0.436,-0.128,0.107,-84.743,-109.144,-93.007
1747653280.74,0.046,-0.010,0.011,0.492,-0.148,0.101,-84.880,-106.653,-90.426
1747653280.75,0.047,-0.017,0.027,0.551,-0.162,0.104,-85.016,-103.653,-87.326
1747653280.76,0.026,-0.025,0.047,0.607,-0.180,0.107,-85.142,-100.144,-83.705
1747653280.77,-0.007,-0.030,0.052,0.658,-0.198,0.116,-85.257,-96.094,-79.532
1747653280.78,-0.041,-0.025,0.031,0.682,-0.204,0.116,-85.349,-91.614,-74.921
1747653280.79,-0.068,-0.013,0.020,0.711,-0.172,0.114,-85.409,-86.790,-69.973
1747653280.80,-0.081,0.004,0.027,0.744,-0.123,0.130,-85.435,-81.638,-64.720
1747653280.81,-0.078,0.021,0.063,0.777,-0.078,0.174,-85.436,-76.136,-59.143
1747653280.82,-0.071,0.038,0.099,0.805,-0.104,0.205,-85.412,-70.389,-53.328
1747653280.83,-0.087,0.052,0.104,0.855,-0.184,0.174,-85.331,-64.546,-47.384
1747653280.84,-0.129,0.055,0.084,0.885,-0.221,0.137,-85.173,-58.873,-41.573
1747653280.85,-0.150,0.025,0.080,0.919,-0.155,0.134,-84.951,-53.552,-36.121
1747653280.86,-0.127,-0.031,0.092,0.996,-0.132,0.127,-84.665,-48.438,-30.908
1747653280.87,-0.095,-0.068,0.058,1.060,-0.224,0.113,-84.305,-43.667,-26.014
1747653280.88,-0.068,-0.075,0.011,1.063,-0.286,0.156,-83.898,-39.370,-21.543
1747653280.89,-0.007,-0.057,0.025,1.025,-0.255,0.237,-83.493,-35.440,-17.432
1747653280.90,0.058,-0.020,0.082,1.020,-0.228,0.256,-83.088,-31.803,-13.635
1747653280.91,0.063,0.020,0.088,1.028,-0.273,0.178,-82.645,-28.714,-10.379
1747653280.92,0.011,0.048,0.039,0.986,-0.299,0.103,-82.169,-26.352,-7.830
1747653280.93,-0.033,0.045,0.021,0.880,-0.202,0.108,-81.711,-24.518,-5.827
1747653280.94,-0.041,0.017,0.045,0.771,0.043,0.175,-81.312,-22.812,-4.054
1747653280.95,-0.011,-0.023,0.101,0.735,0.270,0.251,-80.963,-20.973,-2.288
1747653280.96,0.026,-0.044,0.120,0.825,0.385,0.318,-80.603,-18.909,-0.390
1747653280.97,0.050,-0.034,0.058,0.918,0.386,0.354,-80.185,-16.697,1.625
1747653280.98,0.064,-0.004,-0.002,0.967,0.335,0.354,-79.719,-14.566,3.580
1747653280.99,0.068,0.030,0.003,0.930,0.350,0.359,-79.237,-12.618,5.366
1747653281.00,0.073,0.040,0.101,0.848,0.411,0.385,-78.785,-10.804,6.991
1747653281.01,0.071,0.027,0.185,0.862,0.368,0.399,-78.347,-9.072,8.528
1747653281.02,0.029,0.000,0.116,0.922,0.229,0.360,-77.874,-7.527,9.930
1747653281.03,-0.048,-0.020,-0.000,0.921,0.140,0.307,-77.371,-6.275,11.108
1747653281.04,-0.091,-0.035,-0.030,0.870,0.153,0.270,-76.880,-5.254,12.073
1747653281.05,-0.081,-0.050,-0.020,0.899,0.232,0.244,-76.394,-4.351,12.888
1747653281.06,-0.048,-0.054,-0.036,0.998,0.223,0.204,-75.861,-3.548,13.575
1747653281.07,-0.026,-0.029,-0.043,1.009,0.081,0.165,-75.291,-2.925,14.127
1747653281.08,-0.030,0.013,-0.044,0.924,0.005,0.147,-74.741,-2.481,14.566
1747653281.09,-0.029,0.046,-0.017,0.810,0.076,0.160,-74.251,-2.079,14.964
1747653281.10,-0.031,0.055,0.028,0.726,0.202,0.193,-73.817,-1.598,15.381
1747653281.11,-0.033,0.035,0.013,0.663,0.262,0.230,-73.425,-1.020,15.840
1747653281.12,-0.013,-0.004,0.044,0.680,0.272,0.280,-73.046,-0.373,16.358
1747653281.13,0.031,-0.047,0.092,0.815,0.311,0.330,-72.624,0.365,16.954
1747653281.14,0.084,-0.072,0.061,0.991,0.238,0.333,-72.105,1.108,17.564
1747653281.15,0.112,-0.062,-0.040,1.073,0.093,0.293,-71.506,1.710,18.096
1747653281.16,0.108,-0.029,-0.118,1.063,-0.048,0.223,-70.891,2.096,18.493
1747653281.17,0.075,0.008,-0.113,1.053,-0.038,0.155,-70.282,2.305,18.749
1747653281.18,0.021,0.032,-0.051,0.946,0.201,0.087,-69.704,2.468,18.880
1747653281.19,-0.042,0.042,0.064,0.769,0.433,0.051,-69.214,2.702,18.927
1747653281.20,-0.131,0.029,0.137,0.653,0.356,0.067,-68.810,2.967,18.960
1747653281.21,-0.247,-0.000,-0.024,0.542,0.181,0.177,-68.464,3.239,19.089
1747653281.22,-0.316,-0.029,-0.117,0.420,0.096,0.340,-68.183,3.643,19.444
1747653281.23,-0.236,-0.045,0.005,0.461,0.212,0.463,-67.923,4.258,20.018
1747653281.24,-0.058,-0.036,0.097,0.632,0.311,0.453,-67.593,5.003,20.656
1747653281.25,0.104,-0.007,0.076,0.800,0.250,0.313,-67.162,5.607,21.132
1747653281.26,0.164,0.041,-0.024,0.851,0.185,0.151,-66.678,5.924,21.344
1747653281.27,0.184,0.079,-0.048,0.891,0.213,0.074,-66.176,6.056,21.367
1747653281.28,0.178,0.082,-0.004,0.905,0.207,0.060,-65.662,6.141,21.323
1747653281.29,0.110,0.055,0.017,0.901,0.148,0.098,-65.143,6.213,21.294
1747653281.30,0.049,0.012,-0.016,0.823,0.096,0.175,-64.645,6.336,21.351
1747653281.31,0.038,-0.032,0.000,0.804,0.013,0.246,-64.173,6.508,21.508
1747653281.32,0.064,-0.072,-0.003,0.810,-0.029,0.318,-63.693,6.718,21.750
1747653281.33,0.128,-0.098,0.011,0.763,-0.055,0.371,-63.225,6.983,22.072
1747653281.34,0.166,-0.108,0.036,0.775,-0.117,0.353,-62.766,7.238,22.410
1747653281.35,0.140,-0.095,-0.037,0.786,-0.204,0.299,-62.299,7.392,22.688
1747653281.36,0.091,-0.068,-0.075,0.787,-0.277,0.275,-61.834,7.449,22.908
1747653281.37,0.060,-0.045,-0.055,0.810,-0.274,0.288,-61.361,7.471,23.116
1747653281.38,0.053,-0.025,-0.033,0.807,-0.172,0.312,-60.881,7.541,23.344
1747653281.39,0.050,-0.006,-0.003,0.805,-0.069,0.319,-60.401,7.686,23.587
1747653281.40,0.031,0.008,0.021,0.823,-0.029,0.303,-59.916,7.858,23.817
1747653281.41,0.008,0.013,0.010,0.828,-0.028,0.268,-59.427,8.008,24.007
1747653281.42,-0.003,0.000,-0.028,0.813,-0.074,0.252,-58.941,8.114,24.163
1747653281.43,-0.007,-0.031,-0.074,0.772,-0.122,0.257,-58.473,8.185,24.313
1747653281.44,-0.004,-0.064,-0.067,0.735,-0.108,0.279,-58.024,8.261,24.483
1747653281.45,0.006,-0.074,-0.041,0.723,-0.052,0.279,-57.591,8.372,24.667
1747653281.46,0.004,-0.063,-0.015,0.775,-0.042,0.261,-57.147,8.489,24.835
1747653281.47,-0.012,-0.034,-0.029,0.850,-0.027,0.251,-56.667,8.582,24.975
1747653281.48,-0.020,-0.002,-0.040,0.889,0.067,0.230,-56.152,8.687,25.088
1747653281.49,-0.019,0.022,-0.026,0.869,0.103,0.183,-55.636,8.802,25.162
1747653281.50,-0.040,0.024,-0.015,0.842,0.031,0.142,-55.138,8.865,25.190
1747653281.51,-0.056,0.010,-0.034,0.774,-0.009,0.127,-54.669,8.876,25.198
1747653281.52,-0.043,-0.010,-0.029,0.697,0.005,0.124,-54.244,8.882,25.209
1747653281.53,-0.008,-0.018,0.014,0.662,0.031,0.113,-53.851,8.904,25.221
1747653281.54,0.022,-0.001,0.056,0.667,0.030,0.098,-53.469,8.924,25.222
1747653281.55,0.043,0.042,0.066,0.685,0.005,0.102,-53.080,8.931,25.215
1747653281.56,0.058,0.094,0.066,0.717,-0.035,0.110,-52.676,8.920,25.212
1747653281.57,0.050,0.123,0.068,0.750,-0.070,0.131,-52.253,8.895,25.218
1747653281.58,0.026,0.117,0.051,0.789,-0.116,0.136,-51.806,8.855,25.233
1747653281.59,-0.004,0.093,0.019,0.774,-0.172,0.120,-51.351,8.775,25.239
1747653281.60,-0.038,0.065,-0.020,0.673,-0.138,0.097,-50.931,8.681,25.236
1747653281.61,-0.036,0.038,-0.037,0.571,-0.084,0.064,-50.575,8.609,25.223
1747653281.62,-0.045,0.015,-0.003,0.546,-0.069,0.048,-50.258,8.546,25.196
1747653281.63,-0.073,-0.001,0.037,0.545,-0.055,0.073,-49.945,8.495,25.175
1747653281.64,-0.070,-0.004,0.063,0.544,-0.052,0.103,-49.629,8.472,25.183
1747653281.65,-0.039,0.014,0.022,0.539,-0.056,0.113,-49.314,8.460,25.208
1747653281.66,0.007,0.043,-0.029,0.552,-0.080,0.091,-48.999,8.438,25.228
1747653281.67,0.042,0.068,-0.031,0.616,-0.158,0.067,-48.663,8.366,25.221
1747653281.68,0.054,0.082,-0.030,0.670,-0.228,0.062,-48.293,8.235,25.194
1747653281.69,0.055,0.079,-0.025,0.662,-0.270,0.065,-47.909,8.073,25.167
1747653281.70,0.045,0.062,-0.043,0.642,-0.300,0.071,-47.535,7.895,25.148
1747653281.71,0.017,0.033,-0.036,0.618,-0.252,0.080,-47.172,7.726,25.139
1747653281.72,0.001,-0.002,-0.008,0.595,-0.125,0.072,-46.824,7.617,25.136
1747653281.73,-0.005,-0.047,0.034,0.583,-0.053,0.068,-46.486,7.563,25.127
1747653281.74,-0.036,-0.095,0.011,0.547,-0.035,0.088,-46.159,7.541,25.129
1747653281.75,-0.070,-0.128,-0.032,0.510,-0.033,0.099,-45.853,7.536,25.150
1747653281.76,-0.089,-0.133,-0.048,0.507,-0.016,0.094,-45.559,7.540,25.174
1747653281.77,-0.079,-0.103,-0.007,0.512,-0.003,0.068,-45.265,7.545,25.187
1747653281.78,-0.073,-0.040,0.009,0.545,0.004,0.023,-44.962,7.529,25.166
1747653281.79,-0.083,0.026,0.013,0.553,0.015,-0.013,-44.650,7.496,25.110
1747653281.80,-0.099,0.060,0.024,0.537,0.011,-0.023,-44.342,7.452,25.038
1747653281.81,-0.101,0.042,-0.011,0.516,-0.036,-0.001,-44.043,7.402,24.972
1747653281.82,-0.085,0.005,-0.062,0.479,-0.092,0.041,-43.760,7.338,24.937
1747653281.83,-0.029,-0.022,-0.083,0.461,-0.045,0.070,-43.491,7.295,24.937
1747653281.84,0.045,-0.021,-0.039,0.476,0.045,0.021,-43.223,7.291,24.931
1747653281.85,0.073,0.003,-0.009,0.530,0.061,-0.041,-42.940,7.285,24.871
1747653281.86,0.042,0.023,-0.009,0.538,-0.023,-0.047,-42.638,7.236,24.781
1747653281.87,-0.007,0.016,-0.036,0.496,-0.071,-0.026,-42.347,7.154,24.702
1747653281.88,-0.002,-0.008,-0.023,0.477,-0.092,-0.002,-42.074,7.068,24.645
1747653281.89,0.036,-0.032,0.010,0.484,-0.078,0.034,-41.800,6.999,24.611
1747653281.90,0.079,-0.044,0.012,0.468,-0.083,0.080,-41.526,6.953,24.610
1747653281.91,0.110,-0.038,0.005,0.426,-0.097,0.109,-41.265,6.923,24.641
1747653281.92,0.123,-0.013,-0.016,0.383,-0.181,0.148,-41.029,6.885,24.702
1747653281.93,0.117,0.020,-0.065,0.381,-0.234,0.176,-40.803,6.820,24.790
1747653281.94,0.106,0.044,-0.082,0.401,-0.165,0.162,-40.570,6.763,24.883
1747653281.95,0.071,0.050,-0.040,0.425,-0.090,0.110,-40.326,6.737,24.948
1747653281.96,-0.015,0.029,-0.009,0.424,-0.081,0.073,-40.079,6.707,24.978
1747653281.97,-0.107,-0.009,-0.003,0.412,-0.053,0.081,-39.836,6.680,24.998
1747653281.98,-0.124,-0.039,0.028,0.393,0.017,0.087,-39.602,6.685,25.025
1747653281.99,-0.084,-0.047,0.059,0.397,0.059,0.081,-39.372,6.726,25.052
1747653282.00,-0.025,-0.047,0.035,0.380,0.020,0.081,-39.146,6.767,25.078
1747653282.01,0.027,-0.033,-0.036,0.331,-0.010,0.075,-38.938,6.785,25.103
1747653282.02,0.070,-0.000,-0.072,0.294,-0.039,0.071,-38.757,6.787,25.129
1747653282.03,0.071,0.036,-0.038,0.280,-0.077,0.073,-38.591,6.771,25.157
1747653282.04,0.038,0.052,-0.029,0.265,-0.081,0.079,-38.431,6.742,25.188
1747653282.05,0.003,0.044,-0.025,0.268,-0.050,0.095,-38.275,6.730,25.229
1747653282.06,-0.019,0.026,0.020,0.290,-0.053,0.114,-38.111,6.733,25.280
1747653282.07,-0.012,0.010,0.020,0.303,-0.034,0.125,-37.933,6.744,25.341
1747653282.08,0.026,0.004,0.017,0.279,-0.029,0.129,-37.758,6.768,25.408
1747653282.09,0.059,0.013,-0.001,0.241,-0.073,0.143,-37.602,6.788,25.484
1747653282.10,0.068,0.036,-0.040,0.218,-0.117,0.155,-37.463,6.784,25.570
1747653282.11,0.050,0.069,-0.035,0.204,-0.091,0.164,-37.332,6.780,25.666
1747653282.12,0.030,0.097,-0.010,0.197,-0.073,0.152,-37.208,6.793,25.763
1747653282.13,0.001,0.101,0.002,0.204,-0.054,0.134,-37.084,6.809,25.849
1747653282.14,-0.033,0.077,-0.004,0.184,-0.059,0.120,-36.964,6.822,25.922
1747653282.15,-0.049,0.025,-0.033,0.161,-0.076,0.100,-36.860,6.820,25.986
1747653282.16,-0.059,-0.037,-0.054,0.148,-0.042,0.083,-36.766,6.815,26.037
1747653282.17,-0.066,-0.082,-0.033,0.153,0.008,0.070,-36.676,6.831,26.079
1747653282.18,-0.046,-0.082,-0.030,0.148,0.032,0.047,-36.586,6.861,26.108
1747653282.19,-0.017,-0.028,-0.029,0.143,0.030,0.027,-36.502,6.888,26.121
1747653282.20,0.012,0.053,-0.014,0.151,-0.026,0.012,-36.420,6.891,26.121
1747653282.21,0.045,0.117,0.024,0.146,-0.073,0.009,-36.338,6.859,26.116
1747653282.22,0.064,0.122,0.037,0.157,-0.109,0.020,-36.252,6.804,26.114
1747653282.23,0.042,0.069,0.021,0.150,-0.095,0.027,-36.163,6.743,26.116
1747653282.24,-0.003,-0.004,-0.004,0.125,-0.038,0.036,-36.080,6.712,26.127
1747653282.25,-0.005,-0.052,-0.028,0.117,-0.002,0.030,-36.009,6.708,26.141
1747653282.26,-0.007,-0.056,-0.033,0.095,0.037,0.017,-35.945,6.721,26.146
1747653282.27,-0.013,-0.022,-0.036,0.069,0.066,0.020,-35.897,6.753,26.151
1747653282.28,-0.015,0.011,-0.051,0.046,0.082,0.036,-35.863,6.804,26.167
1747653282.29,-0.026,0.015,-0.039,0.033,0.120,0.047,-35.840,6.879,26.195
1747653282.30,-0.012,0.009,-0.022,0.022,0.141,0.025,-35.825,6.971,26.221
1747653282.31,0.002,0.007,-0.004,0.035,0.120,0.015,-35.811,7.054,26.232
1747653282.32,0.007,-0.004,0.003,0.054,0.055,0.016,-35.784,7.108,26.238
1747653282.33,0.021,-0.009,-0.018,0.065,0.004,0.012,-35.748,7.127,26.244
1747653282.34,0.038,0.005,-0.034,0.065,-0.055,-0.013,-35.707,7.110,26.239
1747653282.35,0.038,0.031,-0.054,0.006,-0.098,-0.053,-35.687,7.048,26.212
1747653282.36,0.008,0.046,-0.116,-0.046,-0.060,-0.066,-35.702,6.976,26.171
1747653282.37,-0.029,0.025,-0.106,-0.093,-0.001,-0.020,-35.745,6.941,26.142
1747653282.38,-0.075,-0.005,-0.021,-0.133,0.023,0.045,-35.810,6.960,26.160
1747653282.39,-0.053,-0.011,0.014,-0.142,-0.034,0.070,-35.885,6.992,26.216
1747653282.40,0.026,0.029,-0.019,-0.115,-0.101,0.064,-35.954,6.988,26.275
1747653282.41,0.098,0.074,-0.019,-0.093,-0.182,0.035,-36.007,6.935,26.320
1747653282.42,0.127,0.082,-0.010,-0.058,-0.252,-0.017,-36.049,6.819,26.332
1747653282.43,0.097,0.041,-0.047,-0.068,-0.229,-0.044,-36.083,6.667,26.314
1747653282.44,0.056,-0.015,-0.067,-0.127,-0.152,-0.029,-36.139,6.548,26.294
1747653282.45,0.016,-0.042,-0.055,-0.206,-0.134,0.016,-36.232,6.471,26.302
1747653282.46,-0.023,-0.035,-0.086,-0.292,-0.099,0.039,-36.371,6.422,26.341
1747653282.47,-0.040,-0.007,-0.094,-0.353,-0.017,0.045,-36.553,6.421,26.397
1747653282.48,-0.025,0.013,-0.057,-0.370,0.033,0.022,-36.758,6.460,26.452
1747653282.49,-0.020,0.024,-0.029,-0.373,0.016,-0.030,-36.969,6.497,26.482
1747653282.50,-0.043,0.031,-0.036,-0.368,-0.026,-0.093,-37.184,6.490,26.470
1747653282.51,-0.056,0.025,-0.057,-0.383,-0.064,-0.130,-37.402,6.436,26.420
1747653282.52,-0.038,0.002,-0.056,-0.426,-0.086,-0.146,-37.638,6.353,26.354
1747653282.53,-0.022,-0.019,-0.045,-0.466,-0.039,-0.156,-37.902,6.270,26.281
1747653282.54,-0.028,-0.024,-0.038,-0.491,-0.004,-0.168,-38.183,6.211,26.202
1747653282.55,-0.048,-0.022,-0.073,-0.549,0.015,-0.143,-38.486,6.167,26.128
1747653282.56,-0.062,-0.023,-0.089,-0.604,0.109,-0.100,-38.822,6.176,26.086
1747653282.56,-0.033,-0.023,-0.059,-0.637,0.159,-0.078,-39.180,6.247,26.071
1747653282.58,0.007,-0.012,-0.043,-0.664,0.143,-0.076,-39.555,6.332,26.067
1747653282.58,0.042,-0.000,-0.057,-0.682,0.082,-0.078,-39.941,6.397,26.066
1747653282.60,0.084,0.002,-0.077,-0.685,0.022,-0.083,-40.334,6.424,26.063
1747653282.61,0.105,-0.010,-0.076,-0.668,0.001,-0.098,-40.724,6.424,26.053
1747653282.61,0.103,-0.031,-0.064,-0.670,-0.034,-0.107,-41.109,6.400,26.031
1747653282.62,0.062,-0.061,-0.062,-0.693,-0.061,-0.097,-41.502,6.358,26.011
1747653282.63,0.016,-0.096,-0.074,-0.723,-0.039,-0.079,-41.909,6.324,26.004
1747653282.64,-0.016,-0.120,-0.055,-0.759,0.022,-0.059,-42.333,6.324,26.014
1747653282.65,-0.028,-0.131,-0.025,-0.802,0.072,-0.041,-42.779,6.371,26.043
1747653282.66,-0.013,-0.129,-0.052,-0.856,0.078,-0.021,-43.252,6.447,26.090
1747653282.67,0.011,-0.108,-0.069,-0.889,0.124,-0.006,-43.749,6.550,26.159
1747653282.68,0.036,-0.076,-0.033,-0.907,0.150,-0.006,-44.259,6.686,26.237
1747653282.69,0.049,-0.043,-0.023,-0.941,0.116,-0.016,-44.784,6.817,26.316
1747653282.70,0.037,-0.017,-0.046,-0.956,0.089,-0.012,-45.322,6.932,26.398
1747653282.71,0.028,-0.000,-0.058,-0.992,0.073,0.000,-45.873,7.043,26.488
1747653282.72,0.033,0.003,-0.038,-1.021,0.039,0.016,-46.443,7.153,26.596
1747653282.73,0.042,-0.001,-0.029,-1.020,-0.005,0.022,-47.020,7.253,26.719
1747653282.74,0.047,-0.002,-0.025,-1.008,-0.027,0.018,-47.594,7.335,26.845
1747653282.75,0.048,0.003,-0.010,-1.001,-0.006,0.005,-48.161,7.415,26.965
1747653282.76,0.049,0.013,-0.001,-1.013,-0.020,-0.010,-48.732,7.490,27.074
1747653282.77,0.031,0.016,-0.007,-1.027,-0.062,-0.002,-49.310,7.550,27.184
1747653282.78,0.012,0.014,-0.024,-1.069,-0.101,0.012,-49.902,7.598,27.309
1747653282.79,-0.001,0.008,-0.004,-1.116,-0.088,0.037,-50.519,7.660,27.461
1747653282.80,-0.005,-0.003,0.021,-1.136,-0.059,0.048,-51.155,7.754,27.636
1747653282.81,-0.007,-0.003,0.020,-1.137,-0.006,0.043,-51.794,7.880,27.820
1747653282.82,-0.007,0.008,0.007,-1.140,0.028,0.017,-52.436,8.025,27.995
1747653282.83,-0.006,0.024,-0.005,-1.143,0.044,-0.014,-53.081,8.168,28.148
1747653282.84,-0.011,0.036,-0.025,-1.141,0.043,-0.052,-53.729,8.296,28.275
1747653282.85,-0.022,0.036,-0.042,-1.153,0.004,-0.086,-54.383,8.387,28.371
1747653282.86,-0.039,0.024,-0.053,-1.169,-0.050,-0.119,-55.049,8.428,28.438
1747653282.87,-0.058,0.001,-0.048,-1.161,-0.066,-0.148,-55.718,8.424,28.477
1747653282.88,-0.073,-0.022,-0.052,-1.160,-0.062,-0.182,-56.387,8.394,28.483
1747653282.89,-0.084,-0.037,-0.042,-1.144,-0.051,-0.212,-57.055,8.335,28.453
1747653282.90,-0.088,-0.044,-0.038,-1.142,-0.000,-0.221,-57.718,8.275,28.399
1747653282.91,-0.069,-0.043,-0.033,-1.170,0.047,-0.207,-58.389,8.245,28.349
1747653282.92,-0.037,-0.043,-0.014,-1.194,0.066,-0.183,-59.074,8.258,28.325
1747653282.93,0.000,-0.040,-0.019,-1.205,0.069,-0.170,-59.766,8.295,28.324
1747653282.94,0.034,-0.036,-0.023,-1.217,0.091,-0.175,-60.465,8.346,28.331
1747653282.95,0.059,-0.035,-0.005,-1.199,0.105,-0.179,-61.164,8.406,28.334
1747653282.96,0.073,-0.038,-0.012,-1.159,0.041,-0.186,-61.844,8.443,28.325
1747653282.97,0.071,-0.038,-0.054,-1.167,-0.046,-0.195,-62.514,8.416,28.299
1747653282.98,0.061,-0.039,-0.063,-1.225,-0.064,-0.203,-63.207,8.357,28.270
1747653282.99,0.072,-0.046,-0.008,-1.247,-0.098,-0.210,-63.925,8.285,28.239
1747653283.00,0.075,-0.041,0.001,-1.215,-0.148,-0.232,-64.639,8.163,28.184
1747653283.01,0.061,-0.023,-0.036,-1.220,-0.140,-0.254,-65.346,7.991,28.089
1747653283.02,0.060,0.002,-0.013,-1.201,-0.101,-0.290,-66.055,7.794,27.946
1747653283.03,0.048,0.022,0.022,-1.107,-0.106,-0.319,-66.733,7.542,27.734
1747653283.04,0.009,0.031,-0.012,-1.052,-0.136,-0.340,-67.365,7.216,27.455
1747653283.05,-0.023,0.032,-0.042,-1.042,-0.143,-0.338,-67.982,6.846,27.144
1747653283.06,-0.035,0.021,-0.038,-1.004,-0.115,-0.347,-68.586,6.455,26.804
1747653283.07,-0.047,0.003,-0.043,-0.997,-0.078,-0.363,-69.173,6.036,26.415
1747653283.08,-0.056,-0.029,-0.023,-1.043,-0.013,-0.352,-69.774,5.622,26.001
1747653283.09,-0.049,-0.067,0.005,-1.096,0.094,-0.326,-70.399,5.272,25.604
1747653283.10,-0.027,-0.096,-0.010,-1.186,0.177,-0.292,-71.065,5.014,25.248
1747653283.11,0.006,-0.106,0.012,-1.223,0.256,-0.256,-71.767,4.854,24.946
1747653283.12,0.036,-0.097,0.050,-1.203,0.229,-0.216,-72.468,4.762,24.700
1747653283.13,0.040,-0.063,0.042,-1.220,0.196,-0.199,-73.166,4.683,24.495
1747653283.14,0.025,-0.021,0.050,-1.243,0.220,-0.201,-73.877,4.611,24.296
1747653283.15,0.018,0.016,0.073,-1.189,0.152,-0.232,-74.582,4.482,24.046
1747653283.16,-0.001,0.047,0.032,-1.118,0.043,-0.249,-75.248,4.211,23.708
1747653283.17,-0.006,0.056,-0.024,-1.103,0.046,-0.253,-75.889,3.849,23.313
1747653283.18,0.022,0.048,-0.000,-1.093,0.093,-0.289,-76.526,3.432,22.841
1747653283.19,0.028,0.046,0.010,-1.034,0.060,-0.358,-77.145,2.832,22.178
1747653283.20,-0.014,0.041,-0.027,-0.953,-0.005,-0.403,-77.720,1.972,21.280
1747653283.21,-0.050,0.023,-0.043,-0.934,-0.077,-0.402,-78.262,0.922,20.230
1747653283.22,-0.056,-0.007,-0.032,-0.938,-0.111,-0.367,-78.798,-0.204,19.139
1747653283.23,-0.031,-0.050,-0.030,-0.929,-0.091,-0.333,-79.328,-1.332,18.049
1747653283.24,0.014,-0.092,-0.045,-0.932,-0.039,-0.310,-79.853,-2.466,16.936
1747653283.25,0.059,-0.123,-0.045,-0.962,0.035,-0.291,-80.384,-3.621,15.764
1747653283.26,0.082,-0.125,-0.040,-0.940,0.070,-0.282,-80.915,-4.830,14.506
1747653283.27,0.079,-0.101,-0.078,-0.911,0.052,-0.268,-81.425,-6.124,13.160
1747653283.28,0.051,-0.055,-0.085,-0.935,0.021,-0.252,-81.930,-7.542,11.708
1747653283.29,-0.007,-0.005,-0.045,-0.959,0.107,-0.221,-82.447,-9.052,10.152
1747653283.30,-0.057,0.022,0.002,-0.943,0.198,-0.205,-82.963,-10.610,8.489
1747653283.31,-0.082,0.030,0.033,-0.886,0.217,-0.221,-83.452,-12.365,6.602
1747653283.32,-0.094,0.025,0.009,-0.843,0.332,-0.231,-83.902,-14.380,4.420
1747653283.33,-0.064,0.009,0.012,-0.828,0.438,-0.228,-84.325,-16.618,1.947
1747653283.34,-0.029,-0.006,0.053,-0.815,0.440,-0.230,-84.733,-19.177,-0.881
1747653283.35,-0.036,-0.015,0.063,-0.742,0.316,-0.231,-85.104,-22.129,-4.063
1747653283.36,-0.064,-0.015,-0.007,-0.662,0.259,-0.222,-85.417,-25.335,-7.439
1747653283.37,-0.079,-0.015,-0.051,-0.679,0.335,-0.219,-85.698,-28.831,-11.113
1747653283.38,-0.056,-0.011,-0.009,-0.777,0.442,-0.229,-85.989,-33.049,-15.566
1747653283.39,-0.025,0.001,0.030,-0.816,0.475,-0.240,-86.285,-38.378,-21.171
1747653283.40,-0.008,0.010,0.016,-0.755,0.438,-0.246,-86.532,-44.532,-27.600
1747653283.41,0.007,0.009,-0.029,-0.635,0.358,-0.257,-86.694,-50.914,-34.221
1747653283.42,0.025,0.008,-0.049,-0.521,0.311,-0.243,-86.772,-56.856,-40.362
1747653283.43,0.066,0.009,-0.049,-0.485,0.287,-0.214,-86.804,-62.221,-45.907
1747653283.44,0.119,0.018,-0.026,-0.508,0.246,-0.202,-86.817,-67.564,-51.412
1747653283.45,0.126,0.033,0.018,-0.532,0.150,-0.195,-86.809,-73.194,-57.166
1747653283.46,0.087,0.039,0.043,-0.493,0.062,-0.185,-86.776,-78.707,-62.747
1747653283.47,0.026,0.040,-0.001,-0.441,0.012,-0.194,-86.712,-83.604,-67.672
1747653283.48,-0.038,0.038,-0.034,-0.416,-0.011,-0.222,-86.612,-87.928,-72.002
1747653283.49,-0.073,0.021,-0.025,-0.392,0.001,-0.239,-86.480,-91.781,-75.857
1747653283.50,-0.055,-0.010,-0.012,-0.348,0.073,-0.236,-86.331,-95.010,-79.111
1747653283.51,-0.002,-0.029,-0.018,-0.294,0.170,-0.224,-86.181,-97.496,-81.671
1747653283.52,0.056,-0.025,-0.028,-0.281,0.228,-0.184,-86.041,-99.506,-83.802
1747653283.53,0.096,-0.012,-0.018,-0.226,0.203,-0.112,-85.930,-101.229,-85.655
1747653283.54,0.105,-0.011,-0.002,-0.136,0.109,-0.021,-85.872,-102.427,-86.947
1747653283.55,0.075,-0.025,0.003,-0.077,0.001,0.058,-85.871,-103.227,-87.779
1747653283.56,0.008,-0.035,0.004,-0.079,-0.007,0.084,-85.902,-103.960,-88.508
1747653283.57,-0.074,-0.039,0.024,-0.097,0.133,0.066,-85.933,-104.750,-89.332
1747653283.58,-0.140,-0.030,0.081,-0.154,0.270,0.033,-85.942,-105.690,-90.392
1747653283.59,-0.174,-0.025,0.153,-0.192,0.329,0.001,-85.923,-106.901,-91.782
1747653283.60,-0.194,-0.030,0.226,-0.214,0.263,-0.030,-85.880,-108.239,-93.296
1747653283.61,-0.206,-0.036,0.219,-0.246,0.163,-0.066,-85.812,-109.700,-94.880
1747653283.62,-0.190,-0.050,0.148,-0.293,0.141,-0.125,-85.707,-111.306,-96.575
1747653283.63,-0.126,-0.057,0.094,-0.337,0.196,-0.176,-85.558,-112.970,-98.338
1747653283.64,-0.026,-0.040,0.077,-0.354,0.200,-0.184,-85.382,-114.604,-100.094
1747653283.65,0.072,-0.010,0.093,-0.322,0.090,-0.148,-85.212,-116.158,-101.740
1747653283.66,0.133,0.019,0.075,-0.250,-0.075,-0.109,-85.073,-117.504,-103.096
1747653283.67,0.147,0.042,0.026,-0.164,-0.247,-0.099,-84.967,-118.471,-103.973
1747653283.68,0.120,0.041,-0.011,-0.142,-0.391,-0.122,-84.872,-119.145,-104.466
1747653283.69,0.076,0.031,-0.028,-0.135,-0.480,-0.145,-84.765,-119.754,-104.827
1747653283.70,0.045,0.029,-0.053,-0.089,-0.545,-0.162,-84.656,-120.190,-104.971
1747653283.71,0.020,0.035,-0.106,-0.040,-0.574,-0.145,-84.562,-120.366,-104.823
1747653283.72,-0.002,0.034,-0.122,-0.022,-0.476,-0.107,-84.491,-120.448,-104.598
1747653283.73,-0.018,0.017,-0.088,-0.030,-0.298,-0.067,-84.440,-120.513,-104.441
1747653283.74,-0.032,-0.007,-0.065,-0.081,-0.126,-0.016,-84.403,-120.786,-104.594
1747653283.75,-0.048,-0.026,-0.052,-0.089,-0.008,0.029,-84.381,-121.295,-105.068
1747653283.76,-0.077,-0.029,-0.045,-0.038,0.076,0.041,-84.379,-121.693,-105.488
1747653283.77,-0.112,-0.016,-0.056,0.029,0.189,0.025,-84.394,-121.743,-105.613
1747653283.78,-0.112,-0.002,-0.058,0.080,0.292,0.021,-84.421,-121.395,-105.402
1747653283.79,-0.081,0.005,-0.064,0.112,0.353,0.035,-84.463,-120.792,-104.983
1747653283.80,-0.032,0.007,-0.058,0.097,0.369,0.043,-84.514,-120.168,-104.564
1747653283.81,0.012,0.016,-0.020,0.103,0.358,0.041,-84.563,-119.568,-104.169
1747653283.82,0.039,0.020,-0.006,0.140,0.369,0.041,-84.616,-118.855,-103.660
1747653283.83,0.056,0.007,-0.003,0.183,0.355,0.049,-84.683,-117.895,-102.906
1747653283.84,0.062,-0.016,0.017,0.184,0.280,0.061,-84.759,-116.834,-102.024
1747653283.85,0.057,-0.029,0.035,0.111,0.171,0.075,-84.833,-116.034,-101.351
1747653283.86,0.038,-0.032,0.059,0.015,0.089,0.081,-84.889,-115.847,-101.235
1747653283.87,0.013,-0.026,0.087,-0.009,0.022,0.068,-84.928,-116.022,-101.442
1747653283.88,-0.002,-0.017,0.086,-0.009,-0.007,0.045,-84.954,-116.238,-101.662
1747653283.89,-0.000,-0.012,0.072,-0.027,-0.044,0.018,-84.968,-116.436,-101.847
1747653283.90,0.021,-0.011,0.077,-0.032,-0.124,-0.013,-84.961,-116.696,-102.062
1747653283.91,0.037,-0.008,0.069,0.052,-0.271,-0.046,-84.950,-116.694,-101.950
1747653283.92,0.039,0.000,0.057,0.131,-0.466,-0.071,-84.945,-116.192,-101.235
1747653283.93,0.027,0.019,0.053,0.142,-0.637,-0.060,-84.946,-115.537,-100.258
1747653283.94,0.019,0.034,0.031,0.145,-0.708,-0.026,-84.958,-114.973,-99.302
1747653283.95,0.016,0.020,0.020,0.161,-0.672,0.000,-84.989,-114.437,-98.365
1747653283.96,-0.002,0.003,0.028,0.163,-0.610,0.004,-85.028,-113.844,-97.402
1747653283.97,-0.029,-0.012,0.016,0.207,-0.543,0.003,-85.071,-113.076,-96.301
1747653283.98,-0.046,-0.028,0.020,0.268,-0.461,0.009,-85.126,-111.897,-94.830
1747653283.99,-0.060,-0.029,0.037,0.281,-0.389,0.023,-85.192,-110.436,-93.120
1747653284.00,-0.079,-0.014,0.055,0.288,-0.318,0.029,-85.261,-108.881,-91.356
1747653284.01,-0.101,0.001,0.059,0.310,-0.263,0.025,-85.328,-107.131,-89.436
1747653284.02,-0.120,0.016,0.049,0.320,-0.188,0.033,-85.394,-105.159,-87.326
1747653284.03,-0.132,0.025,0.046,0.302,-0.088,0.063,-85.464,-103.176,-85.258
1747653284.04,-0.131,0.027,0.054,0.340,0.007,0.087,-85.545,-101.077,-83.128
1747653284.05,-0.127,0.024,0.041,0.399,0.137,0.097,-85.633,-98.433,-80.517
1747653284.06,-0.115,0.019,0.047,0.392,0.271,0.112,-85.720,-95.413,-77.606
1747653284.07,-0.088,0.006,0.098,0.389,0.310,0.137,-85.805,-92.333,-74.689
1747653284.08,-0.060,-0.006,0.095,0.448,0.281,0.155,-85.891,-88.904,-71.421
1747653284.09,-0.046,-0.017,0.052,0.481,0.248,0.174,-85.971,-84.912,-67.570
1747653284.10,-0.024,-0.022,0.049,0.450,0.274,0.183,-86.038,-80.789,-63.582
1747653284.11,0.007,-0.020,0.066,0.426,0.291,0.188,-86.094,-76.786,-59.736
1747653284.12,0.032,-0.011,0.067,0.418,0.209,0.198,-86.138,-72.786,-55.873
1747653284.13,0.028,0.002,0.061,0.423,0.096,0.207,-86.168,-68.766,-51.932
1747653284.14,0.010,0.012,0.072,0.445,0.003,0.210,-86.179,-64.643,-47.828
1747653284.15,0.002,0.005,0.089,0.491,-0.089,0.194,-86.159,-60.338,-43.488
1747653284.16,-0.001,-0.011,0.077,0.549,-0.165,0.160,-86.088,-55.898,-38.964
1747653284.17,-0.003,-0.024,0.035,0.651,-0.212,0.126,-85.951,-51.362,-34.309
1747653284.18,0.002,-0.023,-0.006,0.729,-0.225,0.103,-85.741,-46.783,-29.590
1747653284.19,0.006,-0.011,0.012,0.773,-0.241,0.108,-85.476,-42.433,-25.098
1747653284.20,0.009,0.008,0.090,0.830,-0.399,0.135,-85.174,-38.334,-20.807
1747653284.21,-0.007,0.024,0.062,0.876,-0.611,0.139,-84.828,-34.581,-16.747
1747653284.22,-0.050,0.043,-0.023,0.843,-0.613,0.143,-84.457,-31.350,-13.140
1747653284.23,-0.047,0.040,-0.033,0.735,-0.399,0.150,-84.109,-28.667,-10.150
1747653284.24,-0.001,0.008,0.035,0.696,-0.151,0.141,-83.789,-26.367,-7.680
1747653284.25,0.032,-0.024,0.081,0.760,0.056,0.143,-83.449,-24.152,-5.427
1747653284.26,0.036,-0.030,0.116,0.830,0.148,0.166,-83.064,-21.901,-3.225
1747653284.27,0.000,-0.012,0.139,0.855,0.062,0.191,-82.648,-19.708,-1.081
1747653284.28,-0.058,0.014,0.073,0.852,-0.033,0.209,-82.222,-17.713,0.929
1747653284.29,-0.106,0.024,-0.023,0.819,0.070,0.225,-81.800,-15.876,2.781
1747653284.30,-0.122,0.005,-0.025,0.777,0.312,0.227,-81.394,-14.119,4.446
1747653284.31,-0.118,-0.036,0.010,0.784,0.515,0.209,-80.989,-12.440,5.903
1747653284.32,-0.111,-0.065,-0.008,0.776,0.621,0.207,-80.576,-10.846,7.186
1747653284.33,-0.081,-0.068,-0.011,0.750,0.658,0.234,-80.168,-9.302,8.380
1747653284.34,-0.024,-0.048,0.018,0.754,0.631,0.257,-79.767,-7.779,9.549
1747653284.35,0.030,-0.019,0.025,0.818,0.538,0.271,-79.340,-6.336,10.676
1747653284.36,0.054,0.011,0.004,0.853,0.423,0.291,-78.880,-4.991,11.766
1747653284.37,0.069,0.022,-0.025,0.860,0.367,0.293,-78.403,-3.751,12.804
1747653284.38,0.098,0.020,-0.051,0.861,0.408,0.255,-77.923,-2.651,13.703
1747653284.39,0.121,0.015,0.000,0.900,0.395,0.213,-77.426,-1.718,14.420
1747653284.40,0.121,0.007,0.033,0.902,0.292,0.173,-76.912,-0.982,14.971
1747653284.41,0.077,-0.002,0.018,0.882,0.172,0.159,-76.403,-0.431,15.401
1747653284.42,0.031,-0.009,-0.013,0.831,0.128,0.171,-75.913,0.033,15.796
1747653284.43,0.008,-0.015,-0.017,0.787,0.122,0.194,-75.453,0.505,16.209
1747653284.44,-0.016,-0.025,0.010,0.816,0.089,0.201,-74.996,0.973,16.629
1747653284.45,-0.033,-0.036,-0.024,0.868,0.026,0.196,-74.513,1.384,17.022
1747653284.46,-0.021,-0.043,-0.052,0.879,0.093,0.204,-74.011,1.763,17.387
1747653284.47,0.031,-0.045,-0.010,0.911,0.236,0.223,-73.497,2.220,17.762
1747653284.48,0.083,-0.040,0.057,0.938,0.177,0.216,-72.962,2.690,18.122
1747653284.49,0.075,-0.016,0.014,0.881,0.066,0.202,-72.434,3.056,18.435
1747653284.50,0.042,0.008,-0.042,0.806,0.106,0.201,-71.948,3.370,18.720
1747653284.51,0.027,0.008,-0.023,0.797,0.212,0.205,-71.487,3.732,19.004
1747653284.52,0.014,-0.005,0.001,0.845,0.213,0.211,-71.011,4.107,19.269
1747653284.53,-0.011,-0.017,-0.037,0.840,0.171,0.236,-70.521,4.472,19.541
1747653284.54,-0.021,-0.019,-0.054,0.817,0.164,0.258,-70.038,4.855,19.846
1747653284.55,-0.011,-0.016,-0.018,0.823,0.115,0.254,-69.560,5.225,20.152
1747653284.56,-0.015,-0.010,0.005,0.837,0.092,0.238,-69.074,5.535,20.424
1747653284.57,-0.029,-0.009,0.011,0.804,0.155,0.248,-68.593,5.837,20.673
1747653284.58,-0.025,-0.019,0.056,0.771,0.173,0.296,-68.131,6.205,20.965
1747653284.59,-0.021,-0.039,0.057,0.767,0.136,0.319,-67.675,6.603,21.300
1747653284.60,-0.031,-0.052,-0.018,0.772,0.142,0.324,-67.217,6.995,21.639
1747653284.61,-0.011,-0.051,-0.043,0.812,0.110,0.315,-66.748,7.367,21.961
1747653284.62,0.025,-0.038,-0.033,0.930,0.018,0.278,-66.234,7.644,22.223
1747653284.63,0.049,-0.006,-0.075,1.043,-0.066,0.199,-65.657,7.766,22.374
1747653284.64,0.049,0.033,-0.084,1.181,-0.115,0.073,-65.017,7.699,22.357
1747653284.65,-0.007,0.067,-0.088,1.232,-0.191,-0.066,-64.328,7.423,22.148
1747653284.66,-0.098,0.080,-0.116,1.149,-0.187,-0.149,-63.659,6.999,21.804
1747653284.67,-0.152,0.055,-0.082,1.000,0.011,-0.114,-63.058,6.640,21.465
1747653284.68,-0.142,-0.001,0.033,0.893,0.237,-0.010,-62.527,6.523,21.250
1747653284.69,-0.114,-0.049,0.093,0.780,0.291,0.084,-62.049,6.613,21.175
1747653284.70,-0.091,-0.072,0.052,0.648,0.305,0.183,-61.636,6.832,21.233
1747653284.71,-0.019,-0.086,0.102,0.635,0.372,0.303,-61.262,7.194,21.428
1747653284.72,0.102,-0.080,0.119,0.690,0.381,0.387,-60.861,7.684,21.736
1747653284.73,0.205,-0.043,0.056,0.697,0.303,0.371,-60.437,8.166,22.063
1747653284.74,0.260,0.011,0.031,0.733,0.205,0.316,-60.006,8.552,22.337
1747653284.75,0.256,0.057,0.027,0.798,-0.017,0.250,-59.549,8.771,22.524
1747653284.76,0.189,0.100,-0.009,0.838,-0.198,0.198,-59.067,8.795,22.630
1747653284.77,0.097,0.134,0.000,0.843,-0.228,0.160,-58.579,8.716,22.683
1747653284.78,0.027,0.146,0.068,0.855,-0.269,0.117,-58.088,8.583,22.692
1747653284.79,-0.036,0.132,-0.006,0.824,-0.301,0.091,-57.605,8.399,22.668
1747653284.80,-0.080,0.089,-0.064,0.759,-0.310,0.088,-57.150,8.200,22.638
1747653284.81,-0.084,0.029,-0.032,0.729,-0.310,0.103,-56.723,8.013,22.628
1747653284.82,-0.052,-0.027,0.009,0.739,-0.264,0.117,-56.300,7.851,22.635
1747653284.83,-0.016,-0.058,0.038,0.749,-0.136,0.129,-55.869,7.753,22.656
1747653284.84,0.000,-0.063,0.064,0.736,-0.012,0.137,-55.437,7.740,22.689
1747653284.85,-0.011,-0.049,0.041,0.695,0.038,0.159,-55.020,7.791,22.738
1747653284.86,-0.008,-0.032,-0.005,0.656,0.051,0.189,-54.626,7.880,22.819
1747653284.87,0.013,-0.023,-0.054,0.622,0.077,0.207,-54.248,8.007,22.928
1747653284.88,0.027,-0.020,-0.038,0.595,-0.011,0.210,-53.889,8.125,23.046
1747653284.89,0.006,-0.022,-0.049,0.619,-0.131,0.211,-53.529,8.179,23.165
1747653284.90,-0.013,-0.019,-0.097,0.639,-0.218,0.176,-53.158,8.157,23.265
1747653284.91,-0.027,-0.003,-0.095,0.680,-0.239,0.119,-52.774,8.066,23.317
1747653284.92,-0.025,0.005,-0.061,0.755,-0.185,0.057,-52.362,7.934,23.307
1747653284.93,-0.015,0.003,-0.010,0.799,-0.128,-0.009,-51.918,7.786,23.230
1747653284.94,-0.031,0.002,0.034,0.737,-0.105,-0.040,-51.482,7.624,23.108
1747653284.95,-0.044,-0.005,0.036,0.659,-0.054,0.014,-51.089,7.501,23.009
1747653284.96,-0.002,-0.030,0.027,0.602,-0.036,0.106,-50.728,7.462,22.990
1747653284.97,0.042,-0.052,-0.028,0.539,-0.005,0.174,-50.393,7.495,23.049
1747653284.98,0.049,-0.060,-0.038,0.478,-0.033,0.214,-50.092,7.577,23.163
1747653284.99,0.019,-0.057,-0.022,0.483,-0.139,0.224,-49.806,7.632,23.301
1747653285.00,-0.039,-0.025,-0.042,0.528,-0.152,0.194,-49.505,7.642,23.428
1747653285.01,-0.075,0.045,-0.017,0.602,-0.057,0.108,-49.173,7.631,23.495
1747653285.02,-0.098,0.111,0.042,0.636,0.035,0.007,-48.816,7.608,23.472
1747653285.03,-0.131,0.125,0.058,0.625,0.080,-0.043,-48.460,7.573,23.381
1747653285.04,-0.146,0.079,0.039,0.571,0.089,-0.038,-48.122,7.543,23.276
1747653285.05,-0.119,0.008,-0.001,0.508,0.087,-0.008,-47.819,7.532,23.196
1747653285.06,-0.056,-0.051,-0.037,0.483,0.103,0.040,-47.539,7.557,23.154
1747653285.07,0.035,-0.082,-0.025,0.455,0.101,0.077,-47.269,7.613,23.151
1747653285.08,0.101,-0.081,-0.008,0.420,0.099,0.113,-47.015,7.691,23.181
1747653285.09,0.133,-0.047,0.004,0.402,0.071,0.112,-46.774,7.777,23.230
1747653285.10,0.115,0.023,0.016,0.417,0.027,0.097,-46.536,7.834,23.270
1747653285.11,0.061,0.092,0.012,0.452,-0.010,0.072,-46.283,7.853,23.291
1747653285.12,0.023,0.125,0.024,0.474,-0.085,0.047,-46.015,7.827,23.288
1747653285.13,-0.015,0.120,0.030,0.489,-0.152,0.039,-45.740,7.744,23.269
1747653285.14,-0.031,0.090,0.006,0.505,-0.213,0.031,-45.455,7.622,23.243
1747653285.15,-0.021,0.052,-0.023,0.467,-0.243,0.028,-45.176,7.468,23.214
1747653285.16,-0.017,0.018,-0.038,0.456,-0.174,0.035,-44.916,7.330,23.191
1747653285.17,0.006,-0.007,-0.043,0.452,-0.110,0.021,-44.654,7.238,23.169
1747653285.18,0.000,-0.010,-0.082,0.407,-0.089,-0.020,-44.410,7.150,23.127
1747653285.19,-0.055,0.006,-0.066,0.399,-0.062,-0.045,-44.186,7.061,23.061
1747653285.20,-0.104,0.005,-0.017,0.397,-0.039,-0.044,-43.964,6.981,22.987
1747653285.21,-0.119,-0.012,-0.004,0.380,-0.044,-0.041,-43.747,6.910,22.917
1747653285.22,-0.087,-0.028,0.002,0.361,-0.094,-0.039,-43.540,6.825,22.850
1747653285.23,-0.030,-0.029,-0.021,0.367,-0.133,-0.030,-43.337,6.718,22.789
1747653285.24,0.053,-0.016,-0.014,0.397,-0.143,-0.037,-43.123,6.597,22.730
1747653285.25,0.109,0.011,0.001,0.434,-0.122,-0.058,-42.891,6.471,22.658
1747653285.26,0.105,0.033,-0.002,0.459,-0.142,-0.072,-42.639,6.336,22.567
1747653285.27,0.043,0.013,-0.024,0.438,-0.161,-0.048,-42.386,6.189,22.480
1747653285.28,-0.018,-0.041,-0.044,0.380,-0.088,0.015,-42.155,6.083,22.432
1747653285.29,-0.012,-0.097,-0.035,0.324,0.012,0.076,-41.953,6.067,22.438
1747653285.30,0.036,-0.123,-0.012,0.277,0.093,0.112,-41.777,6.132,22.487
1747653285.31,0.098,-0.105,0.027,0.241,0.105,0.131,-41.622,6.239,22.558
1747653285.32,0.165,-0.050,0.032,0.233,0.049,0.126,-41.482,6.337,22.636
1747653285.33,0.203,0.006,0.012,0.269,-0.051,0.133,-41.331,6.388,22.713
1747653285.34,0.186,0.025,-0.017,0.309,-0.160,0.158,-41.159,6.382,22.799
1747653285.35,0.140,0.009,-0.046,0.344,-0.204,0.169,-40.962,6.339,22.895
1747653285.36,0.078,-0.005,-0.041,0.338,-0.173,0.158,-40.756,6.292,22.991
1747653285.37,0.014,-0.008,-0.028,0.312,-0.102,0.140,-40.562,6.267,23.074
1747653285.38,-0.034,-0.001,-0.015,0.301,-0.020,0.137,-40.380,6.284,23.152
1747653285.39,-0.059,0.000,0.008,0.301,0.027,0.162,-40.201,6.342,23.237
1747653285.40,-0.052,-0.006,0.003,0.285,-0.004,0.183,-40.022,6.419,23.342
1747653285.41,-0.022,-0.009,-0.033,0.280,-0.064,0.184,-39.852,6.472,23.456
1747653285.42,0.013,-0.003,-0.045,0.295,-0.095,0.150,-39.677,6.490,23.556
1747653285.43,0.046,0.019,-0.012,0.293,-0.121,0.109,-39.501,6.473,23.627
1747653285.44,0.055,0.039,-0.008,0.287,-0.168,0.079,-39.332,6.419,23.670
1747653285.45,0.023,0.047,-0.007,0.273,-0.197,0.087,-39.167,6.336,23.707
1747653285.46,-0.035,0.039,0.009,0.241,-0.181,0.110,-39.015,6.260,23.758
1747653285.47,-0.059,0.029,-0.013,0.206,-0.139,0.108,-38.882,6.207,23.822
1747653285.48,-0.078,0.038,-0.012,0.195,-0.096,0.092,-38.763,6.176,23.879
1747653285.49,-0.103,0.060,-0.004,0.213,-0.064,0.069,-38.643,6.158,23.922
1747653285.50,-0.118,0.081,-0.014,0.230,-0.059,0.048,-38.513,6.139,23.947
1747653285.51,-0.122,0.085,-0.027,0.242,-0.055,0.017,-38.378,6.110,23.953
1747653285.52,-0.110,0.067,-0.016,0.256,-0.038,-0.006,-38.236,6.074,23.938
1747653285.53,-0.076,0.032,0.002,0.280,-0.040,-0.028,-38.087,6.032,23.905
1747653285.54,-0.024,-0.005,0.011,0.305,-0.089,-0.036,-37.921,5.969,23.861
1747653285.55,0.010,-0.026,0.005,0.270,-0.137,-0.031,-37.758,5.875,23.814
1747653285.56,0.034,-0.032,-0.013,0.219,-0.119,-0.023,-37.622,5.775,23.776
1747653285.57,0.062,-0.026,-0.001,0.199,-0.064,-0.012,-37.506,5.706,23.749
1747653285.58,0.054,-0.014,0.019,0.194,-0.034,0.020,-37.394,5.672,23.736
1747653285.59,0.021,-0.008,-0.025,0.164,0.011,0.067,-37.290,5.675,23.756
1747653285.60,-0.022,0.005,-0.046,0.138,0.083,0.087,-37.200,5.730,23.801
1747653285.61,-0.036,0.026,-0.030,0.131,0.095,0.091,-37.120,5.813,23.854
1747653285.62,-0.023,0.040,-0.020,0.146,0.088,0.076,-37.039,5.895,23.904
1747653285.62,-0.007,0.037,-0.001,0.182,0.062,0.068,-36.940,5.964,23.943
1747653285.63,0.023,0.018,0.006,0.194,-0.032,0.046,-36.828,5.992,23.971
1747653285.65,0.045,-0.005,-0.019,0.209,-0.127,0.030,-36.711,5.954,23.984
1747653285.65,0.055,-0.017,-0.037,0.209,-0.136,0.020,-36.591,5.880,23.988
1747653285.66,0.037,-0.016,-0.015,0.171,-0.098,0.007,-36.482,5.811,23.984
1747653285.67,-0.007,-0.006,-0.025,0.145,-0.066,0.001,-36.391,5.756,23.974
1747653285.68,-0.062,-0.003,-0.041,0.126,0.004,0.039,-36.313,5.736,23.976
1747653285.69,-0.076,-0.011,-0.037,0.080,0.050,0.053,-36.253,5.767,24.002
1747653285.70,-0.039,-0.001,-0.058,0.058,0.045,0.032,-36.215,5.810,24.028
1747653285.71,-0.007,0.030,-0.076,0.046,0.041,0.011,-36.185,5.843,24.040
1747653285.72,0.004,0.061,-0.042,0.040,0.021,-0.018,-36.160,5.863,24.038
1747653285.73,-0.007,0.073,-0.022,0.054,-0.014,-0.038,-36.134,5.854,24.017
1747653285.74,-0.021,0.053,-0.011,0.051,-0.021,-0.041,-36.104,5.825,23.985
1747653285.75,-0.028,0.005,0.010,0.014,-0.029,-0.042,-36.087,5.791,23.953
1747653285.76,-0.017,-0.036,-0.009,0.016,-0.050,-0.033,-36.081,5.745,23.922
1747653285.77,0.016,-0.041,-0.054,0.008,-0.013,-0.034,-36.072,5.703,23.895
1747653285.78,0.045,0.001,-0.041,-0.047,0.015,-0.048,-36.082,5.687,23.865
1747653285.79,0.039,0.049,-0.031,-0.075,-0.002,-0.037,-36.120,5.674,23.839
1747653285.80,-0.001,0.052,-0.032,-0.103,0.006,-0.006,-36.172,5.666,23.828
1747653285.81,-0.015,0.029,-0.019,-0.150,0.027,0.026,-36.245,5.687,23.845
1747653285.82,0.017,0.014,-0.030,-0.185,0.009,0.026,-36.340,5.715,23.877
1747653285.83,0.033,0.021,-0.032,-0.180,-0.018,0.014,-36.445,5.727,23.902
1747653285.84,0.040,0.037,-0.039,-0.171,-0.063,-0.011,-36.542,5.711,23.915
1747653285.85,0.032,0.048,-0.046,-0.172,-0.087,-0.028,-36.637,5.666,23.913
1747653285.86,0.012,0.047,-0.038,-0.209,-0.091,-0.022,-36.744,5.613,23.908
1747653285.87,0.001,0.030,-0.024,-0.251,-0.099,-0.012,-36.876,5.563,23.912
1747653285.88,-0.003,0.012,-0.029,-0.290,-0.080,0.001,-37.031,5.520,23.927
1747653285.89,-0.010,0.009,-0.037,-0.322,-0.026,0.022,-37.206,5.508,23.958
1747653285.90,-0.002,0.020,-0.024,-0.339,0.004,0.028,-37.392,5.530,24.001
1747653285.91,0.007,0.038,-0.030,-0.364,0.031,0.001,-37.590,5.563,24.037
1747653285.92,0.002,0.042,-0.072,-0.394,0.043,-0.045,-37.807,5.594,24.049
1747653285.93,-0.016,0.024,-0.099,-0.416,0.006,-0.084,-38.039,5.600,24.031
1747653285.94,-0.045,-0.010,-0.127,-0.464,-0.026,-0.111,-38.295,5.566,23.992
1747653285.95,-0.048,-0.034,-0.100,-0.480,0.007,-0.125,-38.569,5.527,23.940
1747653285.96,-0.014,-0.037,-0.063,-0.497,0.028,-0.143,-38.854,5.499,23.875
1747653285.97,0.004,-0.016,-0.033,-0.506,0.009,-0.147,-39.148,5.465,23.803
1747653285.98,-0.006,0.003,-0.003,-0.526,0.008,-0.138,-39.448,5.425,23.735
1747653285.99,-0.009,0.002,-0.001,-0.543,0.054,-0.133,-39.759,5.404,23.674
1747653286.00,0.006,-0.017,-0.029,-0.571,0.073,-0.138,-40.082,5.402,23.611
1747653286.01,0.017,-0.042,-0.074,-0.636,0.087,-0.118,-40.430,5.412,23.558
1747653286.02,0.034,-0.062,-0.092,-0.688,0.106,-0.093,-40.813,5.446,23.526
1747653286.03,0.060,-0.063,-0.083,-0.729,0.122,-0.075,-41.220,5.506,23.515
1747653286.04,0.080,-0.041,-0.058,-0.762,0.119,-0.080,-41.649,5.574,23.513
1747653286.05,0.094,-0.006,-0.047,-0.791,0.109,-0.100,-42.095,5.633,23.503
1747653286.06,0.091,0.018,-0.035,-0.806,0.080,-0.106,-42.556,5.675,23.484
1747653286.07,0.073,0.014,-0.049,-0.816,0.044,-0.110,-43.022,5.695,23.462
1747653286.08,0.053,-0.011,-0.079,-0.839,0.005,-0.108,-43.498,5.694,23.441
1747653286.09,0.033,-0.044,-0.073,-0.879,-0.008,-0.092,-43.991,5.684,23.428
1747653286.10,0.024,-0.075,-0.048,-0.905,0.012,-0.076,-44.504,5.688,23.433
1747653286.11,0.023,-0.089,-0.032,-0.913,0.007,-0.065,-45.025,5.707,23.450
1747653286.12,0.022,-0.087,-0.058,-0.941,-0.004,-0.058,-45.555,5.724,23.474
1747653286.13,0.033,-0.076,-0.060,-0.978,-0.007,-0.045,-46.103,5.745,23.511
1747653286.14,0.046,-0.062,-0.039,-0.998,0.018,-0.039,-46.668,5.783,23.558
1747653286.15,0.053,-0.049,-0.014,-1.001,-0.005,-0.043,-47.239,5.826,23.608
1747653286.16,0.038,-0.038,-0.005,-1.018,-0.045,-0.042,-47.815,5.847,23.659
1747653286.17,0.015,-0.034,-0.006,-1.029,-0.057,-0.039,-48.399,5.859,23.715
1747653286.18,0.009,-0.037,-0.014,-1.039,-0.038,-0.036,-48.987,5.875,23.774
1747653286.19,0.011,-0.039,-0.037,-1.067,-0.035,-0.027,-49.587,5.907,23.841
1747653286.20,0.018,-0.040,-0.043,-1.099,-0.034,-0.012,-50.203,5.951,23.924
1747653286.21,0.026,-0.033,-0.041,-1.147,-0.028,-0.012,-50.840,6.007,24.019
1747653286.22,0.025,-0.019,-0.016,-1.193,-0.043,-0.020,-51.507,6.065,24.117
1747653286.23,0.015,0.000,0.009,-1.192,-0.070,-0.017,-52.186,6.111,24.216
1747653286.24,0.005,0.022,0.002,-1.198,-0.102,-0.011,-52.866,6.146,24.322
1747653286.25,0.008,0.045,-0.009,-1.194,-0.113,-0.025,-53.547,6.169,24.428
1747653286.26,0.006,0.061,-0.004,-1.157,-0.125,-0.062,-54.217,6.166,24.508
1747653286.27,-0.009,0.067,-0.014,-1.129,-0.137,-0.109,-54.870,6.122,24.545
1747653286.28,-0.031,0.062,-0.019,-1.126,-0.144,-0.151,-55.518,6.033,24.533
1747653286.29,-0.057,0.042,-0.025,-1.143,-0.128,-0.177,-56.172,5.916,24.486
1747653286.30,-0.084,0.013,-0.016,-1.169,-0.088,-0.184,-56.839,5.797,24.419
1747653286.31,-0.095,-0.020,-0.011,-1.194,-0.030,-0.180,-57.521,5.710,24.353
1747653286.32,-0.083,-0.041,-0.019,-1.224,0.011,-0.176,-58.219,5.654,24.293
1747653286.33,-0.066,-0.046,-0.033,-1.252,0.040,-0.170,-58.931,5.620,24.236
1747653286.34,-0.050,-0.039,-0.027,-1.281,0.050,-0.164,-59.661,5.605,24.189
1747653286.35,-0.025,-0.025,-0.017,-1.274,0.063,-0.163,-60.397,5.601,24.146
1747653286.36,0.003,-0.008,-0.016,-1.235,0.054,-0.169,-61.120,5.591,24.097
1747653286.37,0.025,0.004,-0.027,-1.205,0.064,-0.187,-61.822,5.565,24.029
1747653286.38,0.042,0.005,-0.035,-1.200,0.046,-0.210,-62.517,5.510,23.928
1747653286.39,0.049,-0.012,-0.013,-1.193,-0.025,-0.228,-63.209,5.401,23.796
1747653286.40,0.043,-0.038,-0.014,-1.208,-0.113,-0.232,-63.903,5.224,23.644
1747653286.41,0.043,-0.062,-0.043,-1.248,-0.151,-0.240,-64.614,4.998,23.479
1747653286.42,0.064,-0.074,-0.043,-1.283,-0.175,-0.250,-65.346,4.742,23.297
1747653286.43,0.085,-0.075,-0.029,-1.275,-0.212,-0.262,-66.087,4.438,23.085
1747653286.44,0.083,-0.068,-0.029,-1.236,-0.215,-0.266,-66.814,4.089,22.839
1747653286.45,0.076,-0.056,-0.037,-1.228,-0.219,-0.262,-67.525,3.722,22.575
1747653286.46,0.065,-0.047,-0.025,-1.223,-0.227,-0.267,-68.234,3.332,22.290
1747653286.47,0.040,-0.039,-0.025,-1.200,-0.264,-0.268,-68.932,2.898,21.974
1747653286.48,0.016,-0.037,-0.043,-1.196,-0.295,-0.262,-69.623,2.423,21.637
1747653286.49,-0.004,-0.039,-0.058,-1.194,-0.290,-0.263,-70.311,1.915,21.276
1747653286.50,-0.022,-0.042,-0.080,-1.202,-0.246,-0.279,-70.999,1.376,20.869
1747653286.51,-0.035,-0.043,-0.045,-1.199,-0.172,-0.289,-71.687,0.814,20.402
1747653286.52,-0.048,-0.044,-0.008,-1.193,-0.133,-0.300,-72.372,0.232,19.878
1747653286.53,-0.066,-0.043,-0.028,-1.172,-0.084,-0.304,-73.047,-0.389,19.294
1747653286.54,-0.079,-0.043,-0.041,-1.180,0.005,-0.290,-73.716,-1.012,18.669
1747653286.55,-0.075,-0.049,-0.006,-1.174,0.094,-0.259,-74.385,-1.590,18.038
1747653286.56,-0.057,-0.056,0.013,-1.165,0.174,-0.235,-75.047,-2.109,17.421
1747653286.57,-0.032,-0.057,0.005,-1.184,0.271,-0.196,-75.712,-2.562,16.823
1747653286.58,-0.001,-0.050,0.020,-1.224,0.354,-0.157,-76.394,-2.914,16.273
1747653286.59,0.024,-0.036,0.007,-1.233,0.368,-0.168,-77.092,-3.248,15.715
1747653286.60,0.019,-0.014,-0.028,-1.209,0.269,-0.209,-77.781,-3.735,15.025
1747653286.61,0.008,0.002,-0.018,-1.189,0.102,-0.221,-78.456,-4.455,14.181
1747653286.62,0.019,0.004,0.003,-1.125,-0.006,-0.216,-79.105,-5.339,13.256
1747653286.63,0.046,0.009,-0.012,-1.070,-0.064,-0.258,-79.711,-6.410,12.186
1747653286.64,0.055,0.019,-0.008,-1.093,-0.117,-0.337,-80.301,-7.847,10.779
1747653286.65,0.035,0.029,0.026,-1.150,-0.139,-0.403,-80.903,-9.784,8.892
1747653286.66,0.013,0.033,0.009,-1.160,-0.108,-0.446,-81.506,-12.221,6.498
1747653286.67,-0.005,0.028,-0.011,-1.120,-0.071,-0.466,-82.078,-15.099,3.642
1747653286.68,-0.028,0.009,0.012,-1.046,-0.037,-0.463,-82.594,-18.353,0.388
1747653286.69,-0.047,-0.008,0.047,-1.020,-0.042,-0.419,-83.057,-21.873,-3.138
1747653286.70,-0.046,-0.017,0.073,-1.124,-0.061,-0.345,-83.526,-25.689,-6.950
1747653286.71,-0.034,-0.019,0.091,-1.245,0.000,-0.265,-84.045,-30.027,-11.293
1747653286.72,-0.031,-0.021,0.089,-1.270,0.089,-0.220,-84.579,-35.059,-16.376
1747653286.73,-0.038,-0.033,0.072,-1.222,0.167,-0.211,-85.067,-40.896,-22.310
1747653286.74,-0.042,-0.048,0.021,-1.196,0.202,-0.206,-85.478,-47.616,-29.161
1747653286.75,-0.034,-0.049,-0.006,-1.207,0.212,-0.200,-85.814,-55.511,-37.199
1747653286.76,-0.029,-0.045,-0.018,-1.175,0.214,-0.195,-86.059,-64.494,-46.326
1747653286.77,-0.019,-0.027,-0.072,-1.147,0.251,-0.203,-86.187,-74.116,-56.101
1747653286.78,-0.007,0.001,-0.079,-1.124,0.358,-0.239,-86.188,-83.870,-66.050
1747653286.79,0.002,0.027,-0.016,-1.105,0.404,-0.270,-86.059,-93.084,-75.508
1747653286.80,-0.007,0.043,0.032,-1.070,0.358,-0.281,-85.823,-101.316,-83.980
1747653286.81,-0.025,0.035,-0.003,-0.962,0.305,-0.280,-85.520,-108.038,-90.911
1747653286.82,-0.039,0.016,-0.063,-0.831,0.250,-0.278,-85.191,-113.092,-96.140
1747653286.83,-0.056,-0.005,-0.114,-0.749,0.207,-0.264,-84.860,-116.891,-100.084
1747653286.84,-0.057,-0.033,-0.141,-0.719,0.235,-0.242,-84.533,-120.004,-103.333
1747653286.85,-0.026,-0.050,-0.124,-0.698,0.380,-0.210,-84.212,-122.658,-106.173
1747653286.86,0.014,-0.046,-0.072,-0.676,0.514,-0.177,-83.903,-124.939,-108.728
1747653286.87,0.030,-0.027,-0.026,-0.649,0.522,-0.166,-83.602,-126.923,-111.025
1747653286.88,0.008,-0.001,-0.028,-0.587,0.441,-0.183,-83.307,-128.557,-112.949
1747653286.89,-0.025,0.025,-0.048,-0.524,0.380,-0.191,-83.024,-129.803,-114.439
1747653286.90,-0.037,0.044,-0.045,-0.499,0.347,-0.183,-82.754,-130.813,-115.665
1747653286.91,-0.026,0.057,-0.033,-0.498,0.386,-0.161,-82.493,-131.753,-116.821
1747653286.92,-0.005,0.042,0.013,-0.489,0.466,-0.128,-82.241,-132.659,-117.980
1747653286.93,0.010,-0.000,0.082,-0.457,0.524,-0.099,-82.010,-133.490,-119.106
1747653286.94,0.002,-0.064,0.132,-0.441,0.520,-0.093,-81.795,-134.214,-120.141
1747653286.95,-0.037,-0.136,0.145,-0.475,0.428,-0.098,-81.574,-134.947,-121.159
1747653286.96,-0.075,-0.125,0.128,-0.497,0.304,-0.115,-81.333,-135.751,-122.182
1747653286.97,-0.084,-0.088,0.087,-0.501,0.189,-0.119,-81.079,-136.568,-123.149
1747653286.98,-0.050,-0.078,0.033,-0.515,0.138,-0.084,-80.827,-137.447,-124.131
1747653286.99,0.024,-0.051,-0.011,-0.521,0.131,-0.052,-80.580,-138.414,-125.188
1747653287.00,0.094,-0.023,-0.020,-0.455,0.106,-0.033,-80.353,-139.341,-126.198
1747653287.01,0.131,0.000,-0.025,-0.362,0.021,-0.028,-80.165,-140.102,-127.012
1747653287.02,0.138,0.024,-0.019,-0.307,-0.123,-0.047,-80.006,-140.729,-127.621
1747653287.03,0.111,0.052,-0.014,-0.289,-0.270,-0.096,-79.849,-141.277,-128.063
1747653287.04,0.058,0.069,-0.027,-0.258,-0.379,-0.151,-79.681,-141.695,-128.296
1747653287.05,0.005,0.107,-0.044,-0.180,-0.422,-0.157,-79.526,-141.970,-128.341
1747653287.06,-0.009,0.095,-0.056,-0.080,-0.403,-0.130,-79.417,-142.104,-128.236
1747653287.07,-0.004,0.054,-0.057,0.002,-0.280,-0.105,-79.360,-142.092,-128.023
1747653287.08,0.004,0.035,-0.044,0.026,-0.139,-0.087,-79.334,-141.954,-127.762
1747653287.09,0.001,0.038,-0.032,0.050,-0.044,-0.070,-79.321,-141.742,-127.495
1747653287.10,-0.016,0.035,-0.040,0.089,0.031,-0.033,-79.334,-141.488,-127.233
1747653287.11,-0.041,0.017,-0.044,0.117,0.101,0.004,-79.376,-141.216,-126.996
1747653287.12,-0.069,-0.006,-0.030,0.124,0.149,0.040,-79.438,-140.962,-126.811
1747653287.13,-0.094,-0.022,-0.024,0.143,0.239,0.060,-79.515,-140.727,-126.682
1747653287.14,-0.114,-0.018,-0.020,0.168,0.384,0.045,-79.603,-140.378,-126.506
1747653287.15,-0.123,0.006,0.000,0.175,0.537,0.030,-79.691,-139.855,-126.241
1747653287.16,-0.121,0.022,0.038,0.148,0.647,0.045,-79.775,-139.265,-125.986
1747653287.17,-0.102,0.013,0.074,0.138,0.671,0.108,-79.864,-138.773,-125.873
1747653287.18,-0.089,-0.014,0.092,0.132,0.609,0.170,-79.975,-138.451,-125.919
1747653287.19,-0.086,-0.045,0.090,0.100,0.504,0.189,-80.094,-138.326,-126.116
1747653287.20,-0.071,-0.063,0.083,0.069,0.440,0.169,-80.198,-138.320,-126.380
1747653287.21,-0.029,-0.068,0.058,0.040,0.486,0.140,-80.281,-138.322,-126.648
1747653287.22,0.032,-0.061,0.062,-0.003,0.522,0.120,-80.338,-138.312,-126.932
1747653287.23,0.077,-0.041,0.080,-0.018,0.474,0.107,-80.375,-138.338,-127.252
1747653287.24,0.092,-0.022,0.067,0.012,0.332,0.089,-80.411,-138.362,-127.513
1747653287.25,0.094,-0.008,0.036,0.037,0.146,0.050,-80.449,-138.345,-127.634
1747653287.26,0.093,0.002,0.013,0.072,-0.020,0.002,-80.481,-138.254,-127.575
1747653287.27,0.094,0.011,0.001,0.126,-0.091,-0.039,-80.516,-138.007,-127.289
1747653287.28,0.096,0.021,0.008,0.162,-0.159,-0.049,-80.561,-137.622,-126.829
1747653287.29,0.089,0.029,0.037,0.162,-0.278,-0.045,-80.612,-137.239,-126.316
1747653287.30,0.047,0.025,0.053,0.131,-0.406,-0.042,-80.657,-136.975,-125.849
1747653287.31,-0.010,0.006,0.058,0.096,-0.486,-0.049,-80.686,-136.849,-125.460
1747653287.32,-0.050,-0.023,0.054,0.079,-0.488,-0.056,-80.702,-136.789,-125.115
1747653287.33,-0.060,-0.047,0.038,0.072,-0.444,-0.062,-80.711,-136.729,-124.783
1747653287.34,-0.041,-0.050,0.018,0.066,-0.372,-0.062,-80.714,-136.632,-124.449
1747653287.35,-0.009,-0.032,0.018,0.064,-0.322,-0.041,-80.719,-136.541,-124.156
1747653287.36,0.012,-0.001,0.021,0.084,-0.308,-0.019,-80.738,-136.463,-123.896
1747653287.37,0.008,0.025,0.016,0.111,-0.339,-0.016,-80.772,-136.370,-123.615
1747653287.38,-0.017,0.039,-0.003,0.129,-0.345,-0.028,-80.814,-136.220,-123.262
1747653287.39,-0.046,0.038,-0.018,0.144,-0.276,-0.039,-80.858,-135.973,-122.830
1747653287.40,-0.060,0.026,-0.022,0.137,-0.160,-0.040,-80.899,-135.644,-122.370
1747653287.41,-0.060,0.012,-0.017,0.107,-0.036,-0.026,-80.936,-135.300,-121.965
1747653287.42,-0.052,0.003,-0.004,0.044,0.075,0.013,-80.963,-135.070,-121.745
1747653287.43,-0.041,-0.004,0.015,-0.015,0.124,0.040,-80.979,-135.045,-121.781
1747653287.44,-0.042,-0.016,0.011,-0.047,0.102,0.063,-80.987,-135.193,-121.997
1747653287.45,-0.045,-0.033,-0.005,-0.059,0.085,0.067,-80.993,-135.442,-122.302
1747653287.46,-0.032,-0.040,-0.015,-0.058,0.136,0.055,-80.994,-135.687,-122.612
1747653287.47,-0.003,-0.034,-0.006,-0.045,0.216,0.039,-80.991,-135.841,-122.869
1747653287.48,0.022,-0.016,0.010,-0.015,0.274,0.019,-80.990,-135.848,-123.020
1747653287.49,0.030,0.010,0.010,0.034,0.279,0.011,-80.995,-135.652,-122.985
1747653287.50,0.021,0.029,-0.005,0.096,0.240,0.022,-81.025,-135.348,-122.830
1747653287.51,0.004,0.035,-0.004,0.152,0.178,0.043,-81.082,-134.975,-122.576
1747653287.52,-0.017,0.025,0.008,0.189,0.081,0.064,-81.167,-134.568,-122.239
1747653287.53,-0.029,0.001,-0.000,0.183,-0.014,0.078,-81.265,-134.206,-121.893
1747653287.54,-0.024,-0.030,-0.016,0.174,-0.087,0.074,-81.364,-133.934,-121.588
1747653287.55,0.002,-0.043,-0.025,0.193,-0.121,0.057,-81.462,-133.667,-121.256
1747653287.56,0.028,-0.032,-0.033,0.216,-0.074,0.042,-81.563,-133.315,-120.840
1747653287.57,0.045,-0.006,-0.002,0.237,0.015,0.046,-81.670,-132.829,-120.331
1747653287.58,0.045,0.020,0.058,0.250,0.041,0.058,-81.787,-132.260,-119.775
1747653287.59,0.014,0.034,0.101,0.279,-0.037,0.051,-81.912,-131.637,-119.150
1747653287.60,-0.031,0.032,0.091,0.299,-0.146,0.041,-82.038,-130.939,-118.391
1747653287.61,-0.065,0.014,0.061,0.311,-0.204,0.052,-82.168,-130.199,-117.541
1747653287.62,-0.062,-0.019,0.051,0.303,-0.233,0.072,-82.305,-129.491,-116.699
1747653287.63,-0.034,-0.049,0.052,0.309,-0.216,0.079,-82.448,-128.822,-115.893
1747653287.64,-0.003,-0.054,0.056,0.333,-0.180,0.065,-82.594,-128.037,-114.989
1747653287.65,0.015,-0.039,0.060,0.358,-0.159,0.048,-82.742,-127.070,-113.915
1747653287.66,0.005,-0.012,0.055,0.366,-0.157,0.036,-82.885,-125.955,-112.701
1747653287.67,-0.019,0.007,0.049,0.373,-0.181,0.029,-83.021,-124.745,-111.384
1747653287.68,-0.046,0.014,0.036,0.400,-0.191,0.042,-83.161,-123.433,-109.956
1747653287.69,-0.055,0.007,0.029,0.412,-0.212,0.066,-83.313,-122.044,-108.442
1747653287.70,-0.045,0.006,0.028,0.413,-0.245,0.093,-83.475,-120.642,-106.900
1747653287.71,-0.028,0.021,0.014,0.433,-0.260,0.103,-83.644,-119.190,-105.293
1747653287.72,-0.012,0.042,0.004,0.449,-0.227,0.108,-83.818,-117.561,-103.514
1747653287.73,-0.001,0.052,0.032,0.432,-0.212,0.113,-83.987,-115.846,-101.664
1747653287.74,-0.005,0.042,0.082,0.443,-0.235,0.125,-84.153,-114.083,-99.764
1747653287.75,-0.021,0.010,0.096,0.474,-0.280,0.125,-84.322,-112.121,-97.645
1747653287.76,-0.043,-0.027,0.086,0.477,-0.307,0.111,-84.483,-109.937,-95.280
1747653287.77,-0.064,-0.048,0.074,0.461,-0.310,0.080,-84.622,-107.633,-92.789
1747653287.78,-0.074,-0.056,0.073,0.458,-0.346,0.048,-84.731,-105.241,-90.201
1747653287.79,-0.073,-0.054,0.058,0.476,-0.388,0.026,-84.815,-102.688,-87.425
1747653287.80,-0.054,-0.050,0.036,0.533,-0.408,0.023,-84.884,-99.819,-84.317
1747653287.81,-0.018,-0.040,0.018,0.614,-0.459,0.035,-84.946,-96.445,-80.683
1747653287.82,0.014,-0.028,-0.003,0.699,-0.601,0.045,-84.999,-92.514,-76.437
1747653287.83,0.047,-0.006,-0.045,0.763,-0.794,0.062,-85.030,-88.138,-71.642
1747653287.84,0.082,0.029,-0.081,0.799,-0.821,0.102,-85.043,-83.416,-66.432
1747653287.85,0.117,0.053,-0.040,0.783,-0.727,0.143,-85.042,-78.566,-61.117
1747653287.86,0.121,0.057,0.039,0.759,-0.629,0.137,-85.017,-73.830,-55.975
1747653287.87,0.064,0.041,0.055,0.796,-0.572,0.101,-84.941,-69.146,-50.931
1747653287.88,-0.015,0.015,0.016,0.812,-0.576,0.084,-84.806,-64.513,-45.950
1747653287.89,-0.075,-0.007,-0.029,0.774,-0.458,0.108,-84.643,-60.200,-41.315
1747653287.90,-0.091,-0.026,0.002,0.756,-0.235,0.147,-84.475,-56.114,-37.011
1747653287.91,-0.081,-0.026,0.056,0.793,-0.024,0.177,-84.292,-52.006,-32.808
1747653287.92,-0.091,-0.012,0.045,0.872,0.172,0.179,-84.064,-47.750,-28.574
1747653287.93,-0.107,-0.000,0.024,0.949,0.353,0.187,-83.774,-43.421,-24.373
1747653287.94,-0.095,0.001,-0.006,0.951,0.505,0.212,-83.438,-39.196,-20.371
1747653287.95,-0.065,-0.004,-0.000,0.838,0.555,0.253,-83.109,-35.353,-16.811
1747653287.96,-0.051,-0.023,0.031,0.722,0.562,0.305,-82.829,-31.970,-13.723
1747653287.97,-0.050,-0.052,0.030,0.697,0.583,0.358,-82.578,-28.778,-10.833
1747653287.98,-0.047,-0.076,0.018,0.725,0.610,0.387,-82.316,-25.602,-7.973
1747653287.99,-0.040,-0.079,0.020,0.773,0.640,0.382,-82.015,-22.511,-5.212
1747653288.00,-0.024,-0.053,0.014,0.828,0.650,0.369,-81.666,-19.598,-2.642
1747653288.01,-0.000,-0.014,0.016,0.897,0.611,0.340,-81.262,-16.924,-0.304
1747653288.02,0.022,0.028,-0.002,0.959,0.492,0.290,-80.800,-14.593,1.734
1747653288.03,0.059,0.069,-0.036,0.997,0.313,0.225,-80.291,-12.703,3.418
1747653288.04,0.092,0.094,-0.041,0.972,0.153,0.150,-79.762,-11.310,4.698
1747653288.05,0.083,0.089,-0.006,0.917,0.070,0.107,-79.245,-10.326,5.638
1747653288.06,0.040,0.046,0.053,0.878,0.057,0.130,-78.751,-9.504,6.440
1747653288.07,-0.003,-0.016,0.051,0.826,0.060,0.188,-78.284,-8.652,7.276
1747653288.08,-0.038,-0.071,0.023,0.755,0.060,0.240,-77.855,-7.736,8.177
1747653288.09,-0.063,-0.096,0.015,0.697,0.090,0.275,-77.464,-6.793,9.101
1747653288.10,-0.051,-0.096,0.036,0.712,0.168,0.297,-77.086,-5.804,10.041
1747653288.11,0.010,-0.080,0.047,0.806,0.221,0.311,-76.673,-4.776,10.978
1747653288.12,0.092,-0.046,0.042,0.911,0.165,0.311,-76.198,-3.773,11.892
1747653288.13,0.169,-0.006,0.004,1.008,0.013,0.302,-75.659,-2.888,12.749
1747653288.14,0.199,0.029,-0.053,1.021,-0.105,0.278,-75.083,-2.187,13.507
1747653288.15,0.144,0.049,-0.106,0.918,0.025,0.245,-74.533,-1.601,14.147
1747653288.16,0.049,0.041,-0.029,0.836,0.214,0.188,-74.036,-1.041,14.652
1747653288.17,-0.081,0.014,0.037,0.776,0.183,0.117,-73.577,-0.600,14.985
1747653288.18,-0.231,-0.023,-0.026,0.678,0.105,0.134,-73.161,-0.281,15.236
1747653288.19,-0.276,-0.066,-0.061,0.584,0.177,0.212,-72.802,0.117,15.574
1747653288.20,-0.193,-0.080,-0.000,0.573,0.279,0.277,-72.474,0.696,16.041
1747653288.21,-0.077,-0.054,0.059,0.651,0.256,0.273,-72.123,1.333,16.544
1747653288.22,0.007,-0.001,0.022,0.738,0.163,0.212,-71.723,1.845,16.958
1747653288.23,0.059,0.054,-0.031,0.841,0.102,0.133,-71.269,2.164,17.216
1747653288.24,0.091,0.088,-0.057,0.931,0.105,0.094,-70.760,2.348,17.350
1747653288.25,0.108,0.094,-0.024,0.946,0.141,0.098,-70.219,2.505,17.443
1747653288.26,0.095,0.074,0.043,0.837,0.131,0.126,-69.703,2.694,17.559
1747653288.27,0.039,0.031,0.115,0.716,0.055,0.196,-69.259,2.929,17.753
1747653288.28,-0.028,-0.030,0.080,0.644,0.044,0.295,-68.863,3.268,18.088
1747653288.29,-0.045,-0.079,-0.028,0.527,0.075,0.367,-68.517,3.735,18.553
1747653288.30,-0.015,-0.103,0.000,0.488,0.031,0.429,-68.217,4.293,19.115
1747653288.31,0.059,-0.109,0.032,0.563,-0.091,0.463,-67.899,4.852,19.735
1747653288.32,0.148,-0.083,-0.007,0.659,-0.218,0.448,-67.527,5.325,20.342
1747653288.33,0.205,-0.018,-0.021,0.752,-0.317,0.379,-67.103,5.643,20.854
1747653288.34,0.201,0.065,-0.019,0.799,-0.352,0.310,-66.641,5.804,21.240
1747653288.35,0.131,0.129,0.019,0.850,-0.336,0.239,-66.158,5.856,21.511
1747653288.36,0.003,0.159,0.056,0.864,-0.309,0.176,-65.655,5.820,21.673
1747653288.37,-0.140,0.151,0.055,0.815,-0.242,0.183,-65.167,5.772,21.795
1747653288.38,-0.214,0.096,0.054,0.758,-0.166,0.230,-64.709,5.812,21.966
1747653288.39,-0.208,0.026,0.036,0.672,-0.101,0.256,-64.286,5.938,22.190
1747653288.40,-0.160,-0.025,0.047,0.555,-0.042,0.270,-63.924,6.129,22.448
1747653288.41,-0.077,-0.063,0.058,0.520,0.015,0.264,-63.606,6.365,22.717
1747653288.42,-0.013,-0.076,0.031,0.582,-0.014,0.241,-63.280,6.588,22.962
1747653288.43,0.008,-0.057,0.007,0.677,-0.077,0.184,-62.908,6.715,23.136
1747653288.44,-0.011,-0.019,-0.046,0.731,-0.085,0.118,-62.497,6.743,23.221
1747653288.45,-0.044,0.014,-0.062,0.793,-0.103,0.051,-62.060,6.685,23.214
1747653288.46,-0.091,0.031,-0.083,0.867,-0.111,-0.006,-61.588,6.540,23.122
1747653288.47,-0.128,0.043,-0.102,0.888,0.005,-0.049,-61.088,6.373,22.971
1747653288.48,-0.124,0.044,-0.078,0.849,0.191,-0.062,-60.599,6.270,22.790
1747653288.49,-0.108,0.024,-0.029,0.777,0.303,-0.068,-60.139,6.261,22.615
1747653288.50,-0.109,-0.023,-0.035,0.655,0.395,-0.021,-59.736,6.335,22.469
1747653288.51,-0.062,-0.081,0.028,0.643,0.386,0.113,-59.369,6.539,22.441
1747653288.52,0.014,-0.124,0.013,0.656,0.299,0.188,-58.990,6.807,22.526
1747653288.53,0.088,-0.107,-0.047,0.666,0.291,0.200,-58.603,7.084,22.656
1747653288.54,0.143,-0.035,-0.005,0.750,0.296,0.143,-58.192,7.334,22.749
1747653288.55,0.136,0.038,0.044,0.844,0.214,0.057,-57.731,7.480,22.746
1747653288.56,0.065,0.072,0.039,0.861,0.131,-0.014,-57.245,7.493,22.647
1747653288.57,-0.006,0.067,0.001,0.828,0.116,-0.043,-56.768,7.439,22.500
1747653288.58,-0.016,0.026,-0.025,0.788,0.136,-0.036,-56.314,7.386,22.348
1747653288.59,0.007,-0.031,-0.020,0.740,0.153,-0.002,-55.883,7.367,22.225
1747653288.60,0.041,-0.078,0.009,0.674,0.152,0.063,-55.479,7.406,22.166
1747653288.61,0.064,-0.107,0.019,0.617,0.110,0.066,-55.111,7.469,22.148
1747653288.62,0.064,-0.098,0.005,0.569,0.096,0.074,-54.769,7.517,22.139
1747653288.63,0.053,-0.056,-0.016,0.527,0.131,0.098,-54.455,7.593,22.151
1747653288.64,0.050,-0.016,0.039,0.568,0.094,0.134,-54.138,7.692,22.192
1747653288.65,0.024,0.007,0.022,0.614,0.043,0.169,-53.791,7.785,22.260
1747653288.66,0.013,0.032,-0.033,0.636,0.034,0.166,-53.424,7.871,22.341
1747653288.67,0.021,0.066,-0.042,0.680,0.015,0.114,-53.042,7.924,22.389
1747653288.67,0.012,0.098,-0.005,0.731,0.001,0.052,-52.637,7.917,22.375
1747653288.69,-0.003,0.105,0.058,0.780,0.019,0.017,-52.206,7.869,22.307
1747653288.70,0.002,0.071,0.054,0.758,-0.034,0.016,-51.768,7.803,22.223
1747653288.71,0.019,0.001,-0.003,0.700,-0.149,0.053,-51.352,7.700,22.161
1747653288.71,0.052,-0.083,-0.093,0.595,-0.159,0.102,-50.979,7.601,22.152
1747653288.73,0.098,-0.144,-0.087,0.520,-0.111,0.129,-50.658,7.552,22.189
1747653288.73,0.104,-0.163,-0.022,0.502,-0.101,0.137,-50.359,7.539,22.248
1747653288.74,0.065,-0.122,0.001,0.490,-0.124,0.135,-50.068,7.523,22.311
1747653288.75,0.006,-0.023,0.015,0.500,-0.126,0.146,-49.778,7.502,22.376
1747653288.76,-0.015,0.072,0.018,0.541,-0.144,0.165,-49.473,7.481,22.451
1747653288.77,-0.004,0.133,0.003,0.610,-0.137,0.172,-49.136,7.461,22.532
1747653288.78,0.020,0.159,0.000,0.656,-0.127,0.157,-48.763,7.441,22.603
1747653288.79,0.032,0.150,0.016,0.700,-0.190,0.121,-48.370,7.386,22.647
1747653288.80,0.004,0.109,-0.021,0.713,-0.259,0.078,-47.960,7.261,22.654
1747653288.81,-0.022,0.055,-0.090,0.660,-0.258,0.034,-47.568,7.091,22.627
1747653288.82,-0.057,-0.001,-0.050,0.623,-0.188,0.012,-47.202,6.930,22.580
1747653288.83,-0.100,-0.056,0.006,0.574,-0.149,0.021,-46.863,6.799,22.533
1747653288.84,-0.123,-0.093,0.023,0.542,-0.102,0.051,-46.545,6.706,22.508
1747653288.85,-0.103,-0.101,0.023,0.519,-0.008,0.076,-46.240,6.676,22.511
1747653288.86,-0.053,-0.068,0.024,0.517,0.065,0.072,-45.942,6.705,22.523
1747653288.87,-0.008,-0.000,0.022,0.506,0.055,0.064,-45.647,6.745,22.529
1747653288.88,-0.002,0.069,0.026,0.502,0.029,0.052,-45.358,6.768,22.528
1747653288.89,-0.008,0.114,0.030,0.509,-0.010,0.042,-45.068,6.767,22.517
1747653288.90,-0.007,0.128,0.029,0.520,-0.045,0.024,-44.774,6.735,22.495
1747653288.91,-0.011,0.099,0.015,0.535,-0.047,0.006,-44.473,6.681,22.457
1747653288.92,-0.021,0.046,0.008,0.538,-0.052,0.009,-44.168,6.622,22.412
1747653288.93,-0.017,-0.008,-0.021,0.510,-0.059,0.018,-43.870,6.563,22.375
1747653288.94,-0.004,-0.048,-0.055,0.492,-0.034,0.014,-43.584,6.515,22.344
1747653288.95,-0.014,-0.061,-0.048,0.470,-0.002,-0.001,-43.310,6.480,22.308
1747653288.96,-0.034,-0.047,-0.031,0.454,0.020,-0.021,-43.049,6.453,22.260
1747653288.97,-0.031,-0.014,-0.019,0.466,0.017,-0.028,-42.790,6.424,22.200
1747653288.98,-0.024,0.021,-0.002,0.471,0.012,-0.018,-42.524,6.392,22.141
1747653288.99,-0.015,0.043,0.016,0.460,-0.025,-0.028,-42.261,6.352,22.086
1747653289.00,0.002,0.050,0.011,0.449,-0.065,-0.039,-42.004,6.280,22.021
1747653289.01,0.011,0.041,-0.018,0.425,-0.071,-0.036,-41.759,6.197,21.956
1747653289.02,0.010,0.020,-0.036,0.418,-0.089,-0.034,-41.523,6.110,21.894
1747653289.03,-0.006,-0.005,-0.058,0.391,-0.097,-0.021,-41.293,6.021,21.840
1747653289.04,-0.020,-0.026,-0.049,0.382,-0.070,-0.008,-41.074,5.944,21.799
1747653289.05,-0.016,-0.041,-0.026,0.388,-0.017,-0.020,-40.857,5.892,21.759
1747653289.06,-0.004,-0.038,0.009,0.406,0.029,-0.035,-40.634,5.864,21.708
1747653289.07,0.012,-0.032,0.028,0.429,0.016,-0.036,-40.398,5.840,21.648
1747653289.08,0.032,-0.030,0.012,0.417,-0.017,-0.018,-40.158,5.805,21.595
1747653289.09,0.050,-0.033,0.006,0.404,-0.010,0.006,-39.926,5.772,21.559
1747653289.10,0.069,-0.041,-0.007,0.390,0.011,0.035,-39.697,5.763,21.545
1747653289.11,0.071,-0.037,-0.055,0.332,-0.005,0.060,-39.488,5.772,21.552
1747653289.12,0.050,-0.011,-0.092,0.267,-0.069,0.081,-39.314,5.771,21.582
1747653289.13,0.022,0.024,-0.081,0.225,-0.087,0.094,-39.171,5.752,21.628
1747653289.14,0.006,0.049,-0.028,0.220,-0.045,0.115,-39.039,5.753,21.689
1747653289.15,0.018,0.039,0.010,0.226,-0.034,0.119,-38.906,5.776,21.758
1747653289.16,0.021,0.000,0.001,0.232,-0.080,0.130,-38.769,5.792,21.831
1747653289.17,0.034,-0.037,-0.036,0.243,-0.155,0.137,-38.627,5.775,21.912
1747653289.18,0.060,-0.047,-0.062,0.233,-0.176,0.131,-38.483,5.729,21.993
1747653289.19,0.084,-0.032,-0.054,0.198,-0.161,0.099,-38.353,5.674,22.061
1747653289.20,0.075,-0.003,-0.038,0.147,-0.121,0.072,-38.250,5.625,22.108
1747653289.21,0.025,0.028,-0.034,0.087,-0.118,0.076,-38.179,5.585,22.152
1747653289.22,-0.041,0.032,-0.045,0.019,-0.150,0.126,-38.144,5.549,22.219
1747653289.23,-0.077,0.007,-0.080,-0.028,-0.114,0.180,-38.138,5.541,22.331
1747653289.24,-0.056,-0.000,-0.048,-0.015,-0.052,0.166,-38.143,5.573,22.460
1747653289.25,-0.012,0.038,-0.014,0.038,-0.037,0.110,-38.130,5.612,22.561
1747653289.26,0.011,0.071,0.001,0.108,-0.050,0.057,-38.080,5.626,22.617
1747653289.27,0.017,0.063,0.009,0.156,-0.092,0.044,-37.998,5.608,22.647
1747653289.28,0.005,0.019,0.007,0.167,-0.139,0.044,-37.901,5.561,22.672
1747653289.29,-0.019,-0.024,-0.019,0.164,-0.142,0.043,-37.804,5.492,22.693
1747653289.30,-0.036,-0.048,-0.027,0.147,-0.056,0.040,-37.714,5.441,22.705
1747653289.31,-0.044,-0.051,0.007,0.125,0.055,0.045,-37.633,5.449,22.724
1747653289.32,-0.040,-0.019,0.017,0.088,0.084,0.036,-37.569,5.501,22.744
1747653289.33,-0.036,0.030,-0.006,0.049,0.073,0.032,-37.533,5.555,22.762
1747653289.34,-0.008,0.051,-0.017,0.058,0.061,0.050,-37.505,5.612,22.789
1747653289.35,0.026,0.044,-0.019,0.061,0.015,0.056,-37.473,5.657,22.824
1747653289.36,0.022,0.044,-0.020,0.077,-0.000,0.053,-37.432,5.682,22.860
1747653289.37,0.016,0.042,-0.015,0.089,0.002,0.019,-37.381,5.691,22.879
1747653289.38,-0.004,0.027,-0.009,0.102,0.016,0.000,-37.322,5.690,22.876
1747653289.39,-0.020,0.001,-0.002,0.090,0.037,-0.004,-37.263,5.696,22.865
1747653289.40,-0.012,-0.015,0.017,0.061,0.025,-0.023,-37.222,5.701,22.847
1747653289.41,0.003,-0.019,-0.005,0.062,-0.002,-0.007,-37.190,5.693,22.828
1747653289.42,0.012,-0.013,-0.022,0.039,-0.017,0.026,-37.163,5.687,22.830
1747653289.43,0.008,0.007,-0.030,0.001,-0.023,0.041,-37.153,5.692,22.855
1747653289.44,0.003,0.036,-0.048,-0.009,-0.001,0.061,-37.157,5.708,22.894
1747653289.45,-0.008,0.044,-0.046,-0.024,0.034,0.087,-37.165,5.752,22.949
1747653289.46,0.007,0.032,-0.030,-0.033,0.062,0.088,-37.178,5.819,23.014
1747653289.47,0.034,0.025,-0.019,-0.041,0.062,0.060,-37.196,5.886,23.069
1747653289.48,0.024,0.015,-0.011,-0.049,0.030,0.036,-37.219,5.932,23.104
1747653289.49,0.004,-0.020,-0.013,-0.061,-0.012,0.032,-37.246,5.954,23.132
1747653289.50,0.010,-0.051,-0.020,-0.079,-0.065,0.024,-37.282,5.947,23.159
1747653289.51,0.018,-0.043,-0.041,-0.085,-0.051,0.007,-37.324,5.924,23.177
1747653289.52,0.022,-0.005,-0.067,-0.106,-0.008,-0.001,-37.378,5.911,23.185
1747653289.53,0.003,0.026,-0.072,-0.135,0.015,0.013,-37.446,5.919,23.195
1747653289.54,-0.028,0.029,-0.048,-0.158,0.014,0.049,-37.529,5.948,23.228
1747653289.55,-0.019,0.022,-0.035,-0.174,0.008,0.071,-37.619,5.994,23.288
1747653289.56,0.025,0.020,-0.023,-0.199,-0.031,0.073,-37.719,6.029,23.354
1747653289.57,0.049,0.015,-0.015,-0.208,-0.057,0.073,-37.829,6.044,23.422
1747653289.58,0.066,0.008,-0.027,-0.187,-0.039,0.047,-37.934,6.053,23.483
1747653289.59,0.045,0.020,-0.045,-0.198,-0.040,-0.003,-38.037,6.052,23.514
1747653289.60,-0.014,0.045,-0.048,-0.224,-0.028,-0.032,-38.154,6.034,23.517
1747653289.61,-0.070,0.054,-0.043,-0.276,0.033,-0.039,-38.295,6.031,23.512
1747653289.62,-0.078,0.054,-0.041,-0.342,0.039,-0.032,-38.471,6.051,23.508
1747653289.63,-0.048,0.045,-0.060,-0.397,-0.008,-0.017,-38.682,6.064,23.518
1747653289.64,-0.007,0.035,-0.076,-0.446,-0.002,0.006,-38.920,6.080,23.548
1747653289.65,0.044,0.035,-0.062,-0.503,-0.038,0.011,-39.189,6.101,23.594
1747653289.66,0.067,0.049,-0.057,-0.516,-0.101,0.003,-39.479,6.092,23.642
1747653289.67,0.048,0.060,-0.063,-0.500,-0.112,-0.016,-39.765,6.051,23.677
1747653289.68,0.032,0.058,-0.041,-0.494,-0.086,-0.034,-40.049,6.009,23.698
1747653289.69,0.028,0.034,-0.002,-0.498,-0.081,-0.044,-40.333,5.967,23.707
1747653289.70,0.022,-0.010,-0.010,-0.514,-0.057,-0.041,-40.622,5.931,23.714
1747653289.71,0.023,-0.059,-0.035,-0.571,-0.008,-0.028,-40.932,5.923,23.730
1747653289.72,0.025,-0.095,-0.061,-0.642,0.026,-0.015,-41.277,5.949,23.760
1747653289.73,0.022,-0.118,-0.087,-0.711,0.018,0.011,-41.662,5.995,23.811
1747653289.74,0.021,-0.130,-0.074,-0.765,0.038,0.063,-42.079,6.069,23.900
1747653289.75,0.035,-0.125,-0.046,-0.781,0.067,0.079,-42.515,6.180,24.020
1747653289.76,0.036,-0.098,-0.039,-0.763,0.080,0.056,-42.950,6.304,24.139
1747653289.77,0.019,-0.065,-0.040,-0.744,0.055,0.019,-43.376,6.409,24.233
1747653289.78,0.012,-0.043,-0.063,-0.750,0.003,-0.008,-43.799,6.473,24.302
1747653289.79,0.013,-0.031,-0.103,-0.762,0.004,-0.032,-44.229,6.509,24.353
1747653289.80,0.018,-0.028,-0.074,-0.791,0.007,-0.053,-44.671,6.538,24.389
1747653289.81,0.009,-0.035,-0.049,-0.853,-0.038,-0.058,-45.140,6.550,24.418
1747653289.82,-0.008,-0.045,-0.054,-0.891,-0.056,-0.042,-45.640,6.550,24.459
1747653289.83,-0.007,-0.046,-0.039,-0.912,-0.032,-0.018,-46.152,6.567,24.520
1747653289.84,0.006,-0.030,-0.028,-0.937,0.009,-0.015,-46.678,6.616,24.595
1747653289.85,0.017,-0.007,-0.019,-0.951,-0.002,-0.018,-47.215,6.678,24.674
1747653289.86,0.016,0.011,-0.041,-0.971,-0.010,-0.024,-47.761,6.731,24.753
1747653289.87,0.011,0.023,-0.043,-0.983,0.017,-0.053,-48.317,6.784,24.820
1747653289.88,0.005,0.024,-0.013,-0.980,0.014,-0.090,-48.879,6.822,24.859
1747653289.89,-0.003,0.019,-0.021,-0.986,-0.005,-0.107,-49.443,6.838,24.874
1747653289.90,0.001,0.003,-0.034,-0.999,-0.029,-0.108,-50.013,6.834,24.882
1747653289.91,0.012,-0.012,-0.033,-1.024,-0.036,-0.095,-50.594,6.827,24.899
1747653289.92,0.028,-0.022,-0.026,-1.045,-0.024,-0.069,-51.186,6.840,24.937
1747653289.93,0.043,-0.031,-0.010,-1.072,-0.025,-0.057,-51.790,6.874,24.998
1747653289.94,0.036,-0.032,-0.009,-1.087,-0.026,-0.051,-52.407,6.918,25.071
1747653289.95,0.019,-0.036,-0.010,-1.081,-0.027,-0.051,-53.024,6.963,25.146
1747653289.96,-0.005,-0.036,-0.028,-1.088,-0.040,-0.053,-53.642,7.006,25.222
1747653289.97,-0.027,-0.037,-0.044,-1.112,-0.060,-0.061,-54.268,7.038,25.298
1747653289.98,-0.040,-0.034,-0.053,-1.143,-0.054,-0.078,-54.911,7.059,25.366
1747653289.99,-0.039,-0.026,-0.024,-1.168,-0.014,-0.093,-55.573,7.085,25.423
1747653290.00,-0.027,-0.018,0.015,-1.174,-0.008,-0.105,-56.244,7.120,25.470
1747653290.01,-0.026,-0.005,0.013,-1.187,-0.035,-0.107,-56.920,7.143,25.511
1747653290.02,-0.024,0.008,0.002,-1.198,-0.048,-0.094,-57.604,7.161,25.563
1747653290.03,-0.007,0.022,0.005,-1.178,-0.044,-0.087,-58.285,7.189,25.627
1747653290.04,0.014,0.031,-0.031,-1.164,-0.029,-0.102,-58.953,7.219,25.686
1747653290.05,0.024,0.035,-0.048,-1.175,-0.036,-0.129,-59.624,7.232,25.722
1747653290.06,0.021,0.033,-0.051,-1.194,-0.076,-0.153,-60.305,7.210,25.731
1747653290.07,0.010,0.017,-0.068,-1.181,-0.153,-0.169,-60.989,7.131,25.714
1747653290.08,0.002,-0.008,-0.079,-1.181,-0.216,-0.163,-61.668,7.004,25.691
1747653290.09,0.018,-0.035,-0.086,-1.233,-0.250,-0.159,-62.362,6.855,25.674
1747653290.10,0.045,-0.052,-0.043,-1.272,-0.254,-0.176,-63.086,6.691,25.653
1747653290.11,0.065,-0.063,0.004,-1.259,-0.237,-0.201,-63.818,6.504,25.601
1747653290.12,0.076,-0.062,0.035,-1.231,-0.211,-0.222,-64.537,6.292,25.506
1747653290.13,0.067,-0.053,0.043,-1.211,-0.218,-0.235,-65.244,6.051,25.374
1747653290.14,0.049,-0.045,0.022,-1.200,-0.253,-0.233,-65.942,5.777,25.222
1747653290.15,0.041,-0.041,-0.031,-1.206,-0.272,-0.227,-66.638,5.483,25.065
1747653290.16,0.045,-0.036,-0.061,-1.224,-0.333,-0.223,-67.341,5.163,24.903
1747653290.17,0.046,-0.027,-0.075,-1.234,-0.399,-0.241,-68.053,4.780,24.718
1747653290.18,0.034,-0.015,-0.078,-1.204,-0.387,-0.271,-68.759,4.323,24.471
1747653290.19,0.024,-0.005,-0.022,-1.142,-0.336,-0.305,-69.439,3.811,24.143
1747653290.20,0.004,0.002,-0.009,-1.094,-0.306,-0.328,-70.086,3.243,23.733
1747653290.21,-0.025,-0.002,-0.042,-1.111,-0.243,-0.330,-70.722,2.645,23.267
1747653290.22,-0.042,-0.022,-0.016,-1.154,-0.158,-0.314,-71.376,2.073,22.784
1747653290.23,-0.049,-0.052,0.005,-1.198,-0.074,-0.288,-72.052,1.553,22.304
1747653290.24,-0.057,-0.082,-0.021,-1.248,-0.041,-0.273,-72.755,1.066,21.827
1747653290.25,-0.056,-0.096,-0.029,-1.262,-0.035,-0.262,-73.475,0.574,21.335
1747653290.26,-0.044,-0.088,-0.003,-1.232,-0.022,-0.242,-74.187,0.071,20.830
1747653290.27,-0.026,-0.062,0.007,-1.216,0.020,-0.221,-74.886,-0.418,20.324
1747653290.28,-0.003,-0.030,0.030,-1.178,0.045,-0.232,-75.570,-0.916,19.789
1747653290.29,-0.004,0.008,0.043,-1.121,0.055,-0.250,-76.223,-1.495,19.163
1747653290.30,-0.007,0.033,0.008,-1.088,0.083,-0.266,-76.847,-2.154,18.446
1747653290.31,-0.008,0.039,-0.018,-1.075,0.134,-0.296,-77.456,-2.918,17.598
1747653290.32,-0.006,0.032,-0.031,-1.070,0.150,-0.326,-78.057,-3.819,16.592
1747653290.33,0.008,0.010,-0.041,-1.077,0.144,-0.328,-78.654,-4.865,15.438
1747653290.34,0.024,-0.015,-0.034,-1.142,0.165,-0.304,-79.265,-6.011,14.184
1747653290.35,0.041,-0.030,0.016,-1.281,0.233,-0.262,-79.932,-7.213,12.846
1747653290.36,0.068,-0.031,0.110,-1.411,0.277,-0.195,-80.677,-8.450,11.443
1747653290.37,0.084,-0.022,0.139,-1.441,0.291,-0.119,-81.471,-9.668,10.044
1747653290.38,0.084,-0.006,0.104,-1.382,0.226,-0.068,-82.258,-10.880,8.667
1747653290.39,0.078,0.009,0.069,-1.261,0.102,-0.051,-82.992,-12.198,7.241
1747653290.40,0.067,0.013,0.050,-1.145,-0.046,-0.055,-83.654,-13.744,5.667
1747653290.41,0.067,0.004,0.044,-1.047,-0.181,-0.083,-84.250,-15.660,3.806
1747653290.42,0.063,-0.003,0.008,-0.969,-0.307,-0.146,-84.782,-18.175,1.421
1747653290.43,0.021,-0.001,-0.056,-0.888,-0.365,-0.252,-85.243,-21.655,-1.876
1747653290.44,-0.052,0.005,-0.077,-0.833,-0.370,-0.368,-85.618,-26.386,-6.410
1747653290.45,-0.137,0.006,-0.057,-0.837,-0.350,-0.453,-85.916,-32.524,-12.357
1747653290.46,-0.215,-0.003,-0.018,-0.829,-0.269,-0.482,-86.141,-39.881,-19.550
1747653290.47,-0.259,-0.021,-0.003,-0.808,-0.115,-0.463,-86.292,-47.867,-27.443
1747653290.48,-0.270,-0.035,0.019,-0.770,0.015,-0.417,-86.372,-55.867,-35.432
1747653290.49,-0.257,-0.050,0.001,-0.773,0.116,-0.361,-86.401,-63.609,-43.228
1747653290.50,-0.219,-0.072,-0.037,-0.824,0.243,-0.306,-86.399,-71.345,-51.080
1747653290.51,-0.144,-0.096,-0.031,-0.877,0.402,-0.233,-86.372,-79.242,-59.177
1747653290.52,-0.052,-0.104,-0.021,-0.867,0.567,-0.156,-86.322,-86.946,-67.174
1747653290.53,0.026,-0.075,-0.043,-0.841,0.719,-0.102,-86.244,-94.077,-74.690
1747653290.54,0.065,-0.021,-0.040,-0.812,0.777,-0.082,-86.133,-100.576,-81.635
1747653290.55,0.069,0.030,-0.027,-0.797,0.739,-0.081,-85.980,-106.437,-87.944
1747653290.56,0.065,0.060,-0.029,-0.810,0.701,-0.058,-85.792,-111.874,-93.809
1747653290.57,0.080,0.061,-0.008,-0.813,0.647,-0.043,-85.574,-116.944,-99.280
1747653290.58,0.092,0.054,-0.004,-0.760,0.551,-0.073,-85.326,-121.363,-104.058
1747653290.59,0.093,0.050,-0.030,-0.672,0.446,-0.136,-85.052,-124.783,-107.774
1747653290.60,0.088,0.043,-0.052,-0.561,0.398,-0.206,-84.766,-127.096,-110.335
1747653290.61,0.085,0.028,-0.054,-0.477,0.386,-0.259,-84.479,-128.478,-111.948
1747653290.62,0.086,0.007,-0.032,-0.455,0.373,-0.274,-84.192,-129.357,-113.050
1747653290.63,0.085,-0.015,-0.002,-0.459,0.302,-0.264,-83.907,-130.136,-114.030
1747653290.64,0.077,-0.039,0.011,-0.460,0.118,-0.250,-83.625,-130.965,-114.988
1747653290.65,0.052,-0.057,-0.036,-0.460,-0.092,-0.231,-83.347,-131.893,-115.927
1747653290.66,0.032,-0.068,-0.081,-0.451,-0.227,-0.208,-83.078,-132.896,-116.842
1747653290.67,0.038,-0.064,-0.090,-0.430,-0.268,-0.178,-82.826,-133.912,-117.719
1747653290.68,0.056,-0.039,-0.098,-0.373,-0.206,-0.153,-82.598,-134.824,-118.501
1747653290.69,0.063,0.003,-0.084,-0.256,-0.144,-0.139,-82.411,-135.452,-119.035
1747653290.70,0.057,0.055,-0.080,-0.147,-0.050,-0.100,-82.282,-135.736,-119.263
1747653290.71,0.045,0.101,-0.059,-0.085,0.082,-0.046,-82.206,-135.834,-119.371
1747653290.72,0.030,0.117,0.007,-0.060,0.112,0.012,-82.172,-135.925,-119.524
1747653290.73,-0.021,0.084,0.038,-0.089,0.063,0.019,-82.151,-136.138,-119.789
1747653290.74,-0.094,0.016,0.016,-0.134,0.055,-0.021,-82.106,-136.439,-120.124
1747653290.75,-0.143,-0.051,-0.002,-0.180,0.132,-0.066,-82.023,-136.703,-120.440
1747653290.76,-0.147,-0.095,0.001,-0.207,0.250,-0.073,-81.913,-136.925,-120.773
1747653290.77,-0.117,-0.105,0.019,-0.199,0.379,-0.047,-81.803,-137.116,-121.149
1747653290.78,-0.076,-0.072,0.034,-0.195,0.499,0.002,-81.712,-137.325,-121.613
1747653290.79,-0.043,-0.004,0.056,-0.200,0.605,0.036,-81.637,-137.584,-122.194
1747653290.80,-0.043,0.062,0.061,-0.237,0.666,0.038,-81.560,-137.899,-122.882
1747653290.81,-0.073,0.085,0.061,-0.265,0.657,0.009,-81.462,-138.236,-123.605
1747653290.82,-0.111,0.067,0.036,-0.280,0.646,-0.022,-81.342,-138.523,-124.272
1747653290.83,-0.128,0.029,0.017,-0.259,0.649,-0.029,-81.215,-138.749,-124.873
1747653290.84,-0.104,-0.012,0.024,-0.191,0.662,-0.014,-81.108,-138.864,-125.365
1747653290.85,-0.051,-0.047,0.039,-0.158,0.665,0.024,-81.036,-138.899,-125.788
1747653290.86,-0.007,-0.069,0.075,-0.178,0.595,0.053,-80.979,-139.042,-126.298
1747653290.87,0.005,-0.073,0.083,-0.213,0.529,0.052,-80.916,-139.324,-126.909
1747653290.88,-0.014,-0.059,0.073,-0.238,0.419,0.009,-80.829,-139.657,-127.522
1747653290.89,-0.036,-0.046,0.063,-0.234,0.303,-0.043,-80.718,-139.951,-128.027
1747653290.90,-0.026,-0.042,0.035,-0.180,0.216,-0.064,-80.606,-140.123,-128.351
1747653290.91,0.031,-0.036,0.022,-0.100,0.140,-0.063,-80.522,-140.158,-128.490
1747653290.92,0.102,-0.014,0.018,-0.056,0.049,-0.058,-80.467,-140.112,-128.498
1747653290.93,0.149,0.027,0.021,-0.033,-0.076,-0.046,-80.429,-140.075,-128.454
1747653290.94,0.160,0.068,0.014,0.001,-0.244,-0.052,-80.404,-140.076,-128.364
1747653290.95,0.125,0.083,0.006,0.035,-0.389,-0.078,-80.389,-140.051,-128.151
1747653290.96,0.057,0.071,0.020,0.032,-0.451,-0.089,-80.374,-139.997,-127.851
1747653290.97,0.001,0.032,0.035,-0.008,-0.448,-0.092,-80.346,-139.993,-127.585
1747653290.98,-0.036,-0.010,0.040,-0.055,-0.406,-0.090,-80.299,-140.072,-127.415
1747653290.99,-0.058,-0.041,0.038,-0.077,-0.306,-0.092,-80.235,-140.187,-127.324
1747653291.00,-0.055,-0.054,0.037,-0.076,-0.170,-0.081,-80.170,-140.257,-127.256
1747653291.01,-0.044,-0.045,0.041,-0.100,-0.048,-0.062,-80.106,-140.316,-127.256
1747653291.02,-0.047,-0.028,0.044,-0.110,-0.009,-0.038,-80.041,-140.429,-127.358
1747653291.03,-0.064,-0.010,0.016,-0.094,0.021,-0.019,-79.986,-140.569,-127.503
1747653291.04,-0.084,-0.006,-0.038,-0.085,0.070,-0.007,-79.943,-140.697,-127.659
1747653291.05,-0.090,-0.009,-0.062,-0.109,0.119,0.003,-79.900,-140.834,-127.854
1747653291.06,-0.084,-0.018,-0.055,-0.112,0.177,0.011,-79.851,-140.995,-128.103
1747653291.07,-0.064,-0.021,-0.028,-0.072,0.231,0.026,-79.816,-141.106,-128.335
1747653291.08,-0.041,-0.008,-0.001,-0.034,0.256,0.035,-79.803,-141.143,-128.515
1747653291.09,-0.038,0.015,0.006,-0.014,0.258,0.033,-79.803,-141.124,-128.645
1747653291.10,-0.048,0.029,0.018,-0.021,0.225,0.031,-79.804,-141.088,-128.752
1747653291.11,-0.053,0.021,0.014,-0.033,0.171,0.026,-79.797,-141.076,-128.855
1747653291.12,-0.045,0.002,-0.007,-0.049,0.130,0.011,-79.782,-141.057,-128.925
1747653291.13,-0.024,-0.013,-0.005,-0.058,0.108,-0.010,-79.756,-141.012,-128.949
1747653291.14,0.016,-0.020,0.005,-0.052,0.125,-0.025,-79.723,-140.925,-128.930
1747653291.15,0.059,-0.015,0.024,-0.035,0.115,-0.028,-79.691,-140.835,-128.912
1747653291.16,0.082,-0.000,0.044,-0.020,0.058,-0.030,-79.667,-140.757,-128.885
1747653291.17,0.072,0.015,0.039,-0.007,-0.012,-0.041,-79.647,-140.679,-128.819
1747653291.18,0.045,0.017,0.030,-0.003,-0.095,-0.052,-79.627,-140.603,-128.711
1747653291.19,0.017,0.003,0.007,-0.019,-0.146,-0.051,-79.602,-140.562,-128.597
1747653291.20,0.010,-0.019,-0.002,-0.036,-0.181,-0.050,-79.570,-140.576,-128.517
1747653291.21,0.025,-0.031,0.002,-0.032,-0.205,-0.039,-79.537,-140.649,-128.479
1747653291.22,0.048,-0.027,0.003,0.010,-0.181,-0.026,-79.521,-140.716,-128.434
1747653291.23,0.060,-0.012,-0.001,0.037,-0.172,-0.022,-79.525,-140.733,-128.349
1747653291.24,0.051,0.012,-0.002,0.043,-0.183,-0.023,-79.536,-140.741,-128.254
1747653291.25,0.021,0.032,0.002,0.060,-0.191,-0.032,-79.550,-140.723,-128.125
1747653291.26,-0.018,0.034,0.001,0.078,-0.185,-0.024,-79.572,-140.654,-127.945
1747653291.27,-0.046,0.017,0.003,0.068,-0.143,-0.012,-79.600,-140.567,-127.759
1747653291.28,-0.053,-0.006,0.005,0.038,-0.075,-0.005,-79.621,-140.511,-127.638
1747653291.29,-0.048,-0.024,0.006,0.032,-0.003,-0.006,-79.635,-140.461,-127.566
1747653291.30,-0.042,-0.027,0.002,0.047,0.048,-0.011,-79.650,-140.363,-127.479
1747653291.31,-0.035,-0.016,-0.009,0.073,0.091,-0.007,-79.674,-140.198,-127.352
1747653291.32,-0.022,-0.001,-0.015,0.084,0.102,0.009,-79.712,-139.997,-127.205
1747653291.33,-0.014,0.009,-0.017,0.054,0.081,0.034,-79.752,-139.861,-127.119
1747653291.34,-0.007,0.010,-0.003,0.025,0.069,0.049,-79.783,-139.842,-127.144
1747653291.35,0.009,0.000,0.011,0.032,0.025,0.044,-79.808,-139.852,-127.183
1747653291.36,0.025,-0.008,0.009,0.043,-0.027,0.026,-79.833,-139.838,-127.169
1747653291.37,0.043,-0.010,0.005,0.056,-0.055,0.019,-79.859,-139.801,-127.107
1747653291.38,0.068,-0.011,0.020,0.092,-0.042,0.016,-79.894,-139.708,-126.982
1747653291.39,0.084,-0.011,0.042,0.133,-0.039,0.008,-79.945,-139.510,-126.760
1747653291.40,0.075,-0.005,0.056,0.163,-0.058,-0.003,-80.010,-139.224,-126.442
1747653291.41,0.044,0.003,0.071,0.193,-0.102,-0.017,-80.083,-138.862,-126.028
1747653291.42,0.003,0.007,0.086,0.233,-0.176,-0.028,-80.166,-138.418,-125.498
1747653291.43,-0.036,0.003,0.079,0.240,-0.227,-0.037,-80.255,-137.931,-124.886
1747653291.44,-0.059,-0.007,0.072,0.234,-0.246,-0.045,-80.339,-137.448,-124.257
1747653291.45,-0.063,-0.021,0.071,0.243,-0.225,-0.043,-80.423,-136.945,-123.607
1747653291.46,-0.054,-0.031,0.067,0.253,-0.193,-0.029,-80.513,-136.421,-122.954
1747653291.47,-0.038,-0.035,0.072,0.236,-0.179,-0.006,-80.609,-135.934,-122.353
1747653291.48,-0.030,-0.038,0.071,0.208,-0.168,0.012,-80.700,-135.550,-121.860
1747653291.49,-0.027,-0.042,0.067,0.204,-0.149,0.024,-80.789,-135.214,-121.428
1747653291.50,-0.025,-0.038,0.055,0.248,-0.135,0.024,-80.885,-134.825,-120.951
1747653291.51,-0.033,-0.019,0.038,0.322,-0.134,0.026,-81.004,-134.246,-120.287
1747653291.52,-0.049,0.007,0.034,0.389,-0.139,0.032,-81.151,-133.470,-119.423
1747653291.53,-0.065,0.034,0.031,0.437,-0.147,0.034,-81.322,-132.524,-118.382
1747653291.54,-0.080,0.052,0.023,0.466,-0.157,0.046,-81.512,-131.432,-117.190
1747653291.55,-0.088,0.049,0.021,0.476,-0.154,0.075,-81.715,-130.288,-115.943
1747653291.56,-0.082,0.029,0.037,0.488,-0.133,0.103,-81.930,-129.123,-114.681
1747653291.57,-0.070,0.002,0.054,0.513,-0.077,0.129,-82.160,-127.882,-113.366
1747653291.58,-0.061,-0.018,0.063,0.541,-0.011,0.149,-82.405,-126.490,-111.937
1747653291.59,-0.053,-0.027,0.057,0.560,0.012,0.168,-82.663,-124.942,-110.378
1747653291.60,-0.051,-0.028,0.045,0.567,-0.004,0.172,-82.924,-123.263,-108.688
1747653291.61,-0.057,-0.024,0.033,0.597,-0.029,0.173,-83.184,-121.412,-106.814
1747653291.62,-0.055,-0.022,0.021,0.642,-0.044,0.171,-83.448,-119.249,-104.615
1747653291.63,-0.038,-0.021,0.013,0.692,-0.034,0.170,-83.712,-116.679,-102.005
1747653291.64,-0.011,-0.017,0.015,0.715,-0.002,0.184,-83.974,-113.701,-98.999
1747653291.65,0.021,-0.007,0.034,0.740,-0.007,0.213,-84.235,-110.389,-95.670
1747653291.66,0.041,0.005,0.040,0.794,-0.116,0.242,-84.498,-106.642,-91.873
1747653291.67,0.030,0.017,0.010,0.849,-0.281,0.238,-84.750,-102.287,-87.385
1747653291.68,0.003,0.027,-0.022,0.886,-0.427,0.214,-84.962,-97.308,-82.181
1747653291.69,-0.018,0.032,-0.026,0.925,-0.510,0.183,-85.116,-91.736,-76.316
1747653291.70,-0.025,0.027,-0.020,0.937,-0.481,0.164,-85.202,-85.702,-69.972
1747653291.71,-0.018,0.011,0.010,0.918,-0.399,0.158,-85.225,-79.521,-63.519
1747653291.72,-0.015,-0.004,0.047,0.878,-0.379,0.176,-85.196,-73.526,-57.281
1747653291.73,-0.030,-0.021,0.045,0.850,-0.383,0.199,-85.134,-67.816,-51.333
1747653291.73,-0.042,-0.032,0.033,0.865,-0.431,0.197,-85.031,-62.354,-45.620
1747653291.75,-0.039,-0.027,-0.001,0.902,-0.438,0.191,-84.872,-57.035,-40.029
1747653291.76,-0.013,-0.020,-0.012,0.922,-0.372,0.204,-84.661,-51.941,-34.679
1747653291.76,0.032,-0.020,0.024,0.956,-0.276,0.236,-84.407,-47.024,-29.553
1747653291.78,0.051,-0.012,0.037,0.994,-0.207,0.251,-84.108,-42.282,-24.650
1747653291.78,0.006,0.005,0.034,1.004,-0.165,0.224,-83.759,-37.942,-20.179
1747653291.79,-0.078,0.018,0.036,0.975,-0.123,0.176,-83.369,-34.246,-16.375
1747653291.80,-0.144,0.014,-0.010,0.943,-0.023,0.157,-82.959,-31.165,-13.229
1747653291.81,-0.158,-0.012,-0.042,0.898,0.125,0.167,-82.548,-28.444,-10.514
1747653291.82,-0.124,-0.043,-0.034,0.851,0.270,0.177,-82.149,-25.980,-8.143
1747653291.83,-0.074,-0.056,0.003,0.858,0.354,0.209,-81.753,-23.658,-5.979
1747653291.84,-0.016,-0.051,0.017,0.864,0.361,0.255,-81.347,-21.348,-3.855
1747653291.85,0.039,-0.029,0.028,0.824,0.249,0.299,-80.950,-19.149,-1.808
1747653291.86,0.063,-0.000,0.047,0.842,0.159,0.339,-80.559,-17.072,0.182
1747653291.87,0.074,0.018,0.030,0.887,0.136,0.349,-80.138,-15.063,2.136
1747653291.88,0.073,0.023,-0.007,0.830,0.091,0.308,-79.704,-13.285,3.874
1747653291.89,0.041,0.019,-0.021,0.743,0.024,0.254,-79.303,-11.886,5.265
1747653291.90,0.011,-0.012,-0.023,0.754,0.026,0.246,-78.917,-10.722,6.438
1747653291.91,0.015,-0.050,-0.001,0.859,0.013,0.253,-78.490,-9.597,7.570
1747653291.92,0.016,-0.064,-0.001,0.908,-0.046,0.234,-78.009,-8.556,8.641
1747653291.93,0.005,-0.043,-0.025,0.847,-0.057,0.235,-77.530,-7.653,9.598
1747653291.94,0.031,-0.013,0.008,0.833,0.024,0.247,-77.074,-6.793,10.491
1747653291.95,0.073,0.017,0.001,0.839,0.142,0.249,-76.613,-5.915,11.345
1747653291.96,0.067,0.041,-0.011,0.803,0.239,0.254,-76.159,-5.032,12.141
1747653291.97,0.035,0.029,0.030,0.746,0.288,0.257,-75.730,-4.156,12.885
1747653291.98,-0.000,-0.008,0.035,0.708,0.266,0.261,-75.327,-3.326,13.579
1747653291.99,-0.027,-0.043,0.034,0.742,0.242,0.286,-74.924,-2.517,14.265
1747653292.00,-0.019,-0.058,0.016,0.804,0.209,0.293,-74.489,-1.716,14.961
1747653292.01,-0.004,-0.044,-0.021,0.845,0.158,0.257,-74.021,-1.007,15.588
1747653292.02,-0.001,-0.018,-0.051,0.832,0.116,0.183,-73.542,-0.475,16.061
1747653292.03,-0.022,0.003,-0.056,0.829,0.122,0.127,-73.071,-0.112,16.372
1747653292.04,-0.042,0.004,-0.036,0.881,0.213,0.130,-72.582,0.213,16.614
1747653292.05,-0.042,0.002,-0.025,0.870,0.294,0.174,-72.077,0.619,16.885
1747653292.06,-0.046,0.003,-0.025,0.790,0.357,0.219,-71.601,1.123,17.220
1747653292.07,-0.046,0.001,-0.048,0.730,0.422,0.252,-71.164,1.711,17.606
1747653292.08,-0.026,-0.009,-0.039,0.676,0.493,0.264,-70.758,2.361,18.017
1747653292.09,0.001,-0.024,0.034,0.676,0.484,0.241,-70.368,3.007,18.403
1747653292.10,0.020,-0.043,0.059,0.741,0.382,0.208,-69.958,3.546,18.709
1747653292.11,0.038,-0.051,0.013,0.778,0.249,0.202,-69.515,3.962,18.962
1747653292.12,0.041,-0.046,0.010,0.772,0.128,0.202,-69.065,4.290,19.198
1747653292.13,0.049,-0.036,0.006,0.784,0.069,0.188,-68.613,4.542,19.411
1747653292.14,0.058,-0.022,-0.043,0.738,0.093,0.191,-68.169,4.767,19.605
1747653292.15,0.072,-0.013,-0.013,0.730,0.115,0.196,-67.744,5.014,19.805
1747653292.16,0.088,-0.007,0.019,0.751,0.090,0.221,-67.312,5.270,20.017
1747653292.17,0.071,0.008,0.028,0.717,0.024,0.269,-66.880,5.538,20.271
