Time,AccX,AccY,AccZ,GyroX,GyroY,GyroZ,Pitch,Roll,Yaw
1747655907.50,0.011,0.000,-0.009,0.005,-0.090,0.022,-85.517,49.372,48.387
1747655907.51,0.016,-0.001,-0.006,0.008,-0.080,0.016,-85.507,49.369,48.433
1747655907.52,0.013,-0.003,-0.002,0.005,-0.084,0.011,-85.500,49.331,48.441
1747655907.53,-0.000,-0.000,0.003,0.003,-0.097,0.004,-85.494,49.312,48.474
1747655907.54,-0.012,0.002,0.002,0.010,-0.109,0.010,-85.487,49.285,48.507
1747655907.55,-0.015,-0.003,-0.002,0.016,-0.116,0.020,-85.474,49.233,48.518
1747655907.56,-0.012,-0.009,-0.003,0.024,-0.121,0.027,-85.455,49.169,48.522
1747655907.57,-0.004,-0.006,-0.000,0.043,-0.121,0.037,-85.428,49.073,48.495
1747655907.58,0.008,-0.005,0.003,0.061,-0.120,0.045,-85.389,48.923,48.414
1747655907.59,0.018,-0.004,0.002,0.074,-0.114,0.057,-85.340,48.748,48.303
1747655907.60,0.017,0.007,0.006,0.085,-0.096,0.051,-85.285,48.542,48.157
1747655907.61,0.002,0.020,0.012,0.094,-0.078,0.032,-85.234,48.219,47.882
1747655907.62,-0.020,0.035,0.016,0.096,-0.050,0.036,-85.185,47.843,47.542
1747655907.63,-0.045,0.025,0.019,0.075,-0.025,0.038,-85.136,47.552,47.272
1747655907.64,-0.061,-0.006,0.020,0.066,0.008,0.028,-85.097,47.333,47.058
1747655907.65,-0.055,-0.016,0.025,0.064,0.027,0.033,-85.059,47.168,46.881
1747655907.66,-0.030,-0.012,0.030,0.070,0.038,0.043,-85.018,47.052,46.746
1747655907.67,-0.002,-0.001,0.030,0.084,0.025,0.045,-84.969,46.906,46.580
1747655907.68,0.014,0.010,0.027,0.095,0.015,0.047,-84.915,46.719,46.382
1747655907.69,0.016,0.013,0.019,0.118,0.003,0.043,-84.856,46.436,46.092
1747655907.70,0.009,0.017,0.016,0.121,-0.021,0.039,-84.793,46.061,45.722
1747655907.71,-0.000,0.013,0.015,0.114,-0.025,0.039,-84.735,45.665,45.340
1747655907.72,-0.001,-0.013,0.013,0.114,-0.024,0.038,-84.678,45.307,44.994
1747655907.73,0.007,-0.027,0.008,0.124,-0.049,0.032,-84.621,44.913,44.619
1747655907.74,0.004,-0.015,-0.003,0.141,-0.045,0.037,-84.556,44.484,44.217
1747655907.75,-0.002,-0.001,-0.005,0.155,-0.022,0.045,-84.480,44.046,43.796
1747655907.76,-0.005,0.004,0.002,0.170,-0.016,0.040,-84.398,43.578,43.335
1747655907.77,-0.006,0.006,-0.010,0.174,-0.040,0.045,-84.311,43.082,42.852
1747655907.78,-0.005,0.005,-0.021,0.189,-0.069,0.044,-84.218,42.550,42.348
1747655907.79,0.006,0.006,-0.028,0.201,-0.080,0.056,-84.118,41.987,41.826
1747655907.80,0.019,0.010,-0.028,0.213,-0.064,0.056,-84.010,41.429,41.306
1747655907.81,0.022,0.005,-0.011,0.229,-0.067,0.059,-83.894,40.852,40.762
1747655907.82,0.011,-0.009,-0.002,0.243,-0.074,0.063,-83.769,40.243,40.191
1747655907.83,0.004,-0.023,-0.008,0.246,-0.087,0.068,-83.640,39.643,39.634
1747655907.84,0.010,-0.027,-0.001,0.265,-0.081,0.087,-83.501,39.090,39.126
1747655907.85,0.019,-0.026,0.011,0.285,-0.084,0.088,-83.348,38.523,38.602
1747655907.86,0.021,-0.016,0.009,0.310,-0.107,0.087,-83.184,37.905,38.033
1747655907.87,0.008,-0.002,-0.004,0.336,-0.140,0.087,-83.007,37.235,37.430
1747655907.88,-0.008,0.012,-0.015,0.367,-0.148,0.088,-82.814,36.510,36.784
1747655907.88,-0.027,0.020,-0.012,0.374,-0.126,0.087,-82.613,35.787,36.134
1747655907.90,-0.037,0.015,0.009,0.392,-0.100,0.084,-82.408,35.079,35.484
1747655907.91,-0.037,0.002,0.025,0.421,-0.104,0.092,-82.188,34.345,34.801
1747655907.92,-0.026,-0.015,0.021,0.438,-0.117,0.097,-81.954,33.623,34.136
1747655907.93,-0.008,-0.025,0.010,0.464,-0.134,0.112,-81.707,32.922,33.499
1747655907.93,0.016,-0.020,-0.013,0.498,-0.145,0.115,-81.440,32.212,32.862
1747655907.95,0.037,-0.000,-0.031,0.513,-0.140,0.102,-81.162,31.478,32.201
1747655907.95,0.039,0.018,-0.012,0.525,-0.139,0.092,-80.880,30.726,31.520
1747655907.96,0.024,0.022,0.011,0.522,-0.151,0.082,-80.596,29.981,30.848
1747655907.97,-0.004,0.014,0.020,0.525,-0.160,0.087,-80.313,29.263,30.211
1747655907.98,-0.029,0.003,0.037,0.558,-0.173,0.106,-80.016,28.580,29.614
1747655907.99,-0.035,-0.004,0.042,0.569,-0.182,0.125,-79.701,27.947,29.076
1747655908.01,-0.035,-0.004,0.033,0.584,-0.138,0.134,-79.376,27.385,28.597
1747655908.01,-0.023,-0.010,0.038,0.627,-0.066,0.138,-79.032,26.862,28.125
1747655908.02,-0.007,-0.009,0.030,0.650,-0.028,0.120,-78.673,26.344,27.622
1747655908.03,-0.013,0.006,0.037,0.673,-0.035,0.102,-78.306,25.791,27.076
1747655908.04,-0.035,0.021,0.036,0.658,-0.018,0.097,-77.937,25.233,26.522
1747655908.05,-0.043,0.033,0.038,0.583,-0.028,0.101,-77.591,24.761,26.051
1747655908.06,-0.047,0.042,0.079,0.555,-0.045,0.120,-77.272,24.395,25.698
1747655908.07,-0.062,0.028,0.095,0.565,-0.016,0.148,-76.948,24.108,25.423
1747655908.08,-0.068,-0.005,0.070,0.567,0.018,0.175,-76.615,23.906,25.214
1747655908.09,-0.049,-0.027,0.061,0.546,0.004,0.192,-76.283,23.784,25.082
1747655908.10,-0.021,-0.029,0.044,0.560,-0.030,0.175,-75.952,23.660,24.961
1747655908.11,0.006,-0.013,0.017,0.627,-0.062,0.126,-75.609,23.416,24.737
1747655908.12,0.035,0.014,-0.021,0.704,-0.108,0.085,-75.235,22.997,24.355
1747655908.13,0.048,0.039,-0.042,0.721,-0.126,0.062,-74.842,22.478,23.889
1747655908.14,0.037,0.043,-0.011,0.729,-0.069,0.062,-74.446,21.973,23.425
1747655908.15,0.016,0.020,0.037,0.740,0.024,0.061,-74.043,21.521,22.970
1747655908.16,-0.023,-0.009,0.032,0.710,0.081,0.091,-73.640,21.170,22.572
1747655908.17,-0.060,-0.029,0.011,0.636,0.077,0.134,-73.257,20.950,22.294
1747655908.18,-0.081,-0.033,0.008,0.577,0.118,0.167,-72.905,20.862,22.148
1747655908.19,-0.078,-0.034,0.014,0.548,0.207,0.173,-72.571,20.885,22.072
1747655908.20,-0.032,-0.026,0.026,0.562,0.166,0.174,-72.241,20.937,22.086
1747655908.21,0.025,-0.008,-0.008,0.600,0.106,0.167,-71.896,20.932,21.999
1747655908.22,0.084,0.005,-0.035,0.655,0.041,0.148,-71.529,20.842,21.944
1747655908.23,0.127,0.009,-0.031,0.688,-0.002,0.121,-71.142,20.659,21.742
1747655908.24,0.112,0.003,-0.035,0.678,0.036,0.117,-70.752,20.451,21.586
1747655908.25,0.080,-0.012,-0.004,0.676,0.039,0.130,-70.365,20.279,21.379
1747655908.26,0.028,-0.020,0.019,0.624,0.035,0.171,-69.984,20.160,21.285
1747655908.27,-0.030,-0.027,0.028,0.537,0.096,0.212,-69.636,20.171,21.260
1747655908.28,-0.047,-0.036,0.049,0.539,0.131,0.220,-69.307,20.268,21.367
1747655908.29,-0.026,-0.041,0.023,0.549,0.070,0.222,-68.971,20.358,21.397
1747655908.30,0.010,-0.030,-0.003,0.586,-0.040,0.195,-68.628,20.367,21.495
1747655908.31,0.029,-0.004,-0.010,0.659,-0.155,0.155,-68.259,20.238,21.416
1747655908.32,0.018,0.017,-0.055,0.706,-0.191,0.099,-67.868,19.971,21.332
1747655908.33,-0.006,0.024,-0.079,0.753,-0.100,0.043,-67.462,19.633,21.061
1747655908.34,-0.022,0.016,-0.069,0.767,0.025,0.012,-67.047,19.297,20.719
1747655908.35,-0.052,-0.001,-0.034,0.723,0.111,0.012,-66.642,19.022,20.378
1747655908.36,-0.097,-0.012,-0.000,0.668,0.231,0.044,-66.261,18.855,20.149
1747655908.37,-0.121,-0.020,0.002,0.593,0.392,0.084,-65.909,18.850,19.947
1747655908.38,-0.112,-0.021,0.060,0.546,0.461,0.127,-65.584,18.997,19.834
1747655908.39,-0.069,-0.012,0.086,0.561,0.380,0.157,-65.260,19.184,19.771
1747655908.40,-0.011,0.007,0.022,0.587,0.250,0.164,-64.920,19.321,19.724
1747655908.41,0.055,0.019,-0.006,0.653,0.148,0.141,-64.559,19.364,19.646
1747655908.42,0.118,0.022,0.002,0.742,0.034,0.134,-64.158,19.293,19.510
1747655908.43,0.125,0.020,-0.016,0.812,-0.065,0.073,-63.717,19.099,19.305
1747655908.44,0.081,0.024,-0.042,0.885,-0.051,0.031,-63.251,18.798,19.013
1747655908.45,0.017,0.031,-0.029,0.862,0.079,0.029,-62.767,18.518,18.690
1747655908.46,-0.052,0.020,0.043,0.781,0.131,0.032,-62.319,18.329,18.406
1747655908.47,-0.128,0.001,0.109,0.736,0.154,0.061,-61.899,18.193,18.163
1747655908.48,-0.160,-0.017,0.025,0.646,0.255,0.189,-61.503,18.203,18.042
1747655908.49,-0.098,-0.032,0.021,0.609,0.267,0.212,-61.128,18.361,18.046
1747655908.50,-0.004,-0.017,0.053,0.627,0.131,0.187,-60.758,18.470,18.036
1747655908.51,0.072,0.002,0.010,0.674,-0.004,0.180,-60.373,18.473,18.000
1747655908.52,0.131,0.010,-0.002,0.777,-0.137,0.157,-59.953,18.368,17.925
1747655908.53,0.138,0.030,-0.012,0.861,-0.235,0.115,-59.482,18.132,17.780
1747655908.54,0.089,0.036,-0.046,0.909,-0.182,0.077,-58.984,17.833,17.575
1747655908.55,0.033,0.024,-0.005,0.869,0.003,0.045,-58.488,17.577,17.339
1747655908.56,-0.040,-0.008,0.060,0.809,0.204,0.055,-58.023,17.446,17.114
1747655908.57,-0.109,-0.048,0.065,0.722,0.347,0.116,-57.590,17.467,16.950
1747655908.58,-0.138,-0.085,-0.015,0.605,0.397,0.218,-57.201,17.646,16.905
1747655908.59,-0.099,-0.096,-0.007,0.553,0.345,0.333,-56.841,17.935,16.995
1747655908.60,-0.008,-0.073,0.022,0.573,0.234,0.349,-56.473,18.243,17.161
1747655908.61,0.102,-0.012,0.040,0.617,0.008,0.324,-56.092,18.429,17.297
1747655908.62,0.179,0.068,0.020,0.710,-0.211,0.308,-55.676,18.445,17.389
1747655908.63,0.200,0.111,-0.019,0.818,-0.327,0.268,-55.209,18.316,17.423
1747655908.64,0.165,0.111,-0.032,0.870,-0.349,0.204,-54.706,18.087,17.384
1747655908.65,0.066,0.077,-0.020,0.864,-0.227,0.142,-54.203,17.833,17.280
1747655908.66,-0.039,0.012,0.025,0.840,-0.075,0.137,-53.715,17.646,17.153
1747655908.67,-0.095,-0.066,0.053,0.748,0.066,0.177,-53.253,17.571,17.064
1747655908.68,-0.117,-0.129,0.013,0.632,0.191,0.234,-52.844,17.639,17.051
1747655908.69,-0.065,-0.155,-0.009,0.590,0.134,0.291,-52.469,17.786,17.113
1747655908.70,0.026,-0.128,-0.034,0.607,0.023,0.321,-52.090,17.911,17.215
1747655908.71,0.085,-0.054,-0.018,0.650,-0.124,0.310,-51.693,17.963,17.316
1747655908.72,0.091,0.030,-0.006,0.716,-0.267,0.251,-51.274,17.892,17.369
1747655908.73,0.041,0.095,-0.043,0.826,-0.309,0.186,-50.817,17.702,17.343
1747655908.74,-0.017,0.122,-0.036,0.880,-0.237,0.117,-50.323,17.464,17.241
1747655908.75,-0.081,0.112,0.023,0.900,-0.080,0.048,-49.824,17.242,17.072
1747655908.76,-0.133,0.070,0.058,0.899,0.065,0.030,-49.326,17.085,16.867
1747655908.77,-0.141,-0.001,0.080,0.826,0.127,0.059,-48.847,17.001,16.681
1747655908.78,-0.126,-0.062,0.011,0.748,0.184,0.115,-48.404,16.995,16.553
1747655908.79,-0.057,-0.098,-0.035,0.709,0.123,0.157,-47.985,17.036,16.484
1747655908.80,0.006,-0.093,-0.007,0.717,0.043,0.167,-47.569,17.050,16.441
1747655908.81,0.048,-0.037,0.008,0.785,-0.027,0.144,-47.133,17.011,16.381
1747655908.82,0.080,0.036,0.035,0.855,-0.111,0.095,-46.666,16.894,16.277
1747655908.83,0.044,0.098,0.021,0.907,-0.129,0.043,-46.170,16.712,16.117
1747655908.84,0.000,0.115,-0.007,0.932,-0.129,0.027,-45.661,16.501,15.928
1747655908.85,-0.021,0.086,0.010,0.931,-0.050,0.022,-45.146,16.306,15.733
1747655908.86,-0.049,0.042,0.075,0.934,0.079,0.018,-44.632,16.179,15.539
1747655908.87,-0.042,-0.002,0.119,0.911,0.131,0.010,-44.123,16.108,15.344
1747655908.88,-0.010,-0.029,0.042,0.839,0.108,0.045,-43.639,16.055,15.168
1747655908.89,0.018,-0.031,-0.029,0.782,0.089,0.145,-43.177,16.044,15.071
1747655908.90,0.070,-0.031,-0.021,0.765,0.008,0.123,-42.733,16.029,15.004
1747655908.91,0.096,0.008,0.026,0.786,-0.099,0.130,-42.288,15.952,14.932
1747655908.92,0.093,0.039,0.024,0.821,-0.188,0.119,-41.826,15.820,14.854
1747655908.93,0.081,0.065,0.001,0.847,-0.244,0.126,-41.350,15.639,14.771
1747655908.94,0.059,0.080,0.005,0.882,-0.219,0.142,-40.855,15.451,14.693
1747655908.95,0.037,0.078,0.065,0.921,-0.126,0.154,-40.335,15.304,14.620
1747655908.96,0.015,0.046,0.129,0.895,-0.023,0.162,-39.808,15.221,14.555
1747655908.97,-0.002,0.024,0.092,0.849,-0.006,0.188,-39.302,15.185,14.508
1747655908.98,-0.008,-0.003,0.015,0.816,-0.020,0.252,-38.811,15.173,14.503
1747655908.99,0.013,-0.050,-0.017,0.783,-0.008,0.296,-38.330,15.192,14.546
1747655909.00,0.084,-0.071,-0.006,0.781,-0.084,0.295,-37.856,15.208,14.606
1747655909.01,0.111,-0.059,-0.008,0.813,-0.193,0.277,-37.374,15.156,14.654
1747655909.02,0.077,-0.032,-0.025,0.818,-0.274,0.265,-36.884,15.043,14.688
1747655909.03,0.031,-0.001,-0.008,0.829,-0.314,0.263,-36.392,14.891,14.719
1747655909.04,-0.010,0.017,0.021,0.868,-0.289,0.257,-35.885,14.730,14.742
1747655909.05,-0.031,0.022,0.069,0.884,-0.188,0.244,-35.363,14.601,14.756
1747655909.06,-0.022,0.015,0.063,0.887,-0.130,0.234,-34.839,14.517,14.763
1747655909.07,-0.022,0.006,0.019,0.865,-0.107,0.228,-34.321,14.449,14.767
1747655909.08,-0.051,0.008,-0.006,0.862,-0.051,0.219,-33.815,14.408,14.769
1747655909.09,-0.053,0.011,0.005,0.888,-0.057,0.211,-33.300,14.375,14.762
1747655909.10,-0.038,-0.004,-0.020,0.926,-0.057,0.194,-32.770,14.331,14.744
1747655909.11,-0.035,-0.012,0.001,0.939,-0.092,0.157,-32.227,14.266,14.701
1747655909.12,-0.038,0.009,0.018,0.948,-0.155,0.144,-31.685,14.166,14.643
1747655909.13,-0.013,0.017,0.047,0.961,-0.213,0.140,-31.137,14.027,14.580
1747655909.14,0.020,0.018,0.058,0.971,-0.227,0.142,-30.582,13.868,14.517
1747655909.15,0.065,0.021,0.040,0.973,-0.262,0.148,-30.024,13.700,14.457
1747655909.16,0.085,0.021,0.002,0.955,-0.292,0.149,-29.471,13.513,14.403
1747655909.17,0.070,0.036,-0.008,0.952,-0.252,0.169,-28.920,13.336,14.360
1747655909.18,0.058,0.019,0.013,0.933,-0.237,0.166,-28.373,13.181,14.325
1747655909.19,-0.003,0.036,0.034,0.928,-0.193,0.162,-27.835,13.041,14.292
1747655909.20,-0.059,0.070,0.024,0.957,-0.167,0.139,-27.290,12.925,14.251
1747655909.21,-0.080,0.077,0.012,0.966,-0.169,0.124,-26.738,12.801,14.193
1747655909.22,-0.076,0.059,0.007,1.008,-0.152,0.130,-26.172,12.683,14.133
1747655909.23,-0.001,0.019,0.043,1.041,-0.158,0.125,-25.584,12.568,14.070
1747655909.24,0.088,-0.041,0.066,1.046,-0.166,0.128,-24.987,12.447,14.004
1747655909.25,0.136,-0.026,0.046,1.025,-0.226,0.161,-24.392,12.315,13.952
1747655909.26,0.132,-0.005,0.012,0.965,-0.286,0.212,-23.813,12.160,13.934
1747655909.27,0.099,0.007,-0.014,0.932,-0.271,0.256,-23.257,12.008,13.955
1747655909.28,0.080,0.024,-0.005,0.941,-0.255,0.279,-22.702,11.876,13.997
1747655909.29,0.039,0.041,0.018,0.959,-0.278,0.305,-22.136,11.745,14.052
1747655909.30,-0.018,0.048,0.018,0.985,-0.289,0.343,-21.557,11.609,14.128
1747655909.31,-0.039,0.044,0.025,1.022,-0.257,0.329,-20.955,11.481,14.208
1747655909.32,-0.020,0.036,0.037,1.069,-0.220,0.287,-20.335,11.367,14.265
1747655909.33,0.018,0.028,0.007,1.093,-0.196,0.258,-19.699,11.259,14.298
1747655909.34,0.047,-0.007,-0.011,1.131,-0.150,0.245,-19.049,11.166,14.317
1747655909.35,0.015,-0.002,-0.006,1.128,-0.119,0.234,-18.389,11.094,14.326
1747655909.36,-0.024,0.017,-0.022,1.069,-0.167,0.230,-17.745,11.016,14.335
1747655909.37,-0.056,0.041,-0.064,1.044,-0.150,0.251,-17.127,10.930,14.356
1747655909.38,-0.064,0.053,-0.049,1.019,-0.142,0.256,-16.520,10.860,14.389
1747655909.39,-0.042,0.014,0.007,1.015,-0.204,0.239,-15.924,10.772,14.422
1747655909.40,-0.035,0.046,0.003,1.051,-0.251,0.195,-15.321,10.644,14.436
1747655909.41,-0.012,0.076,0.015,1.105,-0.267,0.137,-14.700,10.490,14.416
1747655909.42,0.004,0.091,0.053,1.172,-0.272,0.099,-14.049,10.322,14.361
1747655909.43,-0.016,0.091,0.060,1.252,-0.208,0.092,-13.358,10.165,14.289
1747655909.44,-0.052,0.073,0.034,1.307,-0.161,0.089,-12.626,10.041,14.211
1747655909.45,-0.089,0.051,-0.020,1.298,-0.031,0.060,-11.886,9.966,14.120
1747655909.46,-0.120,0.049,-0.042,1.272,0.068,0.034,-11.159,9.958,14.019
1747655909.47,-0.122,0.006,-0.053,1.176,0.147,-0.022,-10.463,10.008,13.895
1747655909.48,-0.124,0.034,-0.064,1.077,0.149,0.004,-9.834,10.073,13.775
1747655909.49,-0.089,0.033,-0.034,1.047,0.106,0.022,-9.237,10.132,13.677
1747655909.50,-0.057,0.024,-0.028,1.045,0.012,-0.001,-8.649,10.151,13.576
1747655909.51,0.009,0.026,0.002,1.074,-0.107,-0.010,-8.054,10.109,13.464
1747655909.52,0.084,0.029,0.049,1.113,-0.225,-0.015,-7.442,9.997,13.346
1747655909.53,0.111,0.076,0.073,1.160,-0.281,-0.019,-6.803,9.834,13.222
1747655909.54,0.086,0.153,0.063,1.174,-0.197,0.021,-6.147,9.679,13.105
1747655909.55,0.028,0.192,0.037,1.194,-0.062,0.075,-5.475,9.599,13.021
1747655909.56,-0.066,0.182,0.016,1.133,0.085,0.096,-4.809,9.598,12.959
1747655909.57,-0.141,0.128,-0.032,1.077,0.227,0.094,-4.180,9.685,12.907
1747655909.58,-0.120,0.041,-0.060,1.062,0.274,0.071,-3.573,9.826,12.851
1747655909.59,-0.050,-0.022,-0.053,1.024,0.206,0.080,-2.976,9.962,12.791
1747655909.60,0.054,-0.170,-0.050,0.992,0.063,0.075,-2.402,10.039,12.736
1747655909.61,0.134,-0.231,-0.023,0.983,-0.067,0.057,-1.842,10.033,12.673
1747655909.62,0.152,-0.139,0.006,1.004,-0.147,0.100,-1.275,9.969,12.617
1747655909.63,0.114,-0.039,0.044,1.022,-0.138,0.140,-0.694,9.883,12.585
1747655909.64,0.039,0.048,0.057,1.069,-0.050,0.166,-0.090,9.828,12.571
1747655909.65,-0.004,0.095,0.047,1.049,0.033,0.166,0.525,9.824,12.561
1747655909.66,-0.030,0.099,0.006,1.016,0.083,0.183,1.121,9.860,12.557
1747655909.67,-0.024,0.030,-0.046,0.974,0.084,0.207,1.702,9.907,12.570
1747655909.68,-0.001,-0.070,-0.062,0.900,0.075,0.223,2.253,9.965,12.595
1747655909.69,0.064,-0.155,-0.080,0.831,0.004,0.267,2.758,9.988,12.648
1747655909.70,0.141,-0.232,-0.081,0.810,-0.092,0.294,3.251,9.958,12.725
1747655909.71,0.109,-0.177,-0.063,0.771,-0.136,0.296,3.724,9.886,12.815
1747655909.72,0.081,-0.074,-0.011,0.803,-0.200,0.305,4.193,9.783,12.905
1747655909.73,0.070,0.029,0.012,0.843,-0.195,0.318,4.688,9.656,13.002
1747655909.74,0.030,0.107,0.045,0.830,-0.092,0.303,5.191,9.566,13.098
1747655909.75,0.003,0.099,0.027,0.786,-0.029,0.280,5.673,9.525,13.185
1747655909.76,-0.022,0.020,-0.061,0.753,-0.003,0.306,6.131,9.508,13.278
1747655909.77,-0.017,-0.059,-0.095,0.679,0.010,0.308,6.564,9.496,13.384
1747655909.78,0.029,-0.164,-0.077,0.619,0.004,0.303,6.957,9.489,13.495
1747655909.79,0.070,-0.149,-0.074,0.578,-0.089,0.313,7.323,9.449,13.613
1747655909.80,0.059,-0.096,-0.084,0.552,-0.143,0.344,7.671,9.363,13.747
1747655909.81,0.051,-0.031,-0.036,0.549,-0.194,0.356,8.014,9.248,13.896
1747655909.82,0.063,0.019,-0.011,0.576,-0.256,0.360,8.363,9.096,14.048
1747655909.83,0.041,0.065,-0.006,0.619,-0.264,0.341,8.731,8.923,14.195
1747655909.84,0.002,0.110,0.022,0.647,-0.178,0.317,9.118,8.773,14.326
1747655909.85,-0.031,0.109,0.011,0.650,-0.089,0.299,9.513,8.679,14.446
1747655909.86,-0.048,0.055,-0.025,0.599,-0.022,0.273,9.892,8.628,14.553
1747655909.87,-0.070,-0.004,-0.079,0.556,0.076,0.266,10.245,8.628,14.658
1747655909.88,-0.055,-0.097,-0.065,0.500,0.083,0.243,10.564,8.660,14.759
1747655909.89,-0.035,-0.207,-0.054,0.448,0.027,0.219,10.850,8.675,14.850
1747655909.90,0.005,-0.130,-0.072,0.448,-0.084,0.204,11.119,8.645,14.933
1747655909.91,0.041,-0.044,-0.061,0.445,-0.177,0.184,11.388,8.553,15.005
1747655909.92,0.032,0.044,-0.063,0.448,-0.208,0.158,11.654,8.427,15.067
1747655909.93,0.008,0.067,-0.061,0.426,-0.181,0.125,11.914,8.306,15.110
1747655909.94,-0.044,0.052,-0.078,0.405,-0.117,0.124,12.157,8.213,15.146
1747655909.95,-0.083,0.046,-0.091,0.391,-0.057,0.128,12.391,8.155,15.186
1747655909.96,-0.102,0.043,-0.079,0.384,-0.043,0.127,12.621,8.120,15.230
1747655909.97,-0.071,0.036,-0.084,0.340,-0.040,0.131,12.834,8.086,15.274
1747655909.98,0.002,0.040,-0.068,0.366,-0.115,0.110,13.041,8.033,15.316
1747655909.99,0.054,-0.045,-0.053,0.345,-0.162,0.102,13.255,7.947,15.347
1747655910.00,0.084,-0.039,-0.021,0.298,-0.233,0.124,13.442,7.826,15.385
1747655910.01,0.127,-0.030,-0.023,0.283,-0.270,0.212,13.621,7.661,15.459
1747655910.02,0.109,-0.027,-0.023,0.257,-0.215,0.286,13.793,7.493,16.006
1747655910.03,0.092,0.023,0.009,0.239,-0.160,0.371,13.957,7.345,16.179
1747655910.04,0.067,0.070,-0.025,0.226,-0.091,0.472,14.119,7.216,16.409
1747655910.05,0.028,0.056,-0.044,0.222,-0.030,0.476,14.280,7.116,16.673
1747655910.06,0.012,-0.002,-0.041,0.196,0.010,0.455,14.432,7.048,17.335
1747655910.07,0.039,-0.065,-0.019,0.147,0.016,0.469,14.561,6.992,17.592
1747655910.08,0.075,-0.090,-0.006,0.111,0.005,0.527,14.668,6.927,18.283
1747655910.09,0.072,-0.108,-0.002,0.112,-0.039,0.457,14.768,6.842,18.567
1747655910.10,0.046,-0.091,0.005,0.064,-0.031,0.487,14.847,6.755,19.640
1747655910.11,0.059,-0.092,0.020,0.076,-0.037,0.513,14.921,6.661,19.930
1747655910.12,0.071,0.025,-0.005,0.089,-0.050,0.524,15.001,6.558,21.020
1747655910.13,0.041,0.084,-0.029,0.076,0.001,0.572,15.085,6.462,21.333
1747655910.14,0.010,0.073,-0.048,0.079,0.055,0.574,15.166,6.390,22.434
1747655910.15,-0.012,0.030,-0.074,0.051,0.107,0.568,15.240,6.349,22.767
1747655910.16,-0.034,-0.035,-0.073,0.055,0.105,0.376,15.297,6.341,23.831
1747655910.17,-0.050,-0.103,-0.037,0.014,0.167,0.353,15.342,6.373,24.028
1747655910.18,0.013,-0.121,0.005,-0.025,0.072,0.340,15.362,6.388,24.989
1747655910.19,0.058,-0.039,-0.019,-0.072,-0.003,0.378,15.354,6.355,25.202
1747655910.20,0.088,0.030,-0.060,-0.064,-0.073,0.404,15.341,6.269,26.187
1747655910.21,0.084,0.079,-0.086,-0.088,-0.095,0.437,15.325,6.152,26.436
1747655910.22,0.046,0.075,-0.089,-0.092,-0.053,0.511,15.302,6.035,27.450
1747655910.23,0.002,0.019,-0.085,-0.118,0.007,0.560,15.277,5.939,27.770
1747655910.24,-0.032,0.008,-0.063,-0.168,0.088,0.601,15.230,5.870,28.839
1747655910.25,-0.051,0.001,-0.029,-0.172,0.179,0.548,15.165,5.855,29.192
1747655910.26,-0.038,-0.020,0.005,-0.190,0.212,0.488,15.093,5.889,30.202
1747655910.27,0.014,-0.001,0.002,-0.174,0.136,0.497,15.016,5.915,30.503
1747655910.28,0.054,0.030,-0.043,-0.166,0.023,0.543,14.952,5.878,31.497
1747655910.29,0.067,0.053,-0.055,-0.211,-0.040,0.708,14.879,5.773,31.877
1747655910.30,0.087,0.060,-0.056,-0.214,-0.035,0.819,14.799,5.635,32.999
1747655910.31,0.067,0.039,-0.063,-0.240,0.094,0.928,14.721,5.511,33.533
1747655910.32,0.004,0.006,-0.029,-0.244,0.130,0.750,14.630,5.441,34.673
1747655910.33,-0.023,-0.023,0.003,-0.221,0.179,0.730,14.535,5.419,35.124
1747655910.34,-0.027,-0.062,-0.006,-0.223,0.177,0.620,14.447,5.420,36.175
1747655910.35,-0.002,-0.050,-0.013,-0.256,0.147,0.604,14.344,5.421,36.539
1747655910.36,0.024,-0.017,-0.030,-0.254,0.152,0.665,14.232,5.409,37.553
1747655910.37,-0.005,-0.022,-0.039,-0.256,0.125,0.701,14.126,5.385,37.977
1747655910.38,-0.044,-0.047,-0.003,-0.270,0.131,0.488,14.000,5.384,38.948
1747655910.39,-0.013,-0.061,0.013,-0.231,0.077,0.437,13.886,5.372,39.234
1747655910.40,0.003,0.031,-0.026,-0.254,0.034,0.371,13.771,5.343,40.089
1747655910.41,0.005,0.121,-0.044,-0.267,-0.008,0.419,13.641,5.299,40.335
1747655910.42,0.015,0.161,-0.090,-0.265,-0.052,0.445,13.514,5.219,41.193
1747655910.43,-0.042,0.079,-0.143,-0.291,0.016,0.449,13.380,5.141,41.465
1747655910.44,-0.041,-0.023,-0.065,-0.282,0.072,0.466,13.239,5.100,42.340
1747655910.45,-0.031,-0.046,-0.053,-0.234,0.076,0.362,13.112,5.088,42.605
1747655910.46,-0.108,-0.003,-0.055,-0.214,0.121,0.172,13.000,5.103,43.352
1747655910.47,-0.173,0.057,-0.010,-0.177,0.140,0.009,12.893,5.165,43.415
1747655910.48,-0.178,0.097,-0.009,-0.211,0.215,-0.058,12.785,5.264,43.959
1747655910.49,-0.143,0.139,-0.043,-0.237,0.256,-0.019,12.658,5.396,43.939
1747655910.50,-0.052,0.160,-0.125,-0.224,0.201,0.034,12.524,5.524,44.504
1747655910.51,-0.024,0.125,-0.188,-0.210,0.209,0.011,12.401,5.633,44.530
1747655910.52,-0.036,0.061,-0.137,-0.194,0.204,-0.007,12.287,5.751,45.075
1747655910.53,0.013,0.044,-0.080,-0.224,0.165,-0.016,12.169,5.855,45.082
1747655910.54,0.038,0.023,-0.075,-0.247,0.209,-0.041,12.032,5.959,45.607
1747655910.55,0.013,-0.029,-0.018,-0.272,0.269,-0.109,11.880,6.102,45.580
1747655910.56,-0.022,-0.066,0.001,-0.292,0.286,-0.175,11.712,6.276,46.023
1747655910.57,-0.039,-0.070,-0.062,-0.344,0.329,-0.232,11.520,6.469,45.926
1747655910.58,-0.050,-0.083,-0.061,-0.414,0.367,-0.248,11.287,6.694,46.316
1747655910.59,0.032,-0.079,-0.020,-0.497,0.300,-0.194,11.013,6.906,46.217
1747655910.60,0.146,-0.040,-0.068,-0.557,0.230,-0.072,10.704,7.066,46.676
1747655910.61,0.217,-0.003,-0.119,-0.577,0.194,0.021,10.380,7.181,46.707
1747655910.62,0.204,0.041,-0.118,-0.583,0.200,0.046,10.054,7.281,47.269
1747655910.63,0.121,0.058,-0.120,-0.605,0.228,0.003,9.721,7.392,47.330
1747655910.64,0.016,-0.032,-0.078,-0.623,0.259,-0.110,9.369,7.531,47.838
1747655910.65,-0.029,-0.157,0.012,-0.695,0.227,-0.215,8.990,7.674,47.785
1747655910.66,0.016,-0.220,0.015,-0.769,0.201,-0.219,8.554,7.806,48.194
1747655910.67,0.061,-0.174,-0.030,-0.799,0.206,-0.256,8.091,7.935,48.118
1747655910.68,0.044,-0.022,-0.070,-0.807,0.193,-0.271,7.615,8.059,48.274
1747655910.69,-0.003,0.050,-0.122,-0.827,0.258,-0.338,7.129,8.196,48.168
1747655910.70,-0.022,0.029,-0.137,-0.842,0.205,-0.391,6.624,8.350,48.030
1747655910.71,-0.014,-0.002,-0.092,-0.842,0.175,-0.549,6.112,8.476,47.838
1747655910.72,-0.019,-0.007,-0.057,-0.913,0.183,-0.571,5.568,8.609,47.584
1747655910.73,0.037,-0.019,-0.035,-0.963,0.107,-0.480,4.992,8.711,47.368
1747655910.74,0.061,-0.058,-0.103,-0.984,0.064,-0.411,4.403,8.772,47.200
1747655910.75,0.022,-0.054,-0.106,-0.987,0.037,-0.381,3.813,8.805,47.065
1747655910.76,-0.046,-0.023,-0.119,-0.979,0.031,-0.397,3.224,8.834,46.932
1747655910.77,-0.169,0.023,-0.121,-0.966,0.023,-0.423,2.640,8.857,46.785
1747655910.78,-0.327,0.049,-0.104,-0.975,0.039,-0.446,2.054,8.879,46.625
1747655910.79,-0.387,0.034,-0.105,-0.976,0.160,-0.444,1.464,8.939,46.460
1747655910.80,-0.286,-0.021,-0.081,-1.016,0.281,-0.416,0.865,9.070,46.305
1747655910.81,-0.069,-0.065,-0.025,-1.025,0.282,-0.342,0.252,9.238,46.182
1747655910.82,0.139,-0.099,-0.007,-1.037,0.174,-0.201,-0.351,9.371,46.122
1747655910.83,0.264,-0.110,0.027,-1.061,0.010,-0.092,-0.959,9.424,46.140
1747655910.84,0.273,-0.064,0.008,-1.026,-0.124,-0.112,-1.554,9.389,46.186
1747655910.85,0.131,0.013,-0.036,-1.023,-0.129,-0.247,-2.147,9.311,46.182
1747655910.86,-0.084,0.093,0.007,-1.028,0.000,-0.327,-2.750,9.266,46.110
1747655910.87,-0.211,0.112,-0.009,-1.066,0.198,-0.270,-3.367,9.320,46.035
1747655910.88,-0.181,0.061,-0.053,-1.096,0.349,-0.190,-3.999,9.475,46.007
1747655910.89,-0.084,-0.008,-0.001,-1.068,0.414,-0.140,-4.624,9.698,46.018
1747655910.90,0.050,-0.087,0.080,-1.111,0.338,-0.116,-5.247,9.921,46.054
1747655910.91,0.202,-0.145,0.031,-1.143,0.117,-0.135,-5.894,10.057,46.097
1747655910.92,0.244,-0.153,-0.048,-1.151,-0.004,-0.170,-6.554,10.086,46.125
1747655910.93,0.171,-0.124,-0.020,-1.172,0.027,-0.155,-7.223,10.092,46.149
1747655910.93,0.083,-0.095,0.007,-1.179,0.131,-0.109,-7.899,10.141,46.193
1747655910.94,-0.010,-0.081,-0.016,-1.162,0.286,-0.057,-8.565,10.267,46.266
1747655910.95,-0.073,-0.083,0.033,-1.146,0.439,-0.022,-9.217,10.492,46.364
1747655910.96,-0.058,-0.091,0.060,-1.151,0.441,-0.023,-9.862,10.768,46.476
1747655910.97,-0.047,-0.080,-0.012,-1.147,0.367,-0.065,-10.514,11.016,46.578
1747655910.98,-0.072,-0.045,-0.073,-1.121,0.345,-0.125,-11.158,11.230,46.652
1747655910.99,-0.098,-0.002,-0.068,-1.129,0.355,-0.184,-11.806,11.439,46.692
1747655911.00,-0.114,0.033,-0.054,-1.142,0.324,-0.203,-12.463,11.637,46.713
1747655911.01,-0.104,0.031,-0.026,-1.137,0.323,-0.197,-13.124,11.825,46.734
1747655911.02,-0.015,0.009,0.047,-1.125,0.326,-0.183,-13.778,12.018,46.761
1747655911.03,0.092,-0.009,0.078,-1.109,0.269,-0.176,-14.424,12.199,46.796
1747655911.04,0.133,-0.015,0.042,-1.083,0.162,-0.173,-15.058,12.331,46.833
1747655911.05,0.093,-0.000,0.001,-1.055,0.105,-0.165,-15.675,12.415,46.871
1747655911.06,-0.004,0.032,-0.026,-1.040,0.146,-0.195,-16.279,12.492,46.902
1747655911.07,-0.104,0.077,-0.044,-1.043,0.210,-0.242,-16.888,12.598,46.909
1747655911.08,-0.154,0.103,-0.063,-1.063,0.250,-0.251,-17.503,12.726,46.900
1747655911.09,-0.125,0.072,-0.038,-1.051,0.279,-0.211,-18.124,12.879,46.906
1747655911.10,-0.020,-0.005,0.039,-1.034,0.270,-0.207,-18.728,13.043,46.926
1747655911.11,0.079,-0.071,0.048,-1.044,0.223,-0.238,-19.336,13.188,46.939
1747655911.12,0.103,-0.098,0.005,-1.014,0.178,-0.233,-19.940,13.303,46.941
1747655911.13,0.077,-0.107,0.017,-1.010,0.173,-0.206,-20.530,13.405,46.954
1747655911.14,0.029,-0.090,0.010,-1.022,0.196,-0.216,-21.123,13.518,46.975
1747655911.15,-0.056,-0.048,-0.014,-1.000,0.258,-0.248,-21.717,13.648,46.983
1747655911.16,-0.138,-0.009,0.003,-0.970,0.366,-0.253,-22.295,13.824,46.976
1747655911.17,-0.141,0.007,0.027,-1.000,0.392,-0.251,-22.875,14.042,46.971
1747655911.18,-0.086,-0.006,-0.017,-1.008,0.320,-0.237,-23.465,14.248,46.976
1747655911.19,-0.025,-0.045,-0.020,-1.013,0.288,-0.217,-24.055,14.426,46.995
1747655911.20,0.044,-0.077,0.063,-1.042,0.267,-0.178,-24.651,14.604,47.034
1747655911.21,0.134,-0.089,0.074,-1.062,0.156,-0.145,-25.257,14.756,47.105
1747655911.22,0.157,-0.070,0.014,-1.037,0.136,-0.147,-25.859,14.869,47.187
1747655911.23,0.112,-0.021,0.025,-0.987,0.190,-0.168,-26.440,14.994,47.256
1747655911.24,0.078,0.014,0.026,-0.952,0.192,-0.174,-26.999,15.131,47.310
1747655911.25,0.049,0.010,-0.044,-0.902,0.120,-0.171,-27.536,15.245,47.360
1747655911.26,0.013,-0.022,-0.066,-0.892,0.114,-0.199,-28.056,15.324,47.398
1747655911.27,-0.032,-0.051,-0.001,-0.903,0.173,-0.213,-28.581,15.420,47.422
1747655911.28,-0.033,-0.086,0.064,-0.919,0.165,-0.186,-29.113,15.532,47.453
1747655911.29,-0.038,-0.108,0.018,-0.946,0.241,-0.148,-29.650,15.672,47.512
1747655911.30,-0.041,-0.100,-0.013,-0.970,0.366,-0.129,-30.200,15.888,47.597
1747655911.31,-0.030,-0.065,-0.002,-0.931,0.415,-0.124,-30.742,16.162,47.690
1747655911.32,-0.045,-0.019,-0.017,-0.908,0.405,-0.111,-31.265,16.445,47.787
1747655911.33,-0.066,0.020,-0.036,-0.897,0.398,-0.089,-31.775,16.733,47.895
1747655911.34,-0.044,0.027,-0.032,-0.896,0.320,-0.089,-32.279,17.002,48.014
1747655911.35,-0.009,0.007,-0.025,-0.897,0.241,-0.118,-32.786,17.220,48.126
1747655911.36,0.018,-0.007,-0.006,-0.913,0.186,-0.140,-33.301,17.396,48.226
1747655911.37,0.038,-0.005,0.020,-0.943,0.122,-0.151,-33.833,17.537,48.320
1747655911.38,0.036,0.010,0.010,-0.935,0.046,-0.161,-34.372,17.636,48.414
1747655911.39,0.003,0.035,-0.035,-0.908,0.024,-0.181,-34.904,17.701,48.496
1747655911.40,-0.044,0.064,-0.050,-0.867,0.071,-0.199,-35.419,17.763,48.557
1747655911.41,-0.084,0.083,-0.042,-0.843,0.138,-0.208,-35.921,17.849,48.604
1747655911.42,-0.110,0.077,-0.020,-0.821,0.209,-0.224,-36.411,17.969,48.640
1747655911.43,-0.117,0.051,0.002,-0.803,0.236,-0.229,-36.893,18.114,48.666
1747655911.44,-0.079,0.004,0.008,-0.782,0.202,-0.220,-37.363,18.256,48.690
1747655911.45,-0.003,-0.049,-0.021,-0.789,0.140,-0.204,-37.826,18.373,48.722
1747655911.46,0.074,-0.085,-0.029,-0.822,0.040,-0.222,-38.300,18.448,48.760
1747655911.47,0.120,-0.094,-0.015,-0.874,-0.013,-0.232,-38.800,18.474,48.797
1747655911.48,0.134,-0.094,-0.003,-0.889,0.010,-0.215,-39.321,18.506,48.847
1747655911.49,0.111,-0.095,0.036,-0.864,-0.043,-0.156,-39.829,18.545,48.922
1747655911.50,0.047,-0.089,0.021,-0.864,-0.039,-0.093,-40.319,18.596,49.039
1747655911.51,0.015,-0.073,0.005,-0.865,-0.002,-0.065,-40.801,18.683,49.193
1747655911.52,0.024,-0.048,-0.014,-0.843,-0.003,-0.078,-41.277,18.788,49.351
1747655911.53,0.031,-0.020,-0.011,-0.801,-0.028,-0.098,-41.737,18.871,49.490
1747655911.54,0.038,0.005,0.021,-0.772,-0.021,-0.103,-42.179,18.938,49.613
1747655911.55,0.040,0.019,0.023,-0.775,-0.032,-0.113,-42.615,19.003,49.729
1747655911.56,0.013,0.016,0.003,-0.789,-0.069,-0.125,-43.058,19.049,49.840
1747655911.57,-0.026,-0.011,-0.025,-0.811,-0.019,-0.104,-43.512,19.103,49.958
1747655911.58,-0.018,-0.054,-0.045,-0.824,-0.001,-0.057,-43.968,19.206,50.111
1747655911.59,0.007,-0.082,-0.032,-0.865,-0.002,-0.039,-44.430,19.336,50.299
1747655911.60,0.009,-0.059,-0.018,-0.887,-0.048,-0.046,-44.912,19.466,50.501
1747655911.61,0.024,-0.010,-0.016,-0.869,-0.091,-0.046,-45.394,19.567,50.703
1747655911.62,0.020,0.034,0.002,-0.864,-0.097,-0.042,-45.868,19.659,50.906
1747655911.63,0.009,0.066,0.038,-0.858,-0.165,-0.044,-46.340,19.737,51.112
1747655911.64,-0.023,0.073,0.006,-0.826,-0.225,-0.055,-46.803,19.768,51.312
1747655911.65,-0.055,0.062,-0.032,-0.800,-0.185,-0.079,-47.251,19.780,51.490
1747655911.66,-0.045,0.044,-0.008,-0.793,-0.148,-0.115,-47.698,19.797,51.642
1747655911.67,-0.044,0.022,-0.000,-0.775,-0.125,-0.157,-48.146,19.807,51.758
1747655911.68,-0.074,-0.006,-0.010,-0.803,-0.115,-0.169,-48.601,19.811,51.853
1747655911.69,-0.095,-0.019,-0.019,-0.833,-0.099,-0.132,-49.071,19.833,51.970
1747655911.70,-0.099,-0.015,-0.013,-0.842,0.002,-0.099,-49.544,19.921,52.124
1747655911.71,-0.079,0.007,0.025,-0.842,0.082,-0.082,-50.015,20.086,52.303
1747655911.72,-0.044,0.043,0.032,-0.822,0.070,-0.079,-50.477,20.278,52.493
1747655911.73,-0.037,0.079,0.028,-0.787,0.010,-0.083,-50.924,20.442,52.677
1747655911.74,-0.036,0.106,0.036,-0.753,-0.015,-0.106,-51.354,20.567,52.842
1747655911.75,-0.015,0.114,0.024,-0.745,-0.021,-0.143,-51.779,20.662,52.976
1747655911.76,0.008,0.091,0.004,-0.747,-0.011,-0.184,-52.211,20.731,53.077
1747655911.77,0.012,0.051,-0.004,-0.755,0.040,-0.211,-52.652,20.798,53.153
1747655911.78,0.004,0.012,0.011,-0.767,0.113,-0.221,-53.103,20.892,53.216
1747655911.79,-0.010,-0.008,0.033,-0.779,0.128,-0.209,-53.559,21.023,53.288
1747655911.80,-0.030,0.002,0.029,-0.781,0.056,-0.185,-54.017,21.153,53.383
1747655911.81,-0.058,0.027,-0.001,-0.765,0.001,-0.167,-54.465,21.259,53.497
1747655911.82,-0.070,0.054,-0.031,-0.745,-0.030,-0.168,-54.902,21.345,53.615
1747655911.83,-0.067,0.071,-0.050,-0.738,-0.031,-0.196,-55.335,21.409,53.716
1747655911.84,-0.068,0.069,-0.043,-0.723,-0.003,-0.247,-55.770,21.450,53.776
1747655911.85,-0.080,0.043,-0.020,-0.692,0.015,-0.277,-56.200,21.465,53.789
1747655911.86,-0.091,0.008,-0.018,-0.692,0.095,-0.275,-56.624,21.489,53.785
1747655911.87,-0.085,-0.022,0.002,-0.708,0.216,-0.277,-57.053,21.578,53.785
1747655911.88,-0.075,-0.042,0.007,-0.722,0.308,-0.269,-57.490,21.740,53.796
1747655911.89,-0.071,-0.055,-0.020,-0.749,0.278,-0.245,-57.934,21.941,53.832
1747655911.90,-0.058,-0.060,-0.044,-0.770,0.254,-0.202,-58.384,22.162,53.916
1747655911.91,-0.012,-0.053,-0.044,-0.768,0.306,-0.163,-58.830,22.439,54.053
1747655911.92,0.062,-0.035,-0.002,-0.797,0.313,-0.144,-59.274,22.770,54.230
1747655911.93,0.109,-0.011,0.036,-0.842,0.251,-0.145,-59.738,23.115,54.442
1747655911.94,0.114,0.009,0.050,-0.828,0.152,-0.151,-60.210,23.423,54.664
1747655911.95,0.101,0.008,0.024,-0.813,0.072,-0.166,-60.674,23.671,54.876
1747655911.96,0.081,-0.007,-0.010,-0.828,0.070,-0.180,-61.142,23.886,55.079
1747655911.97,0.068,-0.034,-0.001,-0.819,0.053,-0.193,-61.617,24.098,55.277
1747655911.98,0.055,-0.058,-0.012,-0.754,-0.024,-0.200,-62.074,24.260,55.451
1747655911.99,0.030,-0.059,-0.078,-0.756,-0.011,-0.201,-62.510,24.380,55.603
1747655912.00,0.028,-0.043,-0.078,-0.803,0.054,-0.200,-62.964,24.550,55.778
1747655912.01,0.030,-0.027,0.019,-0.798,0.038,-0.190,-63.428,24.757,55.979
1747655912.02,0.001,-0.010,0.029,-0.780,0.059,-0.170,-63.880,24.976,56.196
1747655912.03,-0.004,0.009,0.007,-0.766,0.119,-0.150,-64.318,25.245,56.438
1747655912.04,0.003,0.027,0.043,-0.735,0.156,-0.169,-64.743,25.543,56.679
1747655912.05,-0.016,0.038,0.033,-0.704,0.130,-0.196,-65.159,25.807,56.879
1747655912.06,-0.036,0.029,-0.011,-0.672,0.134,-0.206,-65.561,26.029,57.043
1747655912.07,-0.030,-0.003,-0.039,-0.669,0.137,-0.221,-65.957,26.241,57.189
1747655912.08,-0.022,-0.046,-0.030,-0.648,0.144,-0.245,-66.355,26.426,57.306
1747655912.09,-0.029,-0.080,-0.050,-0.641,0.164,-0.255,-66.747,26.597,57.395
1747655912.10,-0.017,-0.095,-0.070,-0.657,0.175,-0.257,-67.143,26.778,57.486
1747655912.11,-0.013,-0.077,-0.066,-0.643,0.235,-0.257,-67.541,26.983,57.585
1747655912.12,-0.016,-0.043,-0.037,-0.638,0.322,-0.268,-67.935,27.224,57.672
1747655912.13,-0.028,-0.017,0.007,-0.617,0.368,-0.261,-68.325,27.499,57.754
1747655912.14,-0.044,-0.009,0.021,-0.602,0.442,-0.251,-68.700,27.811,57.843
1747655912.15,-0.040,0.005,0.001,-0.602,0.533,-0.246,-69.069,28.185,57.943
1747655912.16,-0.015,0.028,0.004,-0.629,0.588,-0.267,-69.446,28.610,58.055
1747655912.17,0.005,0.056,-0.002,-0.627,0.606,-0.347,-69.846,29.011,58.116
1747655912.18,0.030,0.073,-0.024,-0.571,0.573,-0.399,-70.250,29.290,58.053
1747655912.19,0.070,0.063,-0.054,-0.568,0.457,-0.421,-70.646,29.451,57.827
1747655912.20,0.079,0.046,0.008,-0.642,0.333,-0.417,-71.062,29.561,57.706
1747655912.21,0.034,0.031,0.058,-0.683,0.205,-0.391,-71.510,29.681,57.507
1747655912.22,-0.019,-0.021,0.026,-0.594,0.187,-0.386,-71.936,29.753,57.474
1747655912.23,-0.025,-0.049,0.005,-0.590,0.298,-0.407,-72.339,29.796,57.211
1747655912.24,0.029,-0.030,0.045,-0.626,0.297,-0.393,-72.754,29.885,57.120
1747655912.25,0.061,-0.002,0.033,-0.681,0.246,-0.364,-73.186,30.032,56.907
1747655912.26,0.044,0.012,0.025,-0.709,0.243,-0.317,-73.628,30.275,57.018
1747655912.27,0.026,-0.002,0.052,-0.737,0.268,-0.272,-74.069,30.644,57.045
1747655912.28,0.017,-0.035,0.069,-0.751,0.259,-0.240,-74.510,31.131,57.393
1747655912.29,0.013,-0.066,0.038,-0.687,0.244,-0.215,-74.929,31.652,57.574
1747655912.30,0.026,-0.084,-0.020,-0.638,0.240,-0.193,-75.310,32.165,57.959
1747655912.31,0.054,-0.090,-0.039,-0.640,0.239,-0.180,-75.675,32.706,58.146
1747655912.32,0.068,-0.071,-0.040,-0.615,0.237,-0.160,-76.030,33.302,58.619
1747655912.33,0.054,-0.043,-0.042,-0.593,0.276,-0.173,-76.369,33.901,58.842
1747655912.34,0.002,-0.013,-0.072,-0.597,0.372,-0.209,-76.711,34.507,59.276
1747655912.35,-0.059,0.007,-0.074,-0.617,0.443,-0.218,-77.066,35.155,59.465
1747655912.36,-0.095,0.014,-0.050,-0.640,0.532,-0.203,-77.429,35.924,59.968
1747655912.37,-0.102,0.017,-0.018,-0.632,0.624,-0.190,-77.788,36.831,60.322
1747655912.38,-0.072,0.012,0.009,-0.639,0.687,-0.174,-78.137,37.855,60.983
1747655912.39,-0.017,-0.002,0.004,-0.629,0.673,-0.188,-78.486,38.948,61.446
1747655912.40,0.038,-0.024,0.017,-0.606,0.587,-0.200,-78.828,40.003,62.152
1747655912.41,0.070,-0.039,0.027,-0.593,0.470,-0.203,-79.163,40.999,62.862
1747655912.42,0.075,-0.023,0.002,-0.592,0.414,-0.226,-79.497,41.953,63.576
1747655912.43,0.037,0.008,0.004,-0.551,0.344,-0.266,-79.833,42.814,64.232
1747655912.44,-0.022,0.025,-0.020,-0.502,0.320,-0.306,-80.164,43.489,64.727
1747655912.45,-0.055,0.029,-0.066,-0.509,0.381,-0.316,-80.494,44.090,65.136
1747655912.46,-0.032,0.024,-0.039,-0.574,0.434,-0.284,-80.835,44.894,65.714
1747655912.47,0.018,0.020,0.013,-0.631,0.491,-0.251,-81.186,46.042,66.605
1747655912.48,0.048,0.016,0.030,-0.577,0.516,-0.233,-81.524,47.369,67.655
1747655912.49,0.065,-0.006,0.023,-0.516,0.415,-0.221,-81.828,48.633,68.660
1747655912.50,0.056,-0.045,0.001,-0.489,0.300,-0.219,-82.110,49.780,69.615
1747655912.51,0.040,-0.068,-0.032,-0.493,0.224,-0.236,-82.388,50.907,70.602
1747655912.52,0.049,-0.061,-0.027,-0.490,0.186,-0.258,-82.674,52.029,71.618
1747655912.53,0.052,-0.028,-0.032,-0.468,0.200,-0.255,-82.958,53.151,72.640
1747655912.54,0.057,0.003,-0.034,-0.429,0.247,-0.229,-83.221,54.305,73.673
1747655912.55,0.051,0.017,-0.011,-0.411,0.224,-0.195,-83.458,55.519,74.757
1747655912.56,0.024,0.020,-0.009,-0.396,0.152,-0.185,-83.675,56.798,75.938
1747655912.57,-0.011,0.008,-0.048,-0.365,0.134,-0.215,-83.887,57.998,77.065
1747655912.58,-0.041,-0.001,-0.070,-0.364,0.198,-0.234,-84.106,59.124,78.105
1747655912.59,-0.055,-0.006,-0.047,-0.400,0.297,-0.219,-84.330,60.510,79.351
1747655912.60,-0.054,-0.011,0.008,-0.336,0.403,-0.208,-84.539,62.018,80.667
1747655912.61,-0.045,-0.006,0.013,-0.262,0.490,-0.212,-84.722,63.283,81.680
1747655912.62,-0.028,0.011,0.012,-0.269,0.530,-0.184,-84.891,64.493,82.600
1747655912.63,0.003,0.019,0.024,-0.329,0.549,-0.136,-85.044,66.120,83.923
1747655912.64,0.046,-0.010,0.035,-0.399,0.478,-0.117,-85.192,68.343,85.854
1747655912.65,0.075,-0.044,0.032,-0.425,0.304,-0.114,-85.336,70.972,88.269
1747655912.66,0.068,-0.057,-0.003,-0.392,0.190,-0.131,-85.474,73.638,90.806
1747655912.67,0.061,-0.044,-0.011,-0.323,0.189,-0.151,-85.606,76.007,93.076
1747655912.68,0.045,-0.004,0.002,-0.246,0.236,-0.158,-85.729,77.938,94.893
1747655912.69,0.007,0.026,0.019,-0.214,0.258,-0.143,-85.839,79.585,96.400
1747655912.70,-0.039,0.026,0.039,-0.226,0.224,-0.152,-85.940,81.234,97.913
1747655912.71,-0.088,0.015,0.020,-0.268,0.136,-0.192,-86.056,83.134,99.716
1747655912.72,-0.111,-0.005,-0.014,-0.280,0.105,-0.228,-86.192,85.335,101.856
1747655912.73,-0.077,-0.025,-0.037,-0.246,0.152,-0.221,-86.331,87.590,104.043
1747655912.74,0.013,-0.033,-0.032,-0.218,0.177,-0.166,-86.446,89.762,106.124
1747655912.75,0.107,-0.033,-0.027,-0.180,0.148,-0.102,-86.521,91.712,107.981
1747655912.76,0.172,-0.015,-0.031,-0.155,0.045,-0.065,-86.565,93.385,109.600
1747655912.77,0.186,0.019,-0.034,-0.128,-0.116,-0.042,-86.589,94.763,111.000
1747655912.78,0.157,0.027,-0.040,-0.110,-0.219,-0.016,-86.600,95.833,112.171
1747655912.79,0.107,0.012,-0.044,-0.087,-0.261,-0.007,-86.598,96.651,113.129
1747655912.80,0.040,-0.002,-0.038,-0.061,-0.300,-0.046,-86.608,97.249,113.888
1747655912.81,-0.048,0.001,-0.049,-0.011,-0.303,-0.089,-86.643,97.507,114.321
1747655912.82,-0.113,0.019,-0.062,0.035,-0.209,-0.104,-86.700,97.340,114.304
1747655912.83,-0.121,0.019,-0.053,0.011,-0.015,-0.088,-86.756,97.112,114.142
1747655912.84,-0.089,0.002,0.005,-0.062,0.141,-0.058,-86.797,97.500,114.491
1747655912.85,-0.038,-0.011,0.060,-0.107,0.235,-0.027,-86.813,98.554,115.437
1747655912.86,0.003,-0.017,0.062,-0.112,0.249,-0.012,-86.811,99.863,116.606
1747655912.87,0.016,-0.005,0.050,-0.081,0.219,-0.011,-86.807,101.013,117.625
1747655912.88,-0.001,0.006,0.013,-0.056,0.201,-0.007,-86.804,101.832,118.326
1747655912.89,-0.018,-0.001,0.012,-0.040,0.200,0.000,-86.801,102.435,118.815
1747655912.90,-0.034,-0.009,0.026,-0.043,0.229,-0.007,-86.798,102.941,119.200
1747655912.91,-0.052,-0.008,0.040,-0.069,0.282,-0.025,-86.800,103.657,119.770
1747655912.92,-0.062,0.006,0.073,-0.087,0.298,-0.044,-86.810,104.713,120.659
1747655912.93,-0.055,0.023,0.075,-0.092,0.236,-0.053,-86.822,105.902,121.695
1747655912.94,-0.041,0.025,0.051,-0.113,0.142,-0.074,-86.838,107.222,122.910
1747655912.95,-0.032,0.005,0.045,-0.133,0.060,-0.116,-86.867,108.820,124.452
1747655912.96,-0.008,-0.018,0.049,-0.146,-0.044,-0.138,-86.908,110.677,126.306
1747655912.97,0.033,-0.028,0.048,-0.134,-0.143,-0.147,-86.955,112.600,128.286
1747655912.98,0.059,-0.022,0.047,-0.081,-0.215,-0.156,-87.010,114.278,130.069
1747655912.99,0.063,-0.008,0.039,-0.012,-0.285,-0.164,-87.084,115.393,131.329
1747655913.00,0.056,0.007,0.010,0.040,-0.289,-0.146,-87.170,115.910,132.015
1747655913.01,0.058,0.014,-0.020,0.072,-0.243,-0.114,-87.252,115.907,132.164
1747655913.02,0.070,0.009,-0.023,0.070,-0.209,-0.059,-87.315,115.465,131.850
1747655913.03,0.075,-0.004,-0.029,0.063,-0.190,-0.007,-87.348,114.824,131.323
1747655913.04,0.061,-0.007,-0.028,0.072,-0.145,0.024,-87.357,113.951,130.546
1747655913.05,0.026,0.006,-0.031,0.065,-0.083,0.045,-87.352,112.935,129.593
1747655913.06,-0.030,0.022,-0.008,0.052,-0.008,0.040,-87.339,112.076,128.761
1747655913.07,-0.096,0.019,0.024,0.063,0.111,0.013,-87.334,111.347,128.002
1747655913.08,-0.138,-0.009,0.039,0.065,0.229,-0.015,-87.346,110.705,127.262
1747655913.09,-0.136,-0.029,0.041,0.040,0.290,-0.037,-87.371,110.347,126.751
1747655913.10,-0.099,-0.018,0.020,0.007,0.302,-0.051,-87.399,110.426,126.659
1747655913.11,-0.041,0.004,-0.002,-0.020,0.269,-0.043,-87.423,110.873,126.941
1747655913.12,0.022,0.023,-0.011,-0.048,0.223,-0.015,-87.432,111.526,127.453
1747655913.13,0.070,0.021,0.007,-0.067,0.148,0.021,-87.417,112.295,128.115
1747655913.14,0.095,0.000,0.030,-0.068,0.040,0.032,-87.387,113.019,128.787
1747655913.15,0.093,-0.024,0.011,-0.072,-0.015,0.027,-87.356,113.710,129.474
1747655913.16,0.086,-0.049,0.003,-0.062,-0.026,0.019,-87.330,114.392,130.168
1747655913.17,0.094,-0.053,0.017,-0.035,-0.045,0.019,-87.310,114.840,130.636
1747655913.18,0.103,-0.022,0.002,0.002,-0.071,0.020,-87.297,114.923,130.753
1747655913.19,0.105,0.023,0.001,0.033,-0.163,0.039,-87.286,114.535,130.428
1747655913.20,0.083,0.046,0.013,0.077,-0.317,0.057,-87.273,113.570,129.597
1747655913.21,0.030,0.046,-0.006,0.108,-0.404,0.057,-87.262,112.050,128.285
1747655913.22,-0.030,0.027,-0.020,0.115,-0.396,0.033,-87.260,110.378,126.843
1747655913.23,-0.088,0.004,-0.002,0.110,-0.321,0.005,-87.272,108.800,125.470
1747655913.24,-0.132,-0.022,0.008,0.088,-0.197,-0.010,-87.291,107.507,124.325
1747655913.25,-0.149,-0.043,0.022,0.071,-0.055,-0.020,-87.311,106.573,123.463
1747655913.26,-0.134,-0.038,0.030,0.065,0.051,-0.015,-87.331,105.857,122.744
1747655913.27,-0.089,-0.006,0.021,0.071,0.062,0.011,-87.342,105.094,121.945
1747655913.28,-0.042,0.029,-0.003,0.054,0.058,0.062,-87.330,104.263,121.079
1747655913.29,0.003,0.033,-0.005,0.041,0.061,0.094,-87.292,103.510,120.292
1747655913.30,0.036,0.008,0.005,0.042,0.075,0.102,-87.242,102.794,119.536
1747655913.31,0.046,-0.019,0.001,0.056,0.083,0.101,-87.193,102.007,118.705
1747655913.32,0.043,-0.027,-0.001,0.068,0.090,0.080,-87.150,101.154,117.800
1747655913.33,0.025,-0.016,0.009,0.085,0.057,0.046,-87.124,100.215,116.816
1747655913.34,0.008,0.003,0.015,0.121,-0.002,0.014,-87.119,99.042,115.625
1747655913.35,0.006,0.026,-0.000,0.185,-0.075,-0.010,-87.132,97.318,113.920
1747655913.36,0.014,0.039,-0.013,0.240,-0.150,-0.022,-87.155,94.847,111.510
1747655913.37,0.019,0.030,-0.013,0.286,-0.210,-0.023,-87.176,91.727,108.491
1747655913.38,0.024,0.004,0.006,0.332,-0.275,-0.006,-87.184,87.993,104.890
1747655913.39,0.022,-0.021,0.009,0.371,-0.308,0.023,-87.164,83.757,100.820
1747655913.40,0.012,-0.041,0.008,0.402,-0.297,0.046,-87.110,79.292,96.523
1747655913.41,-0.007,-0.053,0.032,0.417,-0.306,0.052,-87.029,74.787,92.184
1747655913.42,-0.038,-0.031,0.026,0.420,-0.324,0.055,-86.928,70.487,88.057
1747655913.43,-0.087,0.032,0.009,0.416,-0.313,0.046,-86.814,66.465,84.213
1747655913.44,-0.141,0.063,0.002,0.415,-0.185,0.032,-86.692,62.699,80.590
1747655913.45,-0.155,0.036,0.017,0.412,0.041,0.021,-86.564,59.271,77.197
1747655913.46,-0.112,-0.000,0.068,0.413,0.194,0.013,-86.430,56.194,74.042
1747655913.47,-0.063,-0.013,0.079,0.425,0.202,-0.001,-86.288,53.267,70.991
1747655913.48,-0.032,-0.014,0.045,0.445,0.140,-0.004,-86.137,50.401,68.020
1747655913.49,0.005,-0.020,0.015,0.486,0.077,0.000,-85.963,47.558,65.107
1747655913.50,0.051,-0.029,0.009,0.539,0.049,0.015,-85.757,44.707,62.214
1747655913.51,0.096,-0.034,0.014,0.607,0.038,0.051,-85.507,41.972,59.444
1747655913.52,0.131,-0.029,0.030,0.678,-0.022,0.079,-85.203,39.383,56.839
1747655913.53,0.126,-0.014,0.008,0.728,-0.180,0.097,-84.856,36.923,54.424
1747655913.54,0.087,0.005,-0.049,0.710,-0.398,0.105,-84.486,34.684,52.343
1747655913.55,0.029,0.027,-0.090,0.651,-0.454,0.095,-84.130,32.743,50.647
1747655913.56,-0.019,0.029,-0.070,0.601,-0.195,0.085,-83.801,31.180,49.271
1747655913.57,-0.009,-0.014,0.033,0.590,0.112,0.096,-83.483,30.005,48.106
1747655913.58,0.044,-0.046,0.141,0.571,0.100,0.141,-83.161,29.171,47.194
1747655913.59,0.051,-0.035,0.101,0.550,-0.095,0.202,-82.834,28.615,46.633
1747655913.60,0.024,-0.007,0.024,0.583,-0.194,0.229,-82.491,28.186,46.289
1747655913.61,0.009,0.028,0.020,0.656,-0.161,0.227,-82.117,27.713,45.918
1747655913.62,0.005,0.046,0.062,0.721,-0.055,0.223,-81.709,27.174,45.437
1747655913.63,0.007,0.039,0.095,0.791,0.013,0.222,-81.266,26.614,44.881
1747655913.64,-0.002,0.015,0.091,0.828,-0.003,0.214,-80.795,26.023,44.277
1747655913.65,-0.052,0.003,0.058,0.804,-0.063,0.197,-80.322,25.426,43.690
1747655913.66,-0.125,-0.000,0.056,0.786,-0.099,0.166,-79.869,24.816,43.121
1747655913.67,-0.183,-0.005,0.036,0.798,0.022,0.150,-79.420,24.208,42.532
1747655913.68,-0.189,-0.008,0.034,0.790,0.223,0.172,-78.968,23.744,41.988
1747655913.69,-0.122,-0.004,0.085,0.786,0.322,0.210,-78.514,23.501,41.576
1747655913.70,-0.042,0.009,0.081,0.836,0.267,0.243,-78.039,23.363,41.257
1747655913.71,0.013,0.024,0.031,0.886,0.147,0.252,-77.529,23.179,40.571
1747655913.72,0.040,0.038,-0.007,0.903,0.116,0.248,-77.004,22.948,40.259
1747655913.73,0.050,0.052,0.040,0.912,0.118,0.231,-76.473,22.695,39.576
1747655913.74,0.019,0.042,0.061,0.899,0.125,0.216,-75.946,22.437,39.238
1747655913.75,-0.051,-0.001,0.070,0.906,0.038,0.227,-75.423,22.185,38.582
1747655913.76,-0.098,-0.053,0.071,0.943,-0.160,0.229,-74.884,21.861,38.282
1747655913.77,-0.104,-0.073,-0.010,0.929,-0.248,0.185,-74.340,21.418,37.611
1747655913.78,-0.064,-0.048,-0.055,0.891,-0.170,0.131,-73.825,20.932,37.234
1747655913.79,0.021,-0.014,0.025,0.939,-0.112,0.120,-73.314,20.455,36.492
1747655913.80,0.097,0.002,0.080,0.989,-0.127,0.150,-72.769,19.993,36.080
1747655913.81,0.119,0.018,0.047,0.995,-0.079,0.177,-72.204,19.601,35.423
1747655913.82,0.109,0.041,0.033,0.991,0.036,0.204,-71.633,19.323,35.146
1747655913.83,0.083,0.056,0.062,0.939,0.099,0.214,-71.070,19.162,34.600
1747655913.84,0.005,0.049,0.098,0.856,-0.028,0.238,-70.545,19.052,34.456
1747655913.85,-0.101,0.014,0.081,0.812,-0.138,0.320,-70.044,18.984,34.133
1747655913.86,-0.148,-0.038,0.033,0.783,-0.144,0.406,-69.546,19.033,34.273
1747655913.87,-0.098,-0.067,0.018,0.770,-0.148,0.444,-69.048,19.182,34.236
1747655913.88,-0.003,-0.059,0.012,0.820,-0.257,0.410,-68.542,19.286,34.468
1747655913.89,0.077,-0.031,-0.010,0.973,-0.377,0.312,-67.991,19.171,34.301
1747655913.90,0.104,0.015,-0.079,1.004,-0.305,0.196,-67.402,18.845,34.169
1747655913.91,0.097,0.067,-0.092,0.929,-0.093,0.090,-66.856,18.496,33.663
1747655913.92,0.034,0.092,0.020,0.939,0.101,0.029,-66.341,18.180,33.315
1747655913.93,-0.094,0.080,0.012,0.944,0.256,0.055,-65.822,17.951,32.704
1747655913.93,-0.209,0.024,-0.004,0.923,0.321,0.149,-65.294,17.875,32.435
1747655913.95,-0.258,-0.048,-0.012,0.849,0.339,0.255,-64.775,17.966,32.193
1747655913.96,-0.221,-0.104,-0.062,0.760,0.368,0.323,-64.289,18.199,32.230
1747655913.96,-0.110,-0.127,-0.093,0.741,0.375,0.351,-63.824,18.516,32.343
1747655913.97,0.021,-0.122,-0.081,0.792,0.315,0.359,-63.346,18.822,32.462
1747655913.98,0.138,-0.096,-0.070,0.903,0.188,0.346,-62.824,19.040,32.542
1747655914.00,0.203,-0.058,-0.060,1.034,0.022,0.296,-62.239,19.084,32.526
1747655914.01,0.182,-0.018,-0.066,1.047,-0.018,0.241,-61.621,18.980,32.415
1747655914.01,0.110,-0.002,-0.034,0.939,0.140,0.230,-61.043,18.901,32.292
1747655914.02,0.028,-0.027,0.080,0.909,0.257,0.278,-60.500,18.961,32.220
1747655914.03,-0.046,-0.073,0.079,0.872,0.154,0.359,-59.954,19.090,32.228
1747655914.04,-0.077,-0.104,-0.066,0.708,0.113,0.449,-59.451,19.279,32.367
1747655914.06,0.011,-0.115,-0.089,0.694,0.178,0.486,-58.991,19.570,32.607
1747655914.06,0.177,-0.103,0.007,0.818,0.027,0.445,-58.496,19.816,32.816
1747655914.08,0.222,-0.055,-0.000,0.915,-0.213,0.358,-57.949,19.835,32.905
1747655914.08,0.134,0.014,-0.077,1.003,-0.311,0.262,-57.375,19.650,32.869
1747655914.09,0.049,0.079,-0.091,1.064,-0.284,0.171,-56.777,19.349,32.720
1747655914.10,-0.028,0.107,-0.080,1.088,-0.143,0.098,-56.170,19.028,32.482
1747655914.11,-0.110,0.096,-0.039,1.059,0.030,0.078,-55.573,18.770,32.209
1747655914.12,-0.169,0.056,0.035,1.023,0.158,0.133,-54.991,18.630,31.971
1747655914.13,-0.178,-0.001,0.098,0.972,0.246,0.254,-54.416,18.637,31.837
1747655914.14,-0.111,-0.058,0.122,0.896,0.259,0.343,-53.851,18.774,31.822
1747655914.15,-0.013,-0.079,0.047,0.781,0.130,0.366,-53.334,18.942,31.886
1747655914.16,0.062,-0.081,-0.042,0.784,-0.051,0.338,-52.849,19.027,31.965
1747655914.17,0.109,-0.084,-0.087,0.837,-0.190,0.280,-52.354,18.980,31.993
1747655914.18,0.111,-0.076,-0.062,0.920,-0.250,0.222,-51.835,18.817,31.952
1747655914.19,0.057,-0.048,-0.034,1.026,-0.212,0.152,-51.275,18.588,31.830
1747655914.20,-0.043,0.009,-0.020,1.102,-0.129,0.049,-50.678,18.319,31.613
1747655914.21,-0.164,0.090,-0.006,1.109,0.011,-0.042,-50.075,18.043,31.301
1747655914.22,-0.232,0.145,0.016,1.083,0.168,-0.028,-49.485,17.840,30.966
1747655914.23,-0.218,0.135,0.039,1.048,0.217,0.063,-48.905,17.749,30.694
1747655914.24,-0.152,0.076,0.070,1.056,0.216,0.111,-48.318,17.724,30.496
1747655914.25,-0.043,0.017,0.059,1.066,0.202,0.152,-47.718,17.716,30.324
1747655914.26,0.101,-0.028,0.065,1.074,0.153,0.190,-47.106,17.719,30.188
1747655914.27,0.174,-0.056,0.051,1.126,0.075,0.181,-46.475,17.691,30.058
1747655914.28,0.146,-0.052,0.034,1.122,0.017,0.156,-45.832,17.605,29.908
1747655914.29,0.053,-0.036,0.036,1.078,0.044,0.132,-45.206,17.506,29.748
1747655914.30,-0.016,-0.032,0.008,1.015,0.053,0.128,-44.615,17.429,29.595
1747655914.31,-0.052,-0.031,-0.014,0.980,0.038,0.139,-44.050,17.358,29.459
1747655914.32,-0.082,-0.010,0.008,0.974,0.079,0.161,-43.494,17.310,29.342
1747655914.33,-0.038,0.020,0.060,1.030,0.048,0.200,-42.920,17.284,29.244
1747655914.34,0.041,0.049,0.067,1.127,-0.043,0.224,-42.292,17.225,29.162
1747655914.35,0.079,0.066,0.039,1.223,-0.090,0.155,-41.619,17.102,29.034
1747655914.36,0.083,0.087,0.079,1.279,-0.096,0.128,-40.911,16.927,28.855
1747655914.37,0.050,0.068,0.074,1.273,-0.032,0.100,-40.192,16.763,28.659
1747655914.38,0.015,0.022,0.035,1.213,-0.007,0.074,-39.494,16.622,28.454
1747655914.39,-0.063,-0.028,-0.028,1.089,0.069,0.082,-38.852,16.517,28.266
1747655914.40,-0.142,-0.072,-0.016,1.001,0.235,0.131,-38.266,16.514,28.122
1747655914.41,-0.130,-0.088,0.060,0.990,0.290,0.214,-37.694,16.617,28.036
1747655914.42,-0.062,-0.058,0.077,0.994,0.285,0.315,-37.109,16.768,28.011
1747655914.43,0.005,0.023,0.056,1.024,0.237,0.379,-36.498,16.940,28.050
1747655914.44,0.064,0.107,0.040,1.080,0.105,0.354,-35.863,17.056,28.079
1747655914.45,0.109,0.170,0.045,1.158,0.003,0.320,-35.196,17.083,28.077
1747655914.46,0.110,0.168,0.086,1.227,-0.113,0.259,-34.497,17.022,28.026
1747655914.47,0.076,0.136,0.068,1.257,-0.227,0.217,-33.776,16.873,27.931
1747655914.50,0.029,0.048,-0.004,1.179,-0.272,0.193,-33.073,16.667,27.824
1747655914.50,0.012,-0.051,-0.061,1.095,-0.208,0.182,-32.422,16.476,27.725
1747655914.51,0.061,-0.146,-0.028,1.048,-0.186,0.228,-31.804,16.325,27.651
1747655914.52,0.101,-0.204,0.002,1.028,-0.161,0.325,-31.191,16.218,27.634
1747655914.52,0.125,-0.176,0.038,1.031,-0.208,0.396,-30.569,16.137,27.676
1747655914.54,0.116,-0.082,0.056,1.059,-0.263,0.433,-29.931,16.038,27.749
1747655914.54,0.059,0.015,0.028,1.090,-0.259,0.433,-29.272,15.928,27.829
1747655914.55,0.024,0.073,0.003,1.090,-0.269,0.394,-28.609,15.811,27.895
1747655914.56,-0.010,0.092,-0.035,1.099,-0.297,0.332,-27.951,15.664,27.929
1747655914.57,-0.071,0.079,-0.027,1.087,-0.230,0.269,-27.304,15.505,27.925
1747655914.58,-0.107,0.042,-0.009,1.082,-0.085,0.242,-26.668,15.408,27.897
1747655914.59,-0.090,-0.012,0.005,1.065,-0.063,0.253,-26.040,15.352,27.866
1747655914.60,-0.099,-0.037,0.008,1.035,-0.048,0.301,-25.419,15.317,27.858
1747655914.61,-0.047,-0.029,0.022,1.013,-0.085,0.345,-24.808,15.293,27.885
1747655914.62,0.065,-0.001,-0.011,1.036,-0.182,0.354,-24.193,15.237,27.930
1747655914.63,0.135,0.040,-0.014,1.076,-0.319,0.342,-23.559,15.109,27.969
1747655914.64,0.126,0.082,0.027,1.150,-0.399,0.303,-22.896,14.908,27.983
1747655914.65,0.076,0.085,0.039,1.185,-0.430,0.239,-22.210,14.663,27.963
1747655914.66,0.013,0.047,0.008,1.176,-0.425,0.154,-21.528,14.393,27.897
1747655914.67,-0.062,0.002,-0.040,1.184,-0.336,0.116,-20.858,14.137,27.798
1747655914.68,-0.134,-0.075,0.006,1.202,-0.191,0.097,-20.183,13.948,27.684
1747655914.69,-0.177,-0.135,0.079,1.197,-0.088,0.093,-19.505,13.830,27.563
1747655914.70,-0.156,-0.125,0.086,1.175,-0.049,0.141,-18.831,13.759,27.460
1747655914.71,-0.048,-0.051,0.057,1.176,-0.055,0.202,-18.157,13.710,27.392
1747655914.72,0.086,0.062,0.044,1.211,-0.116,0.257,-17.464,13.652,27.357
1747655914.73,0.179,0.150,0.055,1.260,-0.168,0.270,-16.743,13.568,27.338
1747655914.74,0.183,0.173,0.061,1.254,-0.201,0.249,-16.010,13.452,27.315
1747655914.75,0.099,0.160,0.034,1.287,-0.155,0.199,-15.273,13.336,27.269
1747655914.76,-0.049,0.087,-0.001,1.286,-0.027,0.147,-14.535,13.263,27.193
1747655914.77,-0.188,-0.013,0.018,1.295,0.157,0.114,-13.801,13.277,27.093
1747655914.78,-0.234,-0.066,0.008,1.329,0.252,0.080,-13.061,13.367,26.970
1747655914.79,-0.199,-0.093,-0.025,1.379,0.283,0.076,-12.297,13.491,26.829
1747655914.80,-0.126,-0.050,-0.012,1.382,0.137,0.105,-11.518,13.593,26.692
1747655914.81,-0.034,0.045,0.029,1.380,-0.057,0.139,-10.736,13.590,26.572
1747655914.82,0.088,0.102,0.040,1.409,-0.186,0.166,-9.944,13.497,26.469
1747655914.83,0.196,0.120,0.060,1.435,-0.299,0.181,-9.131,13.343,26.374
1747655914.84,0.207,0.064,0.075,1.458,-0.300,0.199,-8.300,13.156,26.289
1747655914.85,0.154,-0.001,0.046,1.376,-0.198,0.192,-7.483,12.999,26.215
1747655914.86,0.057,-0.072,-0.027,1.330,0.012,0.198,-6.711,12.935,26.148
1747655914.87,-0.019,-0.141,-0.052,1.393,0.173,0.272,-5.924,12.987,26.102
1747655914.88,-0.097,-0.166,-0.022,1.420,0.223,0.311,-5.101,13.102,26.085
1747655914.89,-0.116,-0.099,-0.038,1.382,0.222,0.277,-4.281,13.227,26.067
1747655914.90,-0.035,0.007,-0.040,1.319,0.163,0.271,-3.494,13.338,26.039
1747655914.91,0.058,0.069,0.012,1.218,0.011,0.328,-2.750,13.390,26.036
1747655914.92,0.139,0.062,-0.004,1.180,-0.183,0.390,-2.039,13.341,26.078
1747655914.93,0.194,0.061,-0.029,1.200,-0.304,0.437,-1.323,13.201,26.154
1747655914.94,0.187,0.113,0.017,1.208,-0.359,0.460,-0.596,13.010,26.247
1747655914.95,0.119,0.164,0.034,1.215,-0.297,0.439,0.137,12.820,26.345
1747655914.96,0.044,0.157,0.013,1.193,-0.150,0.363,0.858,12.689,26.420
1747655914.97,-0.010,0.117,-0.031,1.185,-0.001,0.322,1.561,12.646,26.459
1747655914.98,-0.036,-0.031,-0.099,1.209,0.090,0.340,2.270,12.672,26.493
1747655914.99,-0.087,-0.143,-0.111,1.153,0.162,0.321,2.969,12.741,26.530
1747655915.00,-0.104,-0.112,-0.105,1.092,0.147,0.282,3.631,12.832,26.555
1747655915.01,-0.048,-0.052,-0.105,1.071,0.057,0.284,4.269,12.889,26.575
1747655915.02,-0.032,0.055,-0.069,1.058,-0.031,0.268,4.896,12.894,26.594
1747655915.03,-0.024,0.120,-0.058,1.090,-0.116,0.258,5.526,12.851,26.603
1747655915.04,-0.001,0.101,-0.052,1.102,-0.176,0.251,6.170,12.766,26.606
1747655915.05,0.016,0.096,-0.012,1.112,-0.197,0.269,6.820,12.660,26.611
1747655915.06,0.052,0.097,-0.018,1.086,-0.180,0.267,7.468,12.550,26.625
1747655915.07,0.069,0.047,-0.042,1.014,-0.127,0.247,8.085,12.460,26.637
1747655915.08,0.061,0.043,-0.079,0.949,-0.106,0.240,8.662,12.391,26.652
1747655915.09,0.071,-0.049,-0.126,0.914,-0.082,0.253,9.212,12.334,26.674
1747655915.10,0.034,-0.063,-0.080,0.862,-0.040,0.268,9.738,12.294,26.714
1747655915.11,0.031,-0.046,-0.033,0.849,-0.069,0.268,10.246,12.258,26.760
1747655915.12,0.027,-0.014,-0.032,0.849,-0.106,0.272,10.753,12.197,26.809
1747655915.13,0.013,0.028,-0.012,0.863,-0.128,0.285,11.263,12.124,26.862
1747655915.14,0.058,0.074,-0.006,0.826,-0.188,0.285,11.772,12.024,26.922
1747655915.15,0.094,0.076,-0.058,0.798,-0.208,0.304,12.258,11.891,26.991
1747655915.16,0.097,0.042,-0.086,0.748,-0.164,0.354,12.732,11.766,27.087
1747655915.17,0.109,-0.034,-0.083,0.669,-0.166,0.388,13.170,11.643,27.217
1747655915.18,0.081,-0.062,-0.121,0.616,-0.162,0.409,13.575,11.513,27.371
1747655915.19,0.056,-0.086,-0.144,0.593,-0.140,0.403,13.960,11.388,27.535
1747655915.20,0.023,-0.084,-0.118,0.552,-0.123,0.381,14.324,11.275,27.696
1747655915.21,0.015,-0.095,-0.072,0.530,-0.127,0.352,14.667,11.168,27.845
1747655915.22,-0.009,0.005,-0.047,0.507,-0.135,0.337,14.996,11.057,27.983
1747655915.23,-0.031,0.050,-0.038,0.503,-0.155,0.340,15.314,10.938,28.123
1747655915.24,-0.039,0.070,-0.063,0.484,-0.178,0.345,15.629,10.804,28.267
1747655915.25,-0.034,0.086,-0.112,0.470,-0.181,0.340,15.935,10.661,28.415
1747655915.26,-0.031,0.049,-0.136,0.430,-0.147,0.330,16.223,10.527,28.561
1747655915.27,-0.047,-0.008,-0.122,0.401,-0.146,0.332,16.491,10.402,28.710
1747655915.28,-0.082,-0.046,-0.112,0.370,-0.117,0.321,16.740,10.281,28.862
1747655915.29,-0.107,-0.031,-0.079,0.354,-0.065,0.271,16.974,10.190,28.998
1747655915.30,-0.100,-0.005,-0.043,0.350,-0.050,0.210,17.195,10.129,29.103
1747655915.31,-0.065,0.035,-0.030,0.342,-0.107,0.146,17.408,10.066,29.171
1747655915.32,-0.012,0.020,-0.040,0.313,-0.161,0.105,17.606,9.978,29.209
1747655915.33,0.041,-0.018,-0.052,0.292,-0.199,0.090,17.786,9.866,29.232
1747655915.34,0.053,-0.025,-0.058,0.279,-0.223,0.107,17.957,9.736,29.261
1747655915.35,0.028,0.005,-0.071,0.260,-0.195,0.118,18.119,9.601,29.303
1747655915.36,-0.005,0.019,-0.070,0.265,-0.110,0.140,18.278,9.499,29.355
1747655915.37,-0.027,0.012,-0.060,0.247,-0.043,0.127,18.436,9.439,29.409
1747655915.38,-0.028,0.029,-0.068,0.229,-0.023,0.124,18.582,9.407,29.460
1747655915.39,0.009,0.004,-0.047,0.189,-0.065,0.116,18.712,9.366,29.511
1747655915.40,0.044,-0.052,-0.050,0.154,-0.072,0.090,18.819,9.308,29.550
1747655915.41,0.054,-0.089,-0.047,0.127,-0.075,0.121,18.907,9.249,29.603
1747655915.42,0.036,-0.072,-0.017,0.105,-0.111,0.087,18.983,9.181,29.656
1747655915.43,0.016,-0.053,-0.018,0.034,-0.120,0.165,19.032,9.096,29.723
1747655915.44,0.060,-0.066,-0.025,-0.006,-0.141,0.212,19.057,8.984,29.837
1747655915.45,0.090,-0.029,-0.034,-0.037,-0.144,0.267,19.066,8.853,29.981
1747655915.46,0.099,0.003,-0.049,-0.022,-0.123,0.313,19.072,8.716,30.159
1747655915.47,0.085,0.004,-0.054,-0.046,-0.052,0.359,19.085,8.600,30.361
1747655915.48,0.068,-0.027,-0.016,-0.096,-0.019,0.414,19.077,8.503,30.599
1747655915.49,0.082,-0.100,0.027,-0.120,0.004,0.439,19.052,8.411,31.177
1747655915.50,0.083,-0.161,0.063,-0.155,0.034,0.482,19.012,8.328,31.464
1747655915.51,0.109,-0.118,0.072,-0.183,0.078,0.536,18.958,8.255,32.080
1747655915.52,0.122,-0.052,0.032,-0.210,0.138,0.606,18.894,8.200,32.749
1747655915.53,0.092,-0.013,-0.010,-0.244,0.170,0.657,18.817,8.161,33.146
1747655915.54,0.052,0.019,-0.073,-0.261,0.212,0.692,18.728,8.132,34.194
1747655915.55,0.031,0.024,-0.082,-0.267,0.228,0.644,18.634,8.123,34.615
1747655915.56,-0.008,-0.021,-0.060,-0.294,0.202,0.617,18.527,8.119,35.319
1747655915.57,-0.016,-0.048,-0.046,-0.330,0.187,0.603,18.399,8.106,35.709
1747655915.58,-0.010,-0.038,-0.038,-0.340,0.213,0.545,18.255,8.101,36.666
1747655915.59,-0.021,-0.020,-0.022,-0.355,0.251,0.518,18.101,8.127,37.010
1747655915.60,-0.014,0.004,0.012,-0.382,0.288,0.528,17.936,8.175,37.637
1747655915.61,0.004,0.008,-0.019,-0.388,0.326,0.521,17.759,8.244,37.983
1747655915.62,0.007,-0.057,-0.045,-0.400,0.333,0.518,17.582,8.329,38.883
1747655915.63,0.019,-0.115,-0.006,-0.405,0.237,0.436,17.398,8.395,39.201
1747655915.64,0.090,-0.131,0.014,-0.484,0.124,0.494,17.185,8.406,39.788
1747655915.65,0.186,-0.166,0.006,-0.555,0.057,0.565,16.935,8.349,40.147
1747655915.66,0.204,-0.096,-0.031,-0.583,0.048,0.664,16.662,8.257,41.099
1747655915.67,0.161,-0.024,-0.044,-0.565,0.104,0.785,16.396,8.168,41.576
1747655915.68,0.072,0.033,-0.053,-0.567,0.203,0.834,16.142,8.110,42.621
1747655915.69,-0.020,0.046,-0.064,-0.577,0.299,0.808,15.885,8.104,43.156
1747655915.70,-0.108,-0.002,-0.031,-0.592,0.417,0.716,15.618,8.175,44.158
1747655915.71,-0.112,-0.052,0.018,-0.658,0.462,0.594,15.320,8.311,44.591
1747655915.72,-0.040,-0.056,0.026,-0.687,0.364,0.541,14.984,8.448,45.475
1747655915.73,0.048,-0.024,-0.035,-0.660,0.185,0.495,14.647,8.513,45.836
1747655915.74,0.075,0.032,-0.098,-0.656,0.088,0.542,14.320,8.500,46.428
1747655915.75,0.021,0.095,-0.136,-0.627,0.035,0.513,14.001,8.440,46.797
1747655915.76,-0.085,0.134,-0.168,-0.619,0.132,0.443,13.692,8.407,47.357
1747655915.77,-0.077,0.101,-0.072,-0.651,0.214,0.442,13.367,8.439,47.669
1747655915.78,-0.010,0.028,-0.025,-0.648,0.229,0.397,13.035,8.499,48.443
1747655915.79,-0.032,0.005,-0.041,-0.621,0.230,0.226,12.701,8.582,48.681
1747655915.80,-0.032,0.054,-0.016,-0.584,0.164,0.089,12.374,8.663,49.269
1747655915.81,-0.013,0.089,-0.065,-0.563,0.005,0.006,12.054,8.689,49.345
1747655915.82,-0.054,0.095,-0.130,-0.530,-0.017,-0.034,11.745,8.673,49.829
1747655915.83,-0.106,0.092,-0.082,-0.534,0.012,-0.044,11.441,8.669,49.852
1747655915.84,-0.078,0.063,-0.013,-0.510,-0.015,-0.096,11.140,8.667,50.080
1747655915.85,-0.030,0.040,-0.017,-0.521,-0.053,-0.118,10.840,8.653,50.060
1747655915.86,0.017,0.056,-0.000,-0.516,-0.115,-0.025,10.540,8.607,50.276
1747655915.87,0.042,0.087,-0.028,-0.474,-0.117,0.028,10.260,8.534,50.322
1747655915.88,0.001,0.125,-0.057,-0.439,-0.046,0.024,10.007,8.475,50.581
1747655915.89,-0.069,0.125,-0.045,-0.406,0.051,0.006,9.769,8.471,50.628
1747655915.90,-0.116,0.051,-0.004,-0.424,0.176,-0.016,9.536,8.531,50.657
1747655915.91,-0.121,-0.042,0.037,-0.420,0.226,-0.040,9.294,8.645,50.679
1747655915.92,-0.079,-0.101,0.069,-0.438,0.204,-0.053,9.049,8.768,50.686
1747655915.93,-0.008,-0.095,0.073,-0.452,0.140,0.029,8.795,8.865,50.719
1747655915.94,0.087,-0.046,0.027,-0.435,0.079,0.123,8.551,8.914,50.802
1747655915.95,0.102,0.024,-0.038,-0.399,0.095,0.222,8.330,8.941,50.940
1747655915.96,0.017,0.048,-0.033,-0.378,0.183,0.225,8.134,8.992,51.102
1747655915.97,-0.086,0.037,-0.005,-0.374,0.265,0.157,7.939,9.101,51.247
1747655915.98,-0.131,-0.002,0.023,-0.393,0.358,0.074,7.734,9.265,51.345
1747655915.99,-0.114,-0.080,0.056,-0.458,0.393,0.065,7.498,9.477,51.426
1747655916.00,-0.043,-0.120,0.071,-0.481,0.341,0.055,7.239,9.679,51.502
1747655916.01,0.039,-0.099,-0.003,-0.447,0.252,0.065,6.983,9.837,51.583
1747655916.02,0.069,-0.042,-0.077,-0.438,0.205,0.023,6.739,9.957,51.653
1747655916.03,-0.009,0.029,-0.097,-0.408,0.161,-0.067,6.500,10.058,51.686
1747655916.04,-0.117,0.060,-0.119,-0.392,0.095,-0.235,6.259,10.138,51.643
1747655916.05,-0.178,0.052,-0.088,-0.434,0.112,-0.348,5.999,10.210,51.518
1747655916.06,-0.105,0.015,0.005,-0.523,0.148,-0.429,5.694,10.301,51.343
1747655916.07,0.047,-0.019,0.022,-0.567,0.098,-0.302,5.342,10.393,51.189
1747655916.08,0.158,-0.041,-0.032,-0.525,0.027,-0.182,5.012,10.432,51.112
1747655916.09,0.140,-0.031,-0.078,-0.544,0.040,-0.109,4.698,10.453,51.085
1747655916.10,0.106,-0.017,-0.130,-0.550,0.093,-0.107,4.379,10.488,51.085
1747655916.11,0.023,-0.046,-0.128,-0.556,0.231,-0.204,4.054,10.582,51.059
1747655916.12,-0.061,-0.103,0.023,-0.629,0.293,-0.367,3.695,10.745,50.961
1747655916.13,-0.089,-0.141,0.047,-0.720,0.217,-0.418,3.273,10.900,50.808
1747655916.14,-0.031,-0.107,-0.026,-0.770,0.113,-0.331,2.813,10.994,50.677
1747655916.15,0.138,-0.017,-0.104,-0.796,0.090,-0.223,2.342,11.054,50.611
1747655916.16,0.237,0.087,-0.187,-0.783,-0.047,-0.189,1.878,11.066,50.582
1747655916.17,0.128,0.145,-0.203,-0.788,-0.107,-0.195,1.417,11.022,50.562
1747655916.18,-0.009,0.104,-0.110,-0.818,-0.072,-0.240,0.947,10.967,50.527
1747655916.19,-0.080,0.002,-0.042,-0.853,0.025,-0.283,0.447,10.953,50.472
1747655916.20,-0.096,-0.105,-0.057,-0.887,0.103,-0.289,-0.071,10.990,50.403
1747655916.21,-0.117,-0.167,-0.132,-0.965,0.204,-0.275,-0.620,11.076,50.345
1747655916.22,-0.127,-0.149,-0.127,-1.034,0.254,-0.218,-1.209,11.213,50.315
1747655916.23,-0.079,-0.093,-0.101,-1.077,0.232,-0.131,-1.820,11.351,50.336
1747655916.24,0.032,-0.043,-0.077,-1.120,0.182,-0.112,-2.448,11.474,50.396
1747655916.25,0.147,-0.003,-0.040,-1.114,0.087,-0.191,-3.093,11.552,50.441
1747655916.26,0.165,0.049,-0.065,-1.060,0.050,-0.305,-3.728,11.589,50.427
1747655916.27,0.087,0.111,-0.103,-1.069,0.040,-0.358,-4.362,11.607,50.360
1747655916.28,-0.049,0.126,-0.119,-1.085,0.144,-0.347,-5.004,11.650,50.286
1747655916.29,-0.163,0.072,-0.113,-1.096,0.273,-0.336,-5.652,11.762,50.222
1747655916.30,-0.236,0.037,-0.101,-1.162,0.396,-0.343,-6.323,11.949,50.165
1747655916.31,-0.244,0.035,-0.088,-1.177,0.475,-0.350,-7.019,12.192,50.112
1747655916.32,-0.151,0.018,-0.048,-1.199,0.528,-0.376,-7.724,12.474,50.054
1747655916.33,-0.003,-0.005,-0.019,-1.228,0.465,-0.406,-8.450,12.754,49.986
1747655916.34,0.111,-0.044,-0.058,-1.225,0.327,-0.420,-9.186,12.968,49.910
1747655916.35,0.120,-0.092,-0.072,-1.213,0.232,-0.421,-9.918,13.111,49.832
1747655916.36,0.075,-0.113,-0.041,-1.279,0.199,-0.421,-10.663,13.220,49.759
1747655916.37,0.018,-0.104,-0.069,-1.324,0.218,-0.407,-11.443,13.325,49.698
1747655916.38,-0.052,-0.086,-0.059,-1.365,0.286,-0.375,-12.242,13.461,49.657
1747655916.39,-0.084,-0.058,-0.010,-1.407,0.360,-0.362,-13.061,13.640,49.639
1747655916.40,-0.058,-0.011,-0.014,-1.431,0.398,-0.343,-13.898,13.860,49.637
1747655916.41,-0.008,0.035,-0.000,-1.357,0.368,-0.320,-14.720,14.080,49.646
1747655916.42,0.020,0.064,0.003,-1.319,0.407,-0.309,-15.501,14.304,49.659
1747655916.43,0.048,0.065,0.003,-1.335,0.376,-0.320,-16.279,14.536,49.674
1747655916.44,0.051,0.031,-0.029,-1.332,0.319,-0.332,-17.062,14.735,49.686
1747655916.45,0.012,-0.027,-0.062,-1.374,0.304,-0.342,-17.854,14.915,49.697
1747655916.46,-0.019,-0.070,-0.015,-1.446,0.261,-0.334,-18.687,15.086,49.720
1747655916.47,-0.054,-0.087,-0.021,-1.420,0.235,-0.313,-19.524,15.236,49.758
1747655916.48,-0.081,-0.087,-0.013,-1.437,0.247,-0.304,-20.357,15.392,49.807
1747655916.49,-0.056,-0.061,0.026,-1.440,0.249,-0.317,-21.197,15.553,49.859
1747655916.50,0.004,-0.032,0.027,-1.411,0.269,-0.321,-22.032,15.719,49.906
1747655916.51,0.080,-0.022,0.024,-1.385,0.258,-0.298,-22.846,15.889,49.956
1747655916.52,0.102,-0.018,0.027,-1.417,0.236,-0.269,-23.660,16.057,50.026
1747655916.53,0.066,-0.020,0.008,-1.423,0.241,-0.224,-24.479,16.232,50.125
1747655916.54,0.016,-0.044,-0.026,-1.416,0.281,-0.195,-25.290,16.433,50.252
1747655916.55,-0.047,-0.058,-0.002,-1.437,0.318,-0.206,-26.101,16.666,50.388
1747655916.56,-0.098,-0.057,0.014,-1.459,0.325,-0.241,-26.931,16.907,50.518
1747655916.57,-0.108,-0.056,-0.008,-1.458,0.338,-0.257,-27.770,17.154,50.639
1747655916.58,-0.057,-0.059,-0.008,-1.432,0.302,-0.256,-28.602,17.395,50.758
1747655916.59,0.015,-0.065,0.001,-1.406,0.230,-0.253,-29.418,17.606,50.878
1747655916.60,0.068,-0.063,0.007,-1.395,0.157,-0.264,-30.224,17.775,50.996
1747655916.61,0.073,-0.059,-0.007,-1.365,0.123,-0.289,-31.022,17.908,51.102
1747655916.62,0.031,-0.052,-0.007,-1.331,0.104,-0.307,-31.807,18.018,51.190
1747655916.63,-0.037,-0.035,-0.010,-1.316,0.110,-0.322,-32.581,18.116,51.265
1747655916.64,-0.101,-0.019,-0.027,-1.289,0.184,-0.329,-33.346,18.233,51.330
1747655916.65,-0.132,-0.022,-0.026,-1.275,0.280,-0.322,-34.098,18.402,51.393
1747655916.66,-0.128,-0.041,-0.005,-1.292,0.340,-0.308,-34.850,18.622,51.468
1747655916.67,-0.106,-0.064,0.010,-1.296,0.364,-0.304,-35.607,18.877,51.558
1747655916.68,-0.080,-0.075,0.009,-1.300,0.341,-0.311,-36.363,19.135,51.651
1747655916.69,-0.064,-0.061,0.018,-1.304,0.317,-0.320,-37.125,19.378,51.745
1747655916.70,-0.057,-0.023,0.005,-1.271,0.281,-0.345,-37.882,19.600,51.830
1747655916.71,-0.066,0.026,-0.031,-1.252,0.251,-0.381,-38.628,19.788,51.890
1747655916.72,-0.087,0.071,-0.056,-1.256,0.262,-0.415,-39.378,19.958,51.929
1747655916.73,-0.082,0.083,-0.077,-1.233,0.242,-0.455,-40.134,20.113,51.943
1747655916.74,-0.060,0.055,-0.103,-1.214,0.188,-0.484,-40.882,20.227,51.929
1747655916.75,-0.026,-0.009,-0.089,-1.204,0.180,-0.514,-41.628,20.304,51.892
1747655916.76,0.005,-0.079,-0.009,-1.164,0.188,-0.537,-42.369,20.368,51.828
1747655916.77,0.026,-0.141,0.043,-1.149,0.127,-0.521,-43.090,20.407,51.754
1747655916.78,0.013,-0.173,0.023,-1.187,0.096,-0.479,-43.814,20.436,51.705
1747655916.79,0.004,-0.164,0.027,-1.226,0.079,-0.427,-44.550,20.486,51.704
1747655916.80,0.023,-0.133,-0.003,-1.240,0.063,-0.391,-45.293,20.557,51.744
1747655916.81,0.028,-0.085,-0.017,-1.216,0.037,-0.375,-46.027,20.631,51.807
1747655916.82,0.019,-0.020,0.006,-1.187,0.042,-0.364,-46.743,20.700,51.872
1747655916.83,0.022,0.045,0.012,-1.179,0.007,-0.356,-47.447,20.766,51.939
1747655916.84,0.028,0.091,-0.021,-1.204,-0.026,-0.356,-48.153,20.815,52.015
1747655916.85,0.023,0.105,-0.050,-1.237,0.014,-0.365,-48.877,20.873,52.101
1747655916.86,0.020,0.085,-0.010,-1.262,0.061,-0.397,-49.622,20.957,52.182
1747655916.87,-0.001,0.044,0.034,-1.262,0.053,-0.426,-50.380,21.036,52.240
1747655916.88,-0.034,-0.014,0.041,-1.248,-0.003,-0.410,-51.136,21.091,52.292
1747655916.89,-0.051,-0.070,-0.002,-1.249,0.002,-0.355,-51.878,21.156,52.377
1747655916.90,-0.024,-0.106,-0.032,-1.267,0.069,-0.314,-52.617,21.282,52.514
1747655916.91,0.019,-0.105,-0.008,-1.258,0.115,-0.330,-53.355,21.460,52.669
1747655916.92,0.031,-0.069,0.035,-1.243,0.096,-0.365,-54.093,21.629,52.800
1747655916.93,0.011,-0.007,0.044,-1.240,0.032,-0.383,-54.829,21.753,52.908
1747655916.94,-0.012,0.059,0.027,-1.260,0.036,-0.388,-55.574,21.857,53.013
1747655916.95,-0.024,0.100,0.023,-1.273,0.067,-0.381,-56.327,21.984,53.132
1747655916.96,-0.026,0.101,0.034,-1.272,0.066,-0.373,-57.083,22.138,53.268
1747655916.97,-0.027,0.079,0.008,-1.214,0.053,-0.386,-57.824,22.276,53.395
1747655916.98,-0.025,0.040,-0.029,-1.191,0.109,-0.412,-58.543,22.400,53.489
1747655916.99,-0.023,-0.012,-0.016,-1.189,0.139,-0.444,-59.265,22.531,53.555
1747655916.99,-0.034,-0.057,0.002,-1.160,0.112,-0.470,-59.985,22.632,53.589
1747655917.01,-0.050,-0.079,-0.040,-1.149,0.174,-0.466,-60.695,22.719,53.601
1747655917.01,-0.049,-0.081,-0.038,-1.155,0.300,-0.462,-61.403,22.876,53.624
1747655917.03,-0.030,-0.068,0.029,-1.161,0.330,-0.467,-62.117,23.086,53.654
1747655917.04,-0.047,-0.041,0.031,-1.138,0.311,-0.461,-62.826,23.295,53.685
1747655917.04,-0.065,-0.021,-0.026,-1.137,0.451,-0.422,-63.521,23.556,53.741
1747655917.05,-0.028,-0.020,-0.013,-1.148,0.609,-0.384,-64.213,23.974,53.863
1747655917.06,0.018,-0.026,0.039,-1.134,0.584,-0.365,-64.893,24.473,54.033
1747655917.07,0.014,-0.019,-0.016,-1.145,0.494,-0.390,-65.573,24.946,54.215
1747655917.08,-0.019,-0.017,-0.026,-1.185,0.461,-0.410,-66.272,25.382,54.399
1747655917.09,-0.016,-0.026,0.005,-1.141,0.511,-0.413,-66.975,25.835,54.593
1747655917.11,0.030,-0.036,-0.000,-1.103,0.555,-0.424,-67.655,26.302,54.764
1747655917.11,0.061,-0.037,0.006,-1.119,0.461,-0.426,-68.330,26.759,54.938
1747655917.12,0.051,-0.029,0.046,-1.123,0.343,-0.420,-69.012,27.180,54.988
1747655917.13,0.034,-0.020,0.050,-1.069,0.333,-0.419,-69.678,27.568,55.201
1747655917.14,0.050,-0.018,-0.017,-1.086,0.368,-0.418,-70.331,27.969,55.148
1747655917.15,0.089,-0.028,-0.045,-1.104,0.313,-0.406,-70.996,28.420,55.417
1747655917.16,0.088,-0.033,-0.016,-1.064,0.161,-0.407,-71.652,28.835,55.436
1747655917.17,0.045,-0.025,-0.049,-1.054,0.060,-0.399,-72.291,29.170,55.727
1747655917.18,0.021,-0.013,-0.061,-1.093,0.086,-0.410,-72.939,29.526,55.762
1747655917.19,0.005,-0.004,0.009,-1.024,0.171,-0.415,-73.585,29.918,56.098
1747655917.20,-0.011,-0.010,0.014,-1.029,0.304,-0.396,-74.201,30.362,56.129
1747655917.21,0.005,-0.038,-0.039,-1.063,0.325,-0.390,-74.833,30.962,56.559
1747655917.22,-0.007,-0.064,0.050,-0.976,0.207,-0.375,-75.446,31.545,56.688
1747655917.23,-0.056,-0.066,-0.001,-0.921,0.208,-0.334,-76.009,32.093,57.138
1747655917.24,-0.049,-0.052,-0.066,-0.989,0.331,-0.312,-76.565,32.805,57.386
1747655917.25,-0.021,-0.018,-0.033,-1.038,0.442,-0.315,-77.150,33.754,58.134
1747655917.26,-0.020,0.009,0.004,-1.031,0.523,-0.342,-77.744,34.831,58.956
1747655917.27,-0.028,0.029,0.007,-1.011,0.558,-0.371,-78.338,35.952,59.781
1747655917.28,-0.016,0.032,0.034,-0.959,0.470,-0.368,-78.917,37.069,60.619
1747655917.29,-0.001,0.029,0.010,-0.927,0.412,-0.351,-79.467,38.186,61.502
1747655917.30,0.014,0.002,-0.023,-0.945,0.431,-0.344,-80.008,39.419,62.513
1747655917.31,0.036,-0.046,0.007,-0.945,0.445,-0.328,-80.545,40.850,63.711
1747655917.32,0.065,-0.072,0.005,-0.914,0.423,-0.300,-81.061,42.444,65.073
1747655917.33,0.093,-0.056,-0.028,-0.898,0.371,-0.258,-81.546,44.231,66.653
1747655917.34,0.104,-0.023,-0.032,-0.878,0.350,-0.255,-82.007,46.233,68.468
1747655917.35,0.089,0.003,-0.020,-0.828,0.298,-0.282,-82.450,48.285,70.350
1747655917.36,0.054,0.005,-0.012,-0.807,0.208,-0.301,-82.881,50.325,72.261
1747655917.37,0.026,-0.002,-0.014,-0.801,0.167,-0.297,-83.302,52.508,74.357
1747655917.38,0.020,-0.015,-0.021,-0.777,0.247,-0.287,-83.702,54.948,76.699
1747655917.39,0.021,-0.028,0.006,-0.803,0.344,-0.292,-84.088,57.761,79.356
1747655917.40,-0.009,-0.031,0.057,-0.850,0.364,-0.333,-84.481,61.132,82.540
1747655917.41,-0.064,-0.018,0.056,-0.828,0.365,-0.355,-84.877,64.993,86.210
1747655917.42,-0.079,-0.012,0.024,-0.765,0.453,-0.336,-85.237,69.175,90.177
1747655917.43,-0.046,-0.009,0.006,-0.724,0.579,-0.292,-85.543,73.759,94.477
1747655917.44,-0.013,0.004,0.028,-0.684,0.653,-0.262,-85.792,78.768,99.146
1747655917.45,0.005,0.002,0.023,-0.668,0.714,-0.231,-85.989,84.162,104.169
1747655917.46,0.024,-0.016,0.006,-0.674,0.821,-0.188,-86.127,90.072,109.651
1747655917.47,0.043,-0.032,0.024,-0.658,0.814,-0.165,-86.204,96.312,115.431
1747655917.48,0.026,-0.042,0.044,-0.610,0.673,-0.167,-86.238,102.401,121.104
1747655917.49,-0.017,-0.037,0.027,-0.589,0.563,-0.178,-86.244,108.167,126.532
1747655917.50,-0.040,-0.019,0.017,-0.550,0.447,-0.197,-86.227,113.660,131.748
1747655917.51,-0.031,0.007,-0.003,-0.538,0.392,-0.223,-86.197,118.852,136.716
1747655917.52,-0.025,0.015,-0.021,-0.538,0.373,-0.251,-86.151,124.088,141.750
1747655917.53,-0.011,0.011,-0.006,-0.516,0.429,-0.241,-86.086,129.119,146.561
1747655917.54,0.027,-0.009,0.013,-0.487,0.465,-0.212,-85.993,133.722,150.918
1747655917.55,0.047,-0.027,0.033,-0.456,0.431,-0.196,-85.880,137.785,154.732
1747655917.56,0.044,-0.025,0.019,-0.435,0.362,-0.196,-85.759,141.434,158.164
1747655917.57,0.037,-0.015,-0.008,-0.406,0.324,-0.204,-85.636,144.734,161.281
1747655917.58,0.033,-0.035,0.003,-0.382,0.271,-0.192,-85.513,147.745,164.129
1747655917.59,0.032,-0.031,0.010,-0.394,0.266,-0.162,-85.377,150.413,166.655
1747655917.60,0.035,-0.043,0.017,-0.410,0.296,-0.123,-85.214,152.784,168.870
1747655917.61,0.050,-0.038,0.060,-0.393,0.222,-0.094,-85.033,154.778,170.719
1747655917.62,0.037,-0.004,0.049,-0.307,0.098,-0.099,-84.871,156.375,172.231
1747655917.63,-0.013,0.047,0.006,-0.198,0.098,-0.132,-84.765,157.696,173.503
1747655917.64,-0.068,0.070,0.005,-0.153,0.117,-0.177,-84.706,159.049,174.802
1747655917.65,-0.112,0.052,0.010,-0.157,0.197,-0.183,-84.660,160.520,176.192
1747655917.66,-0.109,0.018,-0.005,-0.149,0.291,-0.156,-84.608,161.946,177.485
1747655917.67,-0.058,-0.002,-0.009,-0.110,0.363,-0.116,-84.562,163.143,178.499
1747655917.68,-0.006,-0.011,-0.027,-0.129,0.402,-0.093,-84.517,164.152,179.291
1747655917.69,0.033,-0.016,-0.014,-0.217,0.375,-0.076,-84.435,165.121,-179.961
1747655917.70,0.050,-0.028,0.009,-0.265,0.311,-0.059,-84.306,166.052,-179.225
1747655917.71,0.050,-0.045,0.007,-0.210,0.199,-0.030,-84.178,166.776,-178.643
1747655917.72,0.037,-0.042,-0.016,-0.117,0.076,-0.004,-84.089,167.140,-178.355
1747655917.73,0.003,0.004,-0.033,-0.088,0.021,-0.005,-84.036,167.302,-178.218
1747655917.74,-0.051,0.050,-0.018,-0.053,0.050,-0.013,-83.997,167.454,-178.082
1747655917.75,-0.080,0.051,-0.010,-0.054,0.107,-0.024,-83.972,167.651,-177.929
1747655917.76,-0.071,0.023,-0.027,-0.069,0.192,-0.048,-83.942,167.991,-177.671
1747655917.77,-0.028,0.018,-0.048,-0.048,0.261,-0.055,-83.914,168.481,-177.311
1747655917.78,0.051,0.010,-0.053,-0.000,0.273,-0.026,-83.905,168.880,-177.066
1747655917.79,0.122,-0.016,-0.052,-0.000,0.160,0.004,-83.909,169.054,-177.021
1747655917.80,0.144,-0.045,-0.050,-0.066,-0.040,0.025,-83.889,169.050,-177.060
1747655917.81,0.132,-0.070,-0.042,-0.110,-0.258,0.055,-83.833,168.845,-177.182
1747655917.82,0.109,-0.085,-0.027,-0.080,-0.479,0.068,-83.771,168.423,-177.394
1747655917.83,0.062,-0.064,-0.049,-0.001,-0.619,0.038,-83.742,167.882,-177.619
1747655917.84,0.000,-0.010,-0.079,0.066,-0.640,0.001,-83.757,167.386,-177.753
1747655917.85,-0.033,0.031,-0.089,0.120,-0.578,-0.022,-83.811,166.983,-177.806
1747655917.86,-0.025,0.052,-0.105,0.153,-0.452,-0.040,-83.892,166.693,-177.802
1747655917.87,0.015,0.074,-0.110,0.191,-0.304,-0.027,-83.991,166.448,-177.829
1747655917.88,0.069,0.083,-0.099,0.224,-0.119,0.019,-84.109,166.083,-178.075
1747655917.89,0.106,0.061,-0.067,0.194,-0.047,0.074,-84.221,165.501,-178.619
1747655917.90,0.095,0.021,-0.004,0.124,-0.167,0.115,-84.294,164.684,-179.386
1747655917.91,0.020,-0.017,0.008,0.073,-0.324,0.097,-84.330,163.784,179.854
1747655917.92,-0.082,-0.041,-0.018,0.021,-0.349,0.029,-84.346,163.151,179.418
1747655917.93,-0.145,-0.033,-0.001,0.014,-0.204,-0.032,-84.354,162.988,179.418
1747655917.94,-0.137,-0.012,0.056,0.047,0.030,-0.046,-84.377,163.108,179.591
1747655917.95,-0.091,0.009,0.104,0.056,0.219,-0.043,-84.414,163.338,179.746
1747655917.96,-0.058,0.026,0.144,0.046,0.263,-0.027,-84.448,163.585,179.852
1747655917.97,-0.043,0.028,0.131,0.016,0.240,-0.026,-84.470,163.810,179.931
1747655917.98,-0.042,0.006,0.105,-0.039,0.135,-0.042,-84.470,164.111,-179.877
1747655917.99,-0.051,-0.018,0.082,-0.082,0.042,-0.063,-84.444,164.564,-179.470
1747655918.00,-0.045,-0.031,0.047,-0.085,0.005,-0.072,-84.407,165.102,-178.942
1747655918.01,-0.005,-0.019,0.028,-0.056,-0.006,-0.049,-84.377,165.549,-178.493
1747655918.02,0.033,0.001,0.018,-0.027,-0.006,-0.017,-84.358,165.817,-178.219
1747655918.03,0.046,0.009,0.020,-0.007,-0.015,0.010,-84.347,165.877,-178.155
1747655918.04,0.029,-0.009,0.031,0.010,-0.067,0.003,-84.344,165.822,-178.188
1747655918.05,-0.003,-0.024,0.019,0.012,-0.117,-0.023,-84.348,165.817,-178.138
1747655918.06,-0.019,-0.018,-0.010,0.003,-0.104,-0.037,-84.354,165.933,-177.958
1747655918.07,-0.003,-0.011,-0.002,0.017,-0.115,-0.034,-84.362,166.081,-177.747
1747655918.08,0.007,-0.001,0.007,0.036,-0.139,-0.027,-84.380,166.166,-177.587
1747655918.09,0.003,0.003,0.001,0.052,-0.132,-0.018,-84.406,166.159,-177.516
1747655918.10,0.004,-0.003,0.013,0.065,-0.103,-0.011,-84.439,166.070,-177.537
1747655918.11,0.002,-0.012,0.006,0.069,-0.057,0.001,-84.475,165.931,-177.630
1747655918.12,-0.002,-0.013,-0.003,0.084,-0.038,0.014,-84.513,165.731,-177.806
1747655918.13,-0.009,-0.001,-0.017,0.079,-0.019,0.024,-84.553,165.492,-178.030
1747655918.14,-0.016,0.019,-0.025,0.055,0.007,0.040,-84.588,165.241,-178.278
1747655918.15,-0.025,0.027,-0.004,0.045,0.028,0.057,-84.607,164.904,-178.626
1747655918.16,-0.035,0.011,0.021,0.053,0.051,0.052,-84.622,164.512,-179.043
1747655918.17,-0.042,-0.003,0.019,0.062,0.057,0.028,-84.646,164.199,-179.387
1747655918.18,-0.041,-0.010,-0.000,0.051,0.115,-0.002,-84.672,164.082,-179.552
1747655918.19,-0.015,-0.013,0.001,0.036,0.167,-0.017,-84.694,164.162,-179.555
1747655918.20,0.027,-0.009,0.014,0.039,0.161,-0.023,-84.716,164.330,-179.482
1747655918.21,0.057,0.002,-0.004,0.062,0.130,-0.017,-84.751,164.463,-179.430
1747655918.22,0.077,0.017,-0.031,0.081,0.092,0.002,-84.793,164.484,-179.474
1747655918.23,0.087,0.021,-0.018,0.118,0.024,0.019,-84.846,164.303,-179.689
1747655918.24,0.076,0.001,-0.012,0.144,-0.049,0.029,-84.914,163.933,179.946
1747655918.25,0.045,-0.018,-0.005,0.172,-0.099,0.017,-84.994,163.488,179.542
1747655918.26,0.007,-0.019,-0.003,0.204,-0.121,0.007,-85.096,163.025,179.142
1747655918.27,-0.025,-0.011,-0.004,0.251,-0.107,0.014,-85.218,162.453,178.633
1747655918.28,-0.049,-0.003,-0.006,0.269,-0.071,0.021,-85.356,161.704,177.934
1747655918.29,-0.071,0.007,-0.004,0.254,-0.052,0.019,-85.494,160.903,177.166
1747655918.30,-0.085,0.010,0.012,0.238,-0.022,0.019,-85.623,160.108,176.390
1747655918.31,-0.078,0.000,0.017,0.227,0.034,0.022,-85.742,159.306,175.583
1747655918.32,-0.049,-0.015,0.030,0.231,0.058,0.024,-85.858,158.502,174.747
1747655918.33,-0.016,-0.018,0.045,0.242,0.021,0.018,-85.978,157.646,173.866
1747655918.34,0.011,-0.008,0.040,0.277,-0.038,0.023,-86.109,156.663,172.886
1747655918.35,0.032,-0.001,0.032,0.317,-0.082,0.039,-86.257,155.366,171.623
1747655918.36,0.044,0.002,0.031,0.359,-0.121,0.054,-86.420,153.669,169.979
1747655918.37,0.034,0.000,0.033,0.415,-0.158,0.065,-86.601,151.466,167.852
1747655918.38,0.006,-0.008,0.028,0.479,-0.188,0.068,-86.804,148.652,165.132
1747655918.39,-0.016,-0.017,0.029,0.531,-0.262,0.071,-87.024,144.995,161.596
1747655918.40,-0.028,-0.013,0.009,0.575,-0.437,0.077,-87.249,140.314,157.107
1747655918.41,-0.050,0.017,-0.020,0.617,-0.572,0.094,-87.466,134.210,151.290
1747655918.42,-0.073,0.038,-0.040,0.614,-0.535,0.098,-87.654,126.761,144.158
1747655918.43,-0.084,0.028,-0.005,0.600,-0.350,0.099,-87.794,118.405,136.053
1747655918.44,-0.085,-0.007,0.058,0.591,-0.183,0.102,-87.879,109.359,127.149
1747655918.45,-0.077,-0.037,0.089,0.595,-0.111,0.114,-87.905,99.980,117.846
1747655918.46,-0.064,-0.051,0.086,0.641,-0.073,0.131,-87.867,90.249,108.160
1747655918.47,-0.035,-0.042,0.072,0.697,-0.040,0.155,-87.754,80.405,98.341
1747655918.48,0.011,-0.019,0.079,0.734,-0.092,0.157,-87.566,71.181,89.141
1747655918.49,0.031,0.019,0.071,0.762,-0.296,0.152,-87.319,63.051,81.110
1747655918.50,0.006,0.067,0.016,0.798,-0.477,0.156,-87.016,55.947,74.224
1747655918.51,-0.042,0.084,-0.030,0.788,-0.466,0.164,-86.670,50.098,68.644
1747655918.52,-0.059,0.041,0.020,0.793,-0.273,0.174,-86.295,45.493,64.247
1747655918.53,-0.026,-0.019,0.095,0.789,-0.071,0.184,-85.897,41.910,60.751
1747655918.54,0.011,-0.060,0.139,0.818,0.025,0.176,-85.482,39.007,57.848
1747655918.55,0.011,-0.071,0.122,0.872,-0.001,0.156,-85.042,36.363,55.184
1747655918.56,-0.018,-0.056,0.077,0.942,-0.089,0.147,-84.570,33.835,52.670
1747655918.57,-0.045,-0.027,0.036,1.005,-0.148,0.174,-84.052,31.515,50.411
1747655918.58,-0.053,-0.001,-0.000,1.042,-0.111,0.213,-83.491,29.584,48.103
1747655918.59,-0.036,0.030,-0.006,1.015,-0.031,0.215,-82.916,28.061,46.611
1747655918.60,-0.016,0.063,0.016,0.974,0.070,0.204,-82.358,26.864,44.949
1747655918.61,-0.015,0.069,0.066,0.935,0.128,0.226,-81.816,25.963,43.979
1747655918.62,-0.020,0.036,0.129,0.919,0.113,0.270,-81.278,25.352,42.865
1747655918.63,-0.044,-0.002,0.133,0.927,0.112,0.321,-80.729,24.965,42.409
1747655918.64,-0.077,-0.034,0.085,0.904,0.092,0.360,-80.172,24.765,41.727
1747655918.65,-0.085,-0.057,0.072,0.884,-0.013,0.377,-79.620,24.676,41.612
1747655918.66,-0.049,-0.055,0.040,0.886,-0.030,0.341,-79.075,24.534,41.070
1747655918.67,0.028,-0.019,-0.019,0.902,0.142,0.275,-78.538,24.309,40.812
1747655918.68,0.132,0.016,0.026,0.948,0.174,0.259,-77.995,24.027,40.014
1747655918.69,0.199,0.042,0.074,0.997,-0.005,0.287,-77.426,23.701,39.627
1747655918.70,0.196,0.064,0.049,1.015,-0.211,0.322,-76.828,23.325,38.897
1747655918.71,0.140,0.071,0.042,0.982,-0.256,0.366,-76.226,22.999,38.707
1747655918.72,0.070,0.039,0.074,0.968,-0.177,0.409,-75.631,22.825,38.266
1747655918.73,0.003,-0.012,0.108,1.026,-0.095,0.420,-75.015,22.748,38.264
1747655918.74,-0.072,-0.048,0.066,1.092,-0.089,0.390,-74.367,22.631,37.813
1747655918.75,-0.139,-0.058,0.014,1.140,-0.075,0.340,-73.697,22.401,37.623
1747655918.76,-0.168,-0.049,-0.029,1.146,-0.009,0.306,-73.022,22.119,36.995
1747655918.77,-0.168,-0.022,-0.049,1.145,0.070,0.262,-72.355,21.836,36.679
1747655918.78,-0.175,0.010,-0.031,1.151,0.098,0.217,-71.695,21.531,35.967
1747655918.79,-0.192,0.044,-0.000,1.103,0.104,0.195,-71.050,21.205,35.564
1747655918.80,-0.186,0.065,0.035,0.973,0.236,0.225,-70.454,21.005,34.909
1747655918.81,-0.142,0.037,0.116,0.939,0.410,0.306,-69.894,21.043,34.753
1747655918.82,-0.084,-0.027,0.113,0.944,0.522,0.371,-69.321,21.282,34.410
1747655918.83,-0.017,-0.073,0.026,0.939,0.512,0.401,-68.740,21.608,34.437
1747655918.84,0.046,-0.079,0.018,0.975,0.380,0.438,-68.146,21.915,34.490
1747655918.85,0.090,-0.059,0.002,1.036,0.256,0.478,-67.515,22.162,34.562
1747655918.86,0.138,-0.026,-0.041,1.102,0.146,0.492,-66.845,22.341,34.633
1747655918.87,0.169,0.007,-0.076,1.124,0.119,0.440,-66.152,22.424,34.643
1747655918.88,0.135,0.017,-0.076,1.082,0.082,0.375,-65.482,22.427,34.581
1747655918.89,0.052,-0.003,0.006,1.079,-0.004,0.355,-64.834,22.351,34.475
1747655918.90,-0.037,-0.039,0.010,1.034,0.023,0.416,-64.189,22.291,34.406
1747655918.91,-0.044,-0.076,-0.004,0.957,0.097,0.470,-63.567,22.370,34.455
1747655918.92,0.019,-0.102,0.015,0.875,0.063,0.426,-62.984,22.496,34.541
1747655918.93,0.047,-0.090,-0.060,0.827,-0.027,0.367,-62.452,22.549,34.591
1747655918.94,0.057,-0.066,-0.091,0.897,-0.110,0.347,-61.921,22.511,34.589
1747655918.95,0.084,-0.042,-0.076,0.979,-0.241,0.328,-61.351,22.363,34.534
1747655918.96,0.081,-0.015,-0.094,1.034,-0.345,0.283,-60.752,22.092,34.419
1747655918.97,0.059,-0.002,-0.121,1.081,-0.338,0.215,-60.140,21.729,34.230
1747655918.98,0.028,-0.008,-0.103,1.139,-0.206,0.169,-59.510,21.342,33.967
1747655918.99,-0.021,-0.026,-0.047,1.124,-0.041,0.168,-58.871,21.028,33.681
1747655919.00,-0.090,-0.043,-0.007,1.070,0.101,0.248,-58.243,20.858,33.460
1747655919.01,-0.139,-0.065,-0.008,0.963,0.219,0.337,-57.641,20.870,33.365
1747655919.02,-0.128,-0.088,0.011,0.914,0.261,0.391,-57.070,21.017,33.373
1747655919.03,-0.058,-0.101,0.004,0.925,0.207,0.416,-56.498,21.196,33.422
1747655919.04,0.050,-0.095,-0.042,0.954,0.090,0.393,-55.913,21.314,33.461
1747655919.05,0.144,-0.064,-0.055,0.976,-0.020,0.357,-55.321,21.334,33.460
1747655919.06,0.179,-0.033,-0.015,1.007,-0.169,0.311,-54.726,21.243,33.413
1747655919.07,0.132,-0.011,-0.011,1.057,-0.243,0.268,-54.116,21.037,33.312
1747655919.08,0.037,0.006,-0.041,1.094,-0.177,0.248,-53.490,20.802,33.174
1747655919.09,-0.011,0.016,-0.009,1.132,-0.070,0.236,-52.845,20.604,33.013
1747655919.10,-0.032,0.026,0.028,1.105,-0.018,0.238,-52.198,20.455,32.852
1747655919.11,-0.069,0.031,0.068,1.071,-0.004,0.239,-51.568,20.335,32.709
1747655919.12,-0.110,0.038,0.060,1.026,0.016,0.247,-50.958,20.240,32.583
1747655919.13,-0.097,0.041,0.014,0.985,-0.017,0.254,-50.370,20.164,32.482
1747655919.14,-0.055,0.038,-0.007,0.977,-0.071,0.246,-49.798,20.069,32.393
1747655919.15,-0.023,0.028,-0.001,1.041,-0.109,0.237,-49.211,19.939,32.290
1747655919.16,0.014,0.014,0.029,1.103,-0.154,0.231,-48.588,19.768,32.164
1747655919.17,0.021,0.012,0.020,1.147,-0.128,0.202,-47.942,19.573,32.016
1747655919.18,-0.016,0.026,-0.026,1.185,-0.029,0.144,-47.279,19.388,31.826
1747655919.19,-0.083,0.039,-0.031,1.160,0.065,0.093,-46.622,19.227,31.592
1747655919.20,-0.146,0.040,-0.039,1.133,0.126,0.072,-45.989,19.106,31.344
1747655919.21,-0.156,0.019,-0.018,1.130,0.075,0.077,-45.366,18.988,31.097
1747655919.22,-0.149,-0.019,0.003,1.161,0.093,0.113,-44.730,18.869,30.870
1747655919.23,-0.088,-0.052,0.040,1.177,0.207,0.120,-44.075,18.807,30.660
1747655919.24,0.018,-0.060,0.072,1.145,0.262,0.089,-43.427,18.795,30.439
1747655919.25,0.094,-0.057,0.041,1.099,0.175,0.086,-42.805,18.773,30.219
1747655919.26,0.111,-0.056,-0.004,1.088,0.058,0.126,-42.197,18.706,30.022
1747655919.27,0.094,-0.044,0.000,1.085,-0.034,0.210,-41.576,18.612,29.879
1747655919.28,0.068,-0.015,0.038,1.080,-0.059,0.174,-40.958,18.503,29.755
1747655919.29,0.051,0.037,0.070,1.115,-0.060,0.188,-40.331,18.384,29.622
1747655919.30,0.045,0.068,0.062,1.153,-0.113,0.201,-39.681,18.254,29.494
1747655919.31,0.022,0.083,0.020,1.190,-0.167,0.203,-39.009,18.091,29.368
1747655919.32,0.003,0.063,-0.004,1.207,-0.180,0.191,-38.324,17.904,29.234
1747655919.33,0.006,0.026,0.034,1.207,-0.118,0.182,-37.633,17.732,29.095
1747655919.34,0.053,-0.033,0.040,1.151,-0.042,0.157,-36.959,17.603,28.954
1747655919.35,0.077,-0.073,0.014,1.074,0.016,0.166,-36.326,17.515,28.822
1747655919.36,0.050,-0.077,0.034,1.034,0.016,0.258,-35.717,17.481,28.737
1747655919.37,0.047,-0.061,0.067,0.996,-0.081,0.368,-35.112,17.460,28.735
1747655919.38,0.049,-0.014,0.030,0.987,-0.151,0.429,-34.506,17.430,28.796
1747655919.39,0.057,0.063,0.017,1.029,-0.276,0.440,-33.882,17.355,28.877
1747655919.40,0.056,0.136,0.020,1.118,-0.407,0.410,-33.226,17.191,28.939
1747655919.41,0.031,0.173,0.055,1.214,-0.465,0.328,-32.525,16.943,28.947
1747655919.42,0.009,0.175,0.060,1.268,-0.433,0.229,-31.797,16.650,28.883
1747655919.43,-0.009,0.118,0.026,1.208,-0.337,0.169,-31.084,16.370,28.771
1747655919.44,-0.044,0.005,-0.014,1.114,-0.140,0.156,-30.422,16.172,28.657
1747655919.45,-0.077,-0.089,-0.045,1.023,0.033,0.188,-29.810,16.099,28.568
1747655919.46,-0.087,-0.161,-0.028,0.961,0.131,0.281,-29.230,16.131,28.533
1747655919.47,-0.075,-0.191,0.024,0.918,0.146,0.370,-28.662,16.232,28.570
1747655919.48,-0.023,-0.130,0.053,0.920,0.060,0.403,-28.097,16.330,28.645
1747655919.49,0.040,0.008,0.035,0.955,-0.066,0.402,-27.522,16.366,28.726
1747655919.50,0.113,0.123,0.016,1.034,-0.287,0.380,-26.914,16.297,28.786
1747655919.51,0.137,0.192,0.013,1.126,-0.479,0.379,-26.262,16.092,28.825
1747655919.52,0.107,0.209,0.051,1.218,-0.583,0.332,-25.562,15.792,28.840
1747655919.53,0.064,0.190,0.060,1.233,-0.601,0.225,-24.840,15.436,28.802
1747655919.54,-0.005,0.157,0.014,1.200,-0.551,0.152,-24.140,15.067,28.710
1747655919.55,-0.064,0.068,-0.004,1.171,-0.426,0.196,-23.461,14.749,28.621
1747655919.56,-0.064,-0.074,0.048,1.151,-0.240,0.297,-22.784,14.545,28.586
1747655919.57,-0.007,-0.184,0.069,1.133,-0.119,0.349,-22.106,14.453,28.605
1747655919.58,0.061,-0.244,0.031,1.130,-0.086,0.357,-21.431,14.410,28.642
1747655919.59,0.096,-0.221,0.010,1.140,-0.104,0.393,-20.749,14.375,28.691
1747655919.60,0.092,-0.129,0.032,1.146,-0.183,0.441,-20.059,14.321,28.765
1747655919.61,0.053,-0.029,0.041,1.173,-0.266,0.440,-19.356,14.222,28.852
1747655919.62,0.005,0.059,0.039,1.240,-0.326,0.425,-18.629,14.077,28.928
1747655919.63,-0.029,0.112,0.047,1.271,-0.380,0.407,-17.874,13.893,28.988
1747655919.64,-0.040,0.123,0.017,1.255,-0.361,0.365,-17.122,13.691,29.033
1747655919.65,-0.028,0.125,-0.017,1.301,-0.273,0.320,-16.366,13.516,29.051
1747655919.66,-0.024,0.101,0.004,1.322,-0.183,0.280,-15.596,13.383,29.042
1747655919.67,-0.062,0.045,0.010,1.312,-0.113,0.279,-14.826,13.296,29.022
1747655919.68,-0.127,0.008,-0.015,1.283,-0.085,0.289,-14.068,13.234,29.009
1747655919.69,-0.192,-0.014,-0.010,1.282,-0.028,0.262,-13.320,13.200,28.997
1747655919.70,-0.185,-0.013,0.029,1.314,-0.011,0.191,-12.569,13.183,28.954
1747655919.71,-0.121,-0.009,0.050,1.339,-0.086,0.124,-11.810,13.140,28.867
1747655919.72,-0.049,-0.021,0.035,1.384,-0.191,0.082,-11.040,13.037,28.743
1747655919.73,0.007,-0.047,0.044,1.410,-0.238,0.072,-10.254,12.884,28.605
1747655919.74,0.042,-0.106,0.058,1.484,-0.194,0.115,-9.438,12.735,28.470
1747655919.75,0.054,-0.104,0.024,1.515,-0.079,0.149,-8.583,12.637,28.355
1747655919.76,0.035,-0.049,-0.040,1.494,0.030,0.164,-7.723,12.611,28.254
1747655919.77,-0.013,0.030,-0.069,1.461,0.129,0.232,-6.878,12.645,28.176
1747655919.78,-0.076,0.093,-0.067,1.458,0.247,0.298,-6.029,12.748,28.145
1747655919.79,-0.127,0.112,-0.069,1.333,0.322,0.249,-5.215,12.914,28.123
1747655919.80,-0.101,0.110,-0.027,1.287,0.286,0.219,-4.460,13.089,28.084
1747655919.81,0.012,0.018,-0.009,1.294,0.148,0.186,-3.717,13.211,28.031
1747655919.82,0.098,-0.020,0.027,1.312,0.008,0.158,-2.972,13.248,27.955
1747655919.83,0.114,0.034,0.032,1.361,-0.069,0.185,-2.206,13.225,27.874
1747655919.84,0.071,0.123,0.036,1.360,-0.064,0.214,-1.422,13.181,27.808
1747655919.85,-0.008,0.200,0.020,1.369,0.010,0.215,-0.635,13.167,27.750
1747655919.86,-0.069,0.221,-0.034,1.303,0.108,0.217,0.139,13.199,27.696
1747655919.87,-0.081,0.182,-0.096,1.218,0.171,0.185,0.865,13.286,27.645
1747655919.88,-0.080,0.108,-0.138,1.216,0.130,0.153,1.566,13.373,27.577
1747655919.89,-0.067,0.016,-0.129,1.196,0.022,0.127,2.254,13.422,27.495
1747655919.90,-0.002,-0.067,-0.090,1.185,-0.122,0.080,2.928,13.399,27.395
1747655919.91,0.080,-0.032,-0.095,1.186,-0.282,0.061,3.595,13.291,27.277
1747655919.92,0.125,0.009,-0.064,1.207,-0.426,0.051,4.265,13.094,27.152
1747655919.93,0.075,0.059,-0.016,1.231,-0.417,0.031,4.949,12.860,27.020
1747655919.94,-0.026,0.073,0.019,1.247,-0.292,-0.017,5.643,12.666,26.867
1747655919.95,-0.145,0.055,0.015,1.217,-0.083,-0.049,6.323,12.577,26.693
1747655919.96,-0.193,0.023,-0.048,1.207,0.083,-0.034,6.996,12.600,26.516
1747655919.97,-0.166,-0.034,-0.101,1.165,0.170,-0.031,7.652,12.698,26.348
1747655919.98,-0.093,-0.085,-0.090,1.119,0.149,-0.039,8.284,12.817,26.183
1747655919.99,0.044,-0.063,-0.074,1.070,-0.033,-0.008,8.890,12.877,26.027
1747655920.00,0.204,-0.029,-0.081,1.023,-0.246,-0.032,9.470,12.822,25.880
1747655920.01,0.323,-0.021,-0.076,0.966,-0.439,0.015,10.023,12.648,25.745
1747655920.02,0.348,-0.021,-0.069,0.919,-0.488,0.093,10.554,12.392,25.658
1747655920.03,0.235,-0.018,-0.032,0.893,-0.383,0.143,11.075,12.146,25.615
1747655920.04,0.054,0.007,-0.009,0.843,-0.137,0.155,11.576,12.000,25.594
1747655920.05,-0.047,0.014,-0.033,0.832,0.068,0.194,12.064,11.984,25.591
1747655920.06,-0.083,-0.003,-0.052,0.807,0.207,0.231,12.546,12.061,25.611
1747655920.06,-0.085,0.004,-0.051,0.757,0.249,0.265,13.012,12.186,25.658
1747655920.07,-0.004,-0.077,-0.046,0.710,0.174,0.262,13.455,12.296,25.718
1747655920.08,0.068,-0.042,-0.064,0.665,0.052,0.247,13.869,12.349,25.778
1747655920.09,0.121,-0.020,-0.065,0.633,-0.127,0.244,14.260,12.313,25.836
1747655920.10,0.134,-0.040,-0.091,0.597,-0.266,0.259,14.633,12.181,25.902
1747655920.11,0.107,-0.037,-0.113,0.604,-0.334,0.268,14.998,11.989,25.981
1747655920.12,0.039,-0.004,-0.114,0.572,-0.270,0.248,15.361,11.793,26.060
1747655920.13,-0.046,0.034,-0.111,0.560,-0.159,0.229,15.703,11.650,26.129
1747655920.15,-0.130,0.047,-0.080,0.548,-0.043,0.230,16.042,11.575,26.196
1747655920.15,-0.172,0.043,-0.057,0.515,0.056,0.222,16.366,11.559,26.265
1747655920.16,-0.132,0.010,-0.048,0.503,0.060,0.208,16.675,11.578,26.330
1747655920.17,-0.044,-0.016,-0.039,0.472,-0.027,0.187,16.971,11.573,26.387
1747655920.18,0.038,-0.018,-0.055,0.446,-0.129,0.170,17.247,11.514,26.436
1747655920.20,0.107,-0.061,-0.066,0.421,-0.218,0.187,17.511,11.399,26.488
1747655920.20,0.138,-0.081,-0.058,0.370,-0.261,0.211,17.755,11.238,26.559
1747655920.21,0.111,-0.081,-0.055,0.318,-0.252,0.249,17.971,11.060,26.654
1747655920.22,0.050,-0.098,-0.043,0.308,-0.179,0.287,18.175,10.896,26.777
1747655920.23,-0.006,-0.061,-0.028,0.287,-0.051,0.321,18.375,10.786,26.924
1747655920.24,-0.002,-0.009,0.017,0.248,0.009,0.379,18.562,10.722,27.099
1747655920.25,0.024,0.012,0.012,0.211,0.003,0.446,18.736,10.655,27.320
1747655920.26,0.025,-0.019,-0.015,0.195,0.042,0.452,18.896,10.586,27.566
1747655920.27,0.019,-0.046,-0.004,0.163,0.081,0.464,19.045,10.542,27.815
1747655920.28,0.046,-0.040,-0.011,0.161,0.055,0.424,19.183,10.501,28.063
1747655920.29,0.031,-0.041,-0.032,0.145,0.053,0.417,19.314,10.456,28.292
1747655920.30,0.008,-0.078,-0.015,0.125,0.076,0.442,19.435,10.411,28.533
1747655920.31,0.036,-0.066,-0.006,0.115,0.111,0.474,19.548,10.380,28.794
1747655920.32,0.059,-0.025,-0.008,0.106,0.093,0.491,19.661,10.345,29.069
1747655920.33,0.070,0.020,-0.036,0.087,0.051,0.529,19.767,10.289,29.360
1747655920.34,0.076,0.056,-0.062,0.090,0.014,0.554,19.872,10.198,29.677
1747655920.35,0.055,0.081,-0.073,0.083,0.013,0.519,19.977,10.099,29.987
1747655920.36,-0.005,0.049,-0.053,0.063,0.049,0.526,20.070,10.012,30.291
1747655920.37,-0.037,-0.007,-0.039,0.045,0.093,0.524,20.152,9.946,30.600
1747655920.38,-0.038,-0.019,-0.041,0.047,0.150,0.514,20.228,9.908,30.908
1747655920.39,-0.028,-0.004,-0.008,0.053,0.178,0.407,20.304,9.912,31.177
1747655920.40,-0.011,-0.017,-0.005,0.048,0.127,0.316,20.369,9.923,31.384
1747655920.41,0.014,-0.042,-0.031,0.024,0.072,0.366,20.420,9.910,31.589
1747655920.42,0.036,0.005,-0.064,0.032,0.041,0.353,20.473,9.865,31.802
1747655920.43,0.012,0.054,-0.083,0.013,0.036,0.363,20.521,9.813,32.012
1747655920.44,0.011,0.050,-0.077,0.002,0.041,0.338,20.560,9.760,32.222
1747655920.45,-0.008,0.037,-0.074,-0.026,0.079,0.320,20.585,9.724,32.421
1747655920.46,-0.016,-0.004,-0.052,-0.011,0.093,0.230,20.601,9.714,32.593
1747655920.47,-0.015,-0.060,-0.025,-0.056,0.117,0.191,20.604,9.734,32.713
1747655920.48,0.038,-0.087,-0.002,-0.081,0.072,0.187,20.581,9.744,32.838
1747655920.49,0.080,-0.066,-0.005,-0.073,0.067,0.181,20.557,9.744,32.952
1747655920.50,0.082,-0.060,0.003,-0.111,0.074,0.199,20.524,9.738,33.076
1747655920.51,0.084,-0.016,-0.004,-0.116,0.101,0.224,20.480,9.739,33.216
1747655920.52,0.058,0.023,-0.023,-0.115,0.123,0.240,20.439,9.751,33.367
1747655920.53,0.044,0.020,-0.031,-0.149,0.135,0.271,20.390,9.767,33.532
1747655920.54,0.067,-0.006,-0.036,-0.186,0.105,0.291,20.324,9.770,33.718
1747655920.55,0.075,-0.088,-0.038,-0.241,0.021,0.258,20.232,9.734,33.905
1747655920.56,0.109,-0.196,-0.001,-0.323,-0.051,0.347,20.099,9.656,34.116
1747655920.57,0.209,-0.208,0.036,-0.358,-0.134,0.408,19.944,9.515,34.664
1747655920.58,0.211,-0.105,0.005,-0.395,-0.174,0.453,19.773,9.321,34.959
1747655920.59,0.170,0.003,-0.030,-0.371,-0.130,0.499,19.596,9.127,35.284
1747655920.60,0.096,0.062,-0.048,-0.352,-0.071,0.499,19.439,8.957,35.617
1747655920.61,-0.026,0.075,-0.055,-0.372,-0.008,0.499,19.280,8.825,36.224
1747655920.62,-0.081,0.004,-0.047,-0.399,0.067,0.477,19.105,8.733,36.553
1747655920.63,-0.081,-0.081,-0.017,-0.413,0.171,0.416,18.912,8.702,37.136
1747655920.64,-0.035,-0.049,0.029,-0.413,0.161,0.378,18.713,8.715,37.408
1747655920.65,-0.004,0.058,0.008,-0.431,0.101,0.421,18.509,8.703,37.961
1747655920.66,0.007,0.118,-0.063,-0.427,0.052,0.440,18.303,8.652,38.258
1747655920.67,-0.001,0.121,-0.122,-0.412,0.069,0.426,18.104,8.590,38.828
1747655920.68,-0.024,0.082,-0.096,-0.402,0.129,0.399,17.910,8.558,39.110
1747655920.69,-0.065,0.012,-0.060,-0.420,0.165,0.343,17.710,8.563,39.634
1747655920.70,-0.080,-0.031,-0.029,-0.444,0.174,0.329,17.495,8.592,39.870
1747655920.71,0.001,-0.047,-0.015,-0.469,0.105,0.325,17.266,8.602,40.104
1747655920.72,0.057,-0.006,-0.054,-0.492,0.040,0.337,17.022,8.573,40.341
1747655920.73,0.066,0.070,-0.085,-0.487,-0.040,0.413,16.776,8.498,40.868
1747655920.74,0.059,0.121,-0.136,-0.501,-0.053,0.472,16.536,8.378,41.172
1747655920.75,-0.018,0.092,-0.154,-0.517,0.050,0.462,16.284,8.285,41.498
1747655920.76,-0.099,0.028,-0.074,-0.497,0.174,0.327,16.031,8.274,41.776
1747655920.77,-0.138,0.006,-0.028,-0.468,0.189,0.155,15.779,8.332,42.224
1747655920.78,-0.136,0.006,-0.016,-0.460,0.137,0.016,15.524,8.402,42.314
1747655920.79,-0.123,0.032,-0.026,-0.437,0.009,-0.096,15.267,8.442,42.586
1747655920.80,-0.074,0.038,-0.049,-0.491,-0.049,-0.093,14.998,8.431,42.567
1747655920.81,0.010,0.004,-0.048,-0.520,-0.079,0.019,14.707,8.389,42.588
1747655920.82,0.084,-0.007,-0.070,-0.528,-0.056,0.123,14.415,8.328,42.677
1747655920.83,0.083,0.017,-0.098,-0.489,-0.024,0.144,14.138,8.274,42.802
1747655920.84,0.036,0.073,-0.083,-0.462,0.022,0.148,13.882,8.242,42.929
1747655920.85,-0.038,0.105,-0.055,-0.439,0.106,0.078,13.638,8.254,43.035
1747655920.86,-0.113,0.102,-0.044,-0.462,0.177,-0.016,13.389,8.323,43.089
1747655920.87,-0.150,0.031,-0.038,-0.530,0.298,-0.049,13.106,8.453,43.110
1747655920.88,-0.139,-0.086,-0.008,-0.585,0.393,-0.043,12.786,8.649,43.132
1747655920.89,-0.060,-0.169,-0.034,-0.620,0.364,-0.031,12.441,8.863,43.165
1747655920.90,0.020,-0.156,-0.061,-0.633,0.330,-0.019,12.083,9.051,43.209
1747655920.91,0.071,-0.040,-0.065,-0.595,0.187,-0.049,11.735,9.187,43.247
1747655920.92,0.048,0.100,-0.114,-0.585,0.083,-0.111,11.393,9.263,43.259
1747655920.93,-0.040,0.177,-0.148,-0.542,0.025,-0.267,11.061,9.301,43.203
1747655920.94,-0.136,0.171,-0.127,-0.630,0.088,-0.328,10.705,9.353,43.082
1747655920.95,-0.135,0.043,-0.057,-0.666,0.196,-0.333,10.305,9.460,42.955
1747655920.96,-0.044,-0.148,-0.008,-0.714,0.191,-0.327,9.887,9.598,42.831
1747655920.97,0.034,-0.253,-0.013,-0.779,0.165,-0.261,9.435,9.718,42.735
1747655920.98,0.106,-0.248,-0.042,-0.753,0.098,-0.231,8.981,9.804,42.673
1747655920.99,0.118,-0.155,-0.050,-0.766,0.048,-0.279,8.530,9.854,42.602
1747655921.00,0.063,-0.031,0.002,-0.789,0.030,-0.303,8.065,9.886,42.512
1747655921.01,0.012,0.035,-0.013,-0.864,0.082,-0.257,7.573,9.924,42.432
1747655921.02,0.020,0.042,-0.020,-0.904,0.183,-0.149,7.053,10.002,42.405
1747655921.03,0.068,0.012,-0.048,-0.939,0.259,-0.066,6.527,10.126,42.441
1747655921.04,0.059,-0.037,-0.071,-0.977,0.304,-0.034,5.981,10.281,42.511
1747655921.05,0.026,-0.098,-0.047,-0.976,0.277,-0.051,5.429,10.443,42.591
1747655921.06,0.022,-0.150,-0.027,-1.015,0.225,-0.113,4.862,10.581,42.649
1747655921.07,0.033,-0.165,-0.001,-1.070,0.169,-0.127,4.263,10.690,42.690
1747655921.08,0.058,-0.152,-0.014,-1.100,0.142,-0.092,3.642,10.773,42.743
1747655921.09,0.058,-0.107,-0.046,-1.130,0.159,-0.054,3.008,10.852,42.822
1747655921.10,0.032,-0.028,-0.074,-1.123,0.241,-0.037,2.369,10.961,42.920
1747655921.11,0.002,0.038,-0.085,-1.131,0.253,-0.042,1.736,11.101,43.020
1747655921.12,-0.039,0.057,-0.097,-1.155,0.236,-0.066,1.088,11.237,43.116
1747655921.13,-0.052,0.032,-0.084,-1.178,0.262,-0.113,0.426,11.377,43.197
1747655921.14,-0.012,-0.018,-0.020,-1.216,0.260,-0.141,-0.258,11.529,43.261
1747655921.15,0.042,-0.061,0.020,-1.260,0.200,-0.139,-0.968,11.662,43.324
1747655921.16,0.057,-0.087,-0.012,-1.276,0.170,-0.131,-1.693,11.767,43.395
1747655921.17,0.042,-0.074,-0.037,-1.265,0.156,-0.132,-2.419,11.864,43.471
1747655921.18,-0.001,-0.026,-0.043,-1.242,0.169,-0.143,-3.136,11.958,43.543
1747655921.19,-0.063,0.029,-0.073,-1.205,0.215,-0.181,-3.838,12.071,43.599
1747655921.20,-0.099,0.052,-0.053,-1.228,0.261,-0.222,-4.538,12.209,43.632
1747655921.21,-0.076,0.043,-0.039,-1.248,0.259,-0.235,-5.260,12.361,43.654
1747655921.22,-0.010,0.011,-0.057,-1.240,0.235,-0.232,-5.981,12.504,43.676
1747655921.23,0.034,-0.022,-0.030,-1.287,0.205,-0.228,-6.713,12.635,43.705
1747655921.24,0.056,-0.041,-0.033,-1.307,0.125,-0.220,-7.465,12.736,43.744
1747655921.25,0.040,-0.045,-0.053,-1.311,0.097,-0.207,-8.221,12.802,43.791
1747655921.26,0.007,-0.040,-0.009,-1.310,0.121,-0.195,-8.976,12.873,43.847
1747655921.27,-0.003,-0.023,0.025,-1.291,0.153,-0.214,-9.727,12.961,43.903
1747655921.28,-0.026,0.011,0.005,-1.262,0.213,-0.256,-10.467,13.070,43.938
1747655921.29,-0.061,0.047,-0.011,-1.260,0.265,-0.288,-11.203,13.211,43.949
1747655921.30,-0.091,0.064,-0.070,-1.229,0.286,-0.307,-11.935,13.366,43.948
1747655921.31,-0.163,0.049,-0.105,-1.209,0.373,-0.340,-12.654,13.548,43.931
1747655921.32,-0.215,0.004,-0.070,-1.207,0.439,-0.379,-13.372,13.775,43.894
1747655921.33,-0.200,-0.062,-0.043,-1.211,0.428,-0.420,-14.097,14.010,43.837
1747655921.34,-0.154,-0.125,-0.040,-1.213,0.400,-0.428,-14.828,14.231,43.768
1747655921.35,-0.059,-0.167,-0.022,-1.197,0.337,-0.416,-15.553,14.424,43.702
1747655921.36,0.020,-0.168,-0.000,-1.254,0.295,-0.415,-16.290,14.588,43.646
1747655921.37,0.043,-0.127,0.009,-1.217,0.298,-0.423,-17.038,14.742,43.593
1747655921.38,0.014,-0.080,0.004,-1.177,0.282,-0.429,-17.757,14.886,43.529
1747655921.39,-0.070,-0.024,0.026,-1.200,0.372,-0.428,-18.478,15.050,43.465
1747655921.40,-0.134,0.017,-0.020,-1.158,0.492,-0.424,-19.192,15.279,43.403
1747655921.41,-0.157,0.020,-0.041,-1.165,0.578,-0.443,-19.896,15.563,43.339
1747655921.42,-0.157,0.013,-0.025,-1.172,0.635,-0.491,-20.611,15.884,43.258
1747655921.43,-0.108,-0.002,-0.035,-1.198,0.617,-0.510,-21.340,16.211,43.162
1747655921.44,-0.034,-0.031,-0.036,-1.189,0.517,-0.466,-22.074,16.504,43.079
1747655921.45,0.029,-0.071,0.003,-1.212,0.442,-0.395,-22.800,16.759,43.036
1747655921.46,0.114,-0.106,0.033,-1.225,0.410,-0.343,-23.528,17.001,43.037
1747655921.47,0.178,-0.122,-0.001,-1.239,0.354,-0.317,-24.255,17.234,43.067
1747655921.48,0.165,-0.111,-0.001,-1.292,0.293,-0.307,-24.996,17.438,43.116
1747655921.49,0.097,-0.080,0.026,-1.334,0.243,-0.295,-25.765,17.622,43.186
1747655921.50,0.037,-0.047,0.039,-1.351,0.248,-0.295,-26.546,17.796,43.268
1747655921.51,-0.003,-0.011,0.038,-1.367,0.245,-0.312,-27.338,17.978,43.351
1747655921.52,-0.014,0.034,0.022,-1.356,0.173,-0.315,-28.134,18.134,43.432
1747655921.53,-0.023,0.079,-0.032,-1.342,0.202,-0.309,-28.921,18.276,43.512
1747655921.54,0.002,0.115,-0.016,-1.338,0.193,-0.296,-29.702,18.437,43.601
1747655921.55,0.032,0.140,-0.003,-1.315,0.099,-0.281,-30.474,18.568,43.697
1747655921.56,0.025,0.137,-0.044,-1.287,0.077,-0.264,-31.227,18.669,43.803
1747655921.57,0.037,0.101,-0.026,-1.295,0.077,-0.252,-31.971,18.775,43.916
1747655921.58,0.062,0.046,-0.023,-1.329,0.022,-0.258,-32.727,18.869,44.039
1747655921.59,0.055,-0.020,-0.052,-1.383,-0.009,-0.276,-33.508,18.939,44.166
1747655921.60,0.016,-0.082,-0.028,-1.434,0.056,-0.295,-34.325,19.025,44.295
1747655921.61,-0.028,-0.126,0.036,-1.430,0.060,-0.301,-35.154,19.135,44.424
1747655921.62,-0.073,-0.140,0.028,-1.451,0.056,-0.272,-35.984,19.248,44.566
1747655921.63,-0.086,-0.126,-0.002,-1.468,0.078,-0.242,-36.821,19.387,44.737
1747655921.64,-0.055,-0.088,-0.003,-1.443,0.068,-0.223,-37.650,19.546,44.928
1747655921.65,-0.026,-0.030,0.009,-1.420,0.029,-0.220,-38.462,19.697,45.126
1747655921.66,-0.008,0.034,0.012,-1.386,-0.009,-0.234,-39.260,19.823,45.318
1747655921.67,0.005,0.069,-0.017,-1.352,-0.058,-0.254,-40.042,19.917,45.493
1747655921.68,0.007,0.061,-0.055,-1.328,-0.090,-0.292,-40.812,19.971,45.644
1747655921.69,-0.005,0.019,-0.081,-1.340,-0.127,-0.333,-41.589,19.991,45.766
1747655921.70,-0.025,-0.046,-0.068,-1.335,-0.182,-0.363,-42.375,19.969,45.864
1747655921.71,-0.062,-0.104,-0.047,-1.319,-0.182,-0.348,-43.157,19.924,45.955
1747655921.72,-0.109,-0.115,-0.028,-1.323,-0.113,-0.297,-43.929,19.917,46.069
1747655921.73,-0.127,-0.100,0.006,-1.328,-0.037,-0.242,-44.694,19.987,46.228
1747655921.74,-0.125,-0.067,0.017,-1.314,0.005,-0.210,-45.447,20.119,46.424
1747655921.75,-0.121,-0.021,0.022,-1.272,0.050,-0.205,-46.182,20.281,46.632
1747655921.76,-0.095,0.027,0.033,-1.220,0.122,-0.222,-46.891,20.473,46.828
1747655921.77,-0.063,0.066,0.044,-1.186,0.089,-0.243,-47.582,20.662,47.000
1747655921.78,-0.058,0.072,0.007,-1.147,0.045,-0.255,-48.256,20.813,47.154
1747655921.79,-0.056,0.046,-0.045,-1.134,0.059,-0.283,-48.918,20.940,47.287
1747655921.80,-0.043,0.004,-0.048,-1.124,0.113,-0.317,-49.582,21.073,47.397
1747655921.81,-0.030,-0.043,-0.026,-1.096,0.121,-0.332,-50.239,21.209,47.483
1747655921.82,-0.028,-0.079,-0.039,-1.102,0.099,-0.323,-50.890,21.335,47.565
1747655921.83,-0.023,-0.095,-0.049,-1.143,0.112,-0.320,-51.554,21.473,47.666
1747655921.84,-0.007,-0.095,-0.028,-1.169,0.120,-0.332,-52.236,21.630,47.777
1747655921.85,0.011,-0.084,-0.016,-1.197,0.086,-0.339,-52.935,21.782,47.896
1747655921.86,0.022,-0.062,-0.017,-1.196,0.098,-0.322,-53.640,21.940,48.030
1747655921.87,0.042,-0.037,0.015,-1.171,0.066,-0.329,-54.337,22.103,48.170
1747655921.88,0.032,-0.007,0.013,-1.121,0.023,-0.348,-55.017,22.222,48.287
1747655921.89,-0.013,0.014,-0.010,-1.093,0.068,-0.346,-55.674,22.323,48.382
1747655921.90,-0.035,0.012,-0.001,-1.116,0.132,-0.347,-56.333,22.467,48.483
1747655921.91,-0.052,-0.002,0.003,-1.111,0.132,-0.347,-56.997,22.635,48.593
1747655921.92,-0.091,-0.014,-0.034,-1.132,0.178,-0.329,-57.659,22.825,48.719
1747655921.93,-0.099,-0.020,-0.048,-1.190,0.303,-0.329,-58.344,23.099,48.881
1747655921.94,-0.067,-0.021,0.005,-1.153,0.380,-0.351,-59.037,23.443,49.050
1747655921.95,-0.027,-0.015,0.026,-1.086,0.330,-0.372,-59.705,23.759,49.180
1747655921.96,-0.012,0.003,-0.003,-1.069,0.266,-0.385,-60.354,24.016,49.280
1747655921.97,-0.011,0.016,0.008,-1.080,0.219,-0.393,-61.004,24.242,49.379
1747655921.98,0.005,0.014,0.031,-1.076,0.203,-0.401,-61.660,24.448,49.479
1747655921.99,0.023,-0.004,0.013,-1.074,0.272,-0.396,-62.311,24.667,49.578
1747655922.00,0.050,-0.021,0.030,-1.130,0.306,-0.382,-62.977,24.957,49.713
1747655922.01,0.055,-0.025,0.046,-1.157,0.259,-0.386,-63.661,25.277,49.889
1747655922.02,0.027,-0.017,-0.000,-1.169,0.174,-0.400,-64.357,25.570,50.077
1747655922.03,-0.036,0.003,0.012,-1.178,0.167,-0.392,-65.058,25.846,50.278
1747655922.04,-0.073,0.024,0.030,-1.197,0.222,-0.388,-65.766,26.173,50.515
1747655922.05,-0.058,0.044,0.035,-1.159,0.312,-0.406,-66.470,26.542,50.752
1747655922.06,-0.046,0.055,0.037,-1.151,0.360,-0.421,-67.166,26.937,50.969
1747655922.07,-0.025,0.034,0.034,-1.123,0.336,-0.418,-67.852,27.336,51.184
1747655922.08,0.006,0.002,-0.014,-1.088,0.334,-0.424,-68.522,27.723,51.397
1747655922.09,0.038,-0.034,-0.027,-1.087,0.351,-0.439,-69.186,28.108,51.600
1747655922.10,0.046,-0.061,0.017,-1.089,0.356,-0.456,-69.856,28.495,51.795
1747655922.11,0.041,-0.081,0.032,-1.054,0.360,-0.426,-70.515,28.895,51.807
1747655922.12,0.053,-0.084,-0.006,-1.094,0.357,-0.365,-71.155,29.386,52.107
1747655922.13,0.074,-0.067,-0.020,-1.204,0.313,-0.327,-71.824,30.041,52.390
1747655922.14,0.058,-0.038,0.022,-1.184,0.302,-0.315,-72.509,30.807,53.014
1747655922.15,0.049,-0.009,-0.010,-0.996,0.327,-0.281,-73.125,31.543,53.390
1747655922.16,0.070,0.017,-0.136,-1.081,0.340,-0.296,-73.711,32.330,54.006
1747655922.17,0.088,0.014,-0.036,-1.118,0.159,-0.377,-74.349,33.111,54.462
1747655922.18,-0.004,0.006,0.042,-0.987,-0.014,-0.428,-74.981,33.649,54.978
1747655922.19,-0.060,-0.040,-0.019,-1.029,0.061,-0.394,-75.581,34.101,55.228
1747655922.20,-0.005,-0.075,-0.034,-1.164,0.303,-0.353,-76.222,34.939,55.977
1747655922.21,0.033,-0.080,0.084,-1.158,0.236,-0.384,-76.887,36.024,56.823
1747655922.22,-0.020,-0.055,-0.014,-1.068,0.086,-0.458,-77.541,36.920,57.653
1747655922.23,-0.071,-0.024,-0.157,-1.016,0.118,-0.475,-78.178,37.650,58.344
1747655922.24,-0.008,-0.038,-0.111,-0.967,0.231,-0.411,-78.782,38.480,59.090
1747655922.25,0.092,-0.047,-0.039,-0.928,0.291,-0.336,-79.336,39.533,60.005
1747655922.26,0.134,-0.026,-0.024,-0.978,0.192,-0.269,-79.861,40.862,61.211
1747655922.27,0.103,-0.011,0.009,-1.084,0.081,-0.243,-80.396,42.564,62.864
1747655922.28,0.044,-0.003,0.022,-1.077,0.078,-0.294,-80.951,44.553,64.838
1747655922.29,-0.004,0.003,-0.000,-1.028,0.179,-0.369,-81.506,46.530,66.766
1747655922.30,-0.023,-0.032,-0.006,-0.997,0.232,-0.394,-82.059,48.580,68.718
1747655922.31,-0.017,-0.089,0.015,-0.929,0.251,-0.383,-82.584,50.767,70.785
1747655922.32,0.002,-0.112,-0.017,-0.886,0.239,-0.374,-83.073,53.085,72.979
1747655922.33,0.023,-0.069,-0.050,-0.852,0.180,-0.356,-83.533,55.603,75.392
1747655922.34,0.033,0.008,-0.061,-0.846,0.166,-0.341,-83.962,58.406,78.116
1747655922.35,0.042,0.072,-0.081,-0.870,0.247,-0.346,-84.377,61.732,81.343
1747655922.36,0.042,0.095,-0.050,-0.848,0.283,-0.343,-84.773,65.622,85.095
1747655922.37,0.021,0.064,-0.034,-0.784,0.307,-0.312,-85.125,69.867,89.188
1747655922.38,-0.002,-0.011,-0.036,-0.746,0.359,-0.280,-85.419,74.445,93.593
1747655922.39,-0.017,-0.054,-0.020,-0.743,0.463,-0.239,-85.660,79.557,98.489
1747655922.40,-0.033,-0.050,0.003,-0.777,0.596,-0.198,-85.840,85.415,104.059
1747655922.41,-0.053,-0.039,0.053,-0.828,0.710,-0.198,-85.961,92.147,110.434
1747655922.42,-0.104,-0.050,0.088,-0.857,0.764,-0.258,-86.039,99.638,117.518
1747655922.43,-0.151,-0.057,0.088,-0.828,0.743,-0.322,-86.087,107.449,124.915
1747655922.44,-0.136,-0.054,0.038,-0.787,0.758,-0.332,-86.097,115.161,132.218
1747655922.45,-0.035,-0.036,-0.014,-0.791,0.743,-0.304,-86.038,122.635,139.275
1747655922.46,0.090,0.012,-0.032,-0.719,0.682,-0.270,-85.916,129.403,145.650
1747655922.47,0.173,0.045,-0.059,-0.630,0.596,-0.232,-85.764,135.018,150.919
1747655922.48,0.204,0.055,-0.082,-0.533,0.580,-0.203,-85.604,139.545,155.118
1747655922.49,0.196,0.042,-0.068,-0.442,0.456,-0.186,-85.455,143.157,158.443
1747655922.50,0.137,0.011,-0.070,-0.369,0.335,-0.189,-85.328,146.118,161.188
1747655922.51,0.053,-0.020,-0.066,-0.308,0.220,-0.191,-85.223,148.629,163.549
1747655922.52,-0.026,-0.037,-0.031,-0.280,0.165,-0.201,-85.137,150.878,165.698
1747655922.53,-0.061,-0.034,-0.004,-0.278,0.131,-0.193,-85.049,153.008,167.750
1747655922.54,-0.056,-0.016,0.008,-0.265,0.107,-0.166,-84.955,154.912,169.594
1747655922.55,-0.036,0.007,-0.004,-0.247,0.142,-0.137,-84.857,156.535,171.155
1747655922.56,-0.002,0.025,0.000,-0.244,0.224,-0.101,-84.754,157.936,172.456
1747655922.57,0.036,0.026,0.031,-0.252,0.279,-0.059,-84.638,159.085,173.465
1747655922.58,0.048,0.022,0.042,-0.263,0.307,-0.040,-84.509,160.060,174.277
1747655922.59,0.030,0.012,0.043,-0.251,0.322,-0.045,-84.378,160.979,175.021
1747655922.60,0.000,0.000,0.036,-0.237,0.362,-0.056,-84.255,161.890,175.740
1747655922.61,-0.033,-0.003,0.029,-0.230,0.493,-0.048,-84.139,162.808,176.421
1747655922.62,-0.065,-0.027,0.039,-0.200,0.544,-0.023,-84.025,163.634,176.948
1747655922.63,-0.102,-0.009,0.064,-0.177,0.445,-0.037,-83.927,164.338,177.366
1747655922.64,-0.165,-0.009,0.052,-0.207,0.307,-0.093,-83.833,165.148,177.968
1747655922.65,-0.191,-0.009,0.037,-0.248,0.236,-0.134,-83.724,166.186,178.855
1747655922.66,-0.154,-0.019,0.024,-0.258,0.222,-0.165,-83.603,167.368,179.916
1747655922.67,-0.086,-0.028,0.008,-0.254,0.260,-0.153,-83.478,168.568,-179.014
1747655922.68,0.006,-0.013,0.003,-0.207,0.299,-0.084,-83.362,169.498,-178.238
1747655922.69,0.064,-0.099,0.002,-0.215,0.319,-0.118,-83.254,170.343,-177.567
1747655922.70,0.090,-0.155,0.017,-0.215,0.273,-0.089,-83.141,171.193,-176.884
1747655922.71,0.101,-0.114,0.041,-0.173,0.180,-0.023,-83.035,171.729,-176.475
1747655922.72,0.099,-0.083,0.037,-0.126,0.095,0.030,-82.950,171.876,-176.407
1747655922.73,0.075,-0.030,0.043,-0.055,0.027,0.036,-82.895,171.810,-176.509
1747655922.74,0.032,0.044,0.024,0.013,-0.080,-0.018,-82.884,171.738,-176.567
1747655922.75,-0.014,0.148,-0.014,0.080,-0.174,-0.047,-82.912,171.812,-176.419
1747655922.76,-0.042,0.249,-0.028,0.147,-0.153,-0.010,-82.979,171.769,-176.361
1747655922.77,-0.059,0.100,-0.035,0.153,0.006,0.018,-83.066,171.589,-176.498
1747655922.78,-0.037,-0.005,-0.016,0.067,0.124,0.041,-83.127,171.404,-176.723
1747655922.79,-0.012,-0.022,0.002,0.005,0.196,0.051,-83.142,171.258,-176.963
1747655922.80,0.012,-0.021,0.012,0.006,0.194,0.057,-83.138,171.108,-177.230
1747655922.81,0.034,-0.025,0.017,0.022,0.094,0.070,-83.141,170.884,-177.541
1747655922.82,0.044,-0.028,0.012,0.049,0.013,0.079,-83.153,170.526,-177.930
1747655922.83,0.041,-0.021,0.020,0.075,-0.094,0.071,-83.180,170.097,-178.342
1747655922.84,0.014,0.002,0.018,0.121,-0.181,0.053,-83.229,169.639,-178.722
1747655922.85,-0.026,0.027,-0.028,0.144,-0.175,0.038,-83.301,169.207,-179.052
1747655922.86,-0.046,0.036,-0.045,0.128,-0.095,0.025,-83.376,168.855,-179.326
1747655922.87,-0.051,0.023,-0.025,0.101,-0.003,0.021,-83.437,168.608,-179.548
1747655922.88,-0.033,0.002,-0.000,0.069,0.045,0.036,-83.483,168.398,-179.772
1747655922.89,0.006,-0.012,0.002,0.048,0.086,0.052,-83.509,168.153,179.942
1747655922.90,0.045,-0.019,0.012,0.032,0.065,0.060,-83.525,167.875,179.616
1747655922.91,0.058,-0.018,0.021,0.014,-0.020,0.053,-83.529,167.566,179.293
1747655922.92,0.041,-0.014,0.009,0.024,-0.083,0.032,-83.531,167.305,179.062
1747655922.93,0.024,-0.012,-0.003,0.053,-0.117,0.014,-83.552,167.122,178.935
1747655922.94,0.020,-0.011,-0.020,0.084,-0.105,0.014,-83.595,166.952,178.829
1747655922.95,0.024,-0.004,-0.027,0.102,-0.075,0.021,-83.650,166.770,178.695
1747655922.96,0.026,0.011,-0.014,0.127,-0.069,0.032,-83.710,166.504,178.467
1747655922.97,0.011,0.019,-0.017,0.138,-0.126,0.036,-83.780,166.106,178.120
1747655922.98,-0.018,0.021,-0.027,0.125,-0.231,0.034,-83.844,165.612,177.728
1747655922.99,-0.050,0.014,-0.039,0.129,-0.264,0.028,-83.904,165.082,177.341
1747655923.00,-0.056,0.000,-0.038,0.142,-0.227,0.016,-83.972,164.598,176.999
1747655923.01,-0.045,-0.005,-0.024,0.162,-0.134,0.017,-84.052,164.175,176.678
1747655923.02,-0.024,-0.000,-0.010,0.167,-0.026,0.025,-84.140,163.740,176.287
1747655923.03,-0.002,0.005,-0.005,0.147,0.046,0.051,-84.222,163.264,175.801
1747655923.04,0.012,0.003,0.022,0.143,0.042,0.079,-84.290,162.671,175.177
1747655923.05,0.008,-0.008,0.050,0.120,-0.036,0.089,-84.347,161.962,174.460
1747655923.06,-0.009,-0.015,0.060,0.110,-0.146,0.072,-84.397,161.281,173.829
1747655923.07,-0.019,-0.017,0.053,0.123,-0.226,0.047,-84.457,160.713,173.365
1747655923.08,-0.000,-0.017,0.046,0.151,-0.225,0.053,-84.530,160.124,172.906
1747655923.09,0.029,-0.015,0.045,0.162,-0.123,0.068,-84.606,159.433,172.313
1747655923.10,0.034,-0.010,0.081,0.176,-0.042,0.057,-84.684,158.693,171.613
1747655923.11,-0.015,-0.003,0.100,0.213,-0.064,0.018,-84.777,158.011,170.956
1747655923.12,-0.091,0.007,0.053,0.233,-0.106,-0.009,-84.893,157.411,170.404
1747655923.13,-0.132,0.013,0.003,0.215,-0.087,-0.006,-85.009,156.865,169.912
1747655923.14,-0.115,0.007,0.000,0.210,-0.038,0.013,-85.115,156.290,169.372
1747655923.14,-0.070,-0.009,0.006,0.229,0.008,0.036,-85.220,155.569,168.656
1747655923.15,-0.015,-0.026,0.003,0.255,0.030,0.070,-85.330,154.555,167.626
1747655923.16,0.040,-0.025,-0.004,0.281,-0.031,0.097,-85.443,153.189,166.253
1747655923.18,0.069,0.010,-0.007,0.314,-0.117,0.118,-85.561,151.465,164.568
1747655923.18,0.058,0.047,-0.006,0.345,-0.129,0.124,-85.687,149.434,162.603
1747655923.19,0.025,0.052,0.016,0.377,-0.126,0.114,-85.826,147.172,160.409
1747655923.21,-0.018,0.027,0.024,0.387,-0.129,0.095,-85.977,144.762,158.065
1747655923.21,-0.045,-0.011,0.023,0.400,-0.140,0.075,-86.129,142.177,155.550
1747655923.23,-0.037,-0.033,0.023,0.424,-0.135,0.060,-86.287,139.390,152.838
1747655923.23,-0.016,-0.039,0.022,0.457,-0.107,0.052,-86.451,136.308,149.817
1747655923.24,0.019,-0.025,0.044,0.507,-0.140,0.069,-86.620,132.604,146.174
1747655923.25,0.033,0.000,0.051,0.550,-0.216,0.104,-86.779,127.952,141.616
1747655923.26,0.027,0.004,0.059,0.588,-0.295,0.130,-86.911,122.296,136.097
1747655923.27,0.004,-0.007,0.063,0.619,-0.408,0.137,-87.010,115.746,129.739
1747655923.28,-0.032,-0.008,0.027,0.677,-0.476,0.121,-87.080,108.282,122.520
1747655923.29,-0.054,0.004,-0.021,0.687,-0.458,0.113,-87.113,100.198,114.695
1747655923.30,-0.051,0.016,-0.009,0.687,-0.411,0.122,-87.088,92.140,106.874
1747655923.31,-0.040,0.009,0.047,0.751,-0.364,0.145,-86.998,84.035,98.981
1747655923.32,-0.039,-0.006,0.046,0.790,-0.333,0.172,-86.831,76.039,91.172
1747655923.33,-0.038,-0.019,0.036,0.789,-0.323,0.187,-86.596,68.890,84.200
1747655923.34,-0.046,-0.024,0.034,0.828,-0.291,0.180,-86.312,62.663,78.136
1747655923.35,-0.040,-0.024,0.032,0.898,-0.254,0.188,-85.973,56.959,72.576
1747655923.36,-0.013,-0.010,0.021,0.952,-0.201,0.212,-85.573,51.911,67.643
1747655923.37,0.019,0.001,0.057,0.983,-0.226,0.237,-85.116,47.618,63.454
1747655923.38,0.028,0.001,0.065,1.017,-0.328,0.242,-84.619,43.992,59.969
1747655923.39,-0.001,0.003,0.048,1.078,-0.465,0.216,-84.088,40.661,56.852
1747655923.40,-0.043,0.009,0.005,1.097,-0.357,0.182,-83.534,37.596,54.018
1747655923.41,-0.043,0.008,0.007,1.128,-0.101,0.181,-82.961,34.986,51.117
1747655923.42,0.003,-0.003,0.079,1.162,-0.072,0.204,-82.359,32.822,48.978
1747655923.43,-0.006,-0.008,0.045,1.230,-0.102,0.237,-81.713,30.961,46.745
1747655923.44,-0.049,-0.007,-0.014,1.302,-0.150,0.252,-81.017,29.296,45.132
1747655923.45,-0.076,0.004,0.010,1.337,-0.183,0.237,-80.286,27.758,43.314
1747655923.46,-0.103,0.024,0.010,1.364,-0.071,0.221,-79.540,26.362,41.974
1747655923.47,-0.106,0.021,0.063,1.427,0.100,0.220,-78.768,25.155,40.395
1747655923.48,-0.086,0.006,0.111,1.445,0.205,0.242,-77.965,24.161,39.289
