Time,AccX,AccY,AccZ,GyroX,GyroY,GyroZ,Pitch,Roll,Yaw,Altitude
1741962933.65,-0.027,-0.031,-0.022,-0.175,-0.167,0.033,31.79,13.68,150.99,0.00
1741962933.67,-0.018,-0.005,-0.046,-0.075,-0.062,-0.027,31.64,13.54,151.02,0.00
1741962933.69,0.006,0.001,-0.037,0.054,-0.022,0.028,31.63,13.51,151.02,0.00
1741962933.71,0.010,-0.000,-0.004,0.092,-0.041,0.039,31.73,13.46,151.04,0.00
1741962933.73,-0.003,-0.014,0.030,0.023,-0.077,-0.000,31.81,13.39,151.05,0.00
1741962933.75,0.002,-0.013,0.025,-0.053,-0.116,-0.004,31.78,13.27,151.05,0.00
1741962933.77,0.010,0.001,-0.007,-0.089,-0.111,-0.016,31.70,13.13,151.06,0.00
1741962933.79,0.011,0.012,-0.031,-0.074,0.013,-0.010,31.60,13.07,151.07,0.00
1741962933.81,0.012,0.011,-0.033,-0.023,0.050,0.018,31.55,13.11,151.08,0.00
1741962933.83,0.012,-0.005,-0.017,0.038,-0.046,-0.004,31.56,13.12,151.10,0.00
1741962933.85,0.013,-0.004,-0.002,0.052,-0.120,-0.033,31.62,13.04,151.05,0.00
1741962933.87,0.015,0.005,0.005,0.009,-0.125,-0.028,31.64,12.92,151.00,0.00
1741962933.89,0.021,0.007,-0.010,-0.067,-0.113,0.003,31.59,12.79,150.99,0.00
1741962933.91,0.008,0.009,-0.018,-0.071,-0.072,0.024,31.51,12.68,151.03,0.00
1741962933.93,0.004,0.004,-0.023,0.003,-0.151,-0.018,31.47,12.55,151.05,0.00
1741962933.95,0.002,-0.003,0.011,0.042,-0.348,-0.084,31.49,12.33,150.98,0.00
1741962933.97,0.005,-0.013,0.072,-0.040,-0.702,-0.180,31.48,11.84,150.80,0.00
1741962933.99,0.032,-0.003,0.132,-0.313,-1.145,-0.196,31.25,10.91,150.57,0.00
1741962934.01,0.126,0.021,0.191,-0.788,-1.400,0.084,30.62,9.44,150.59,0.00
1741962934.03,0.062,-0.007,0.108,-1.107,-1.527,0.305,29.52,7.52,151.06,0.00
1741962934.05,-0.005,0.017,-0.048,-0.769,-1.385,0.257,28.46,5.52,151.61,0.00
1741962934.07,0.035,-0.027,-0.100,-0.100,-1.003,0.202,27.97,3.99,151.94,0.00
1741962934.09,0.055,-0.021,-0.079,0.505,-0.553,0.159,28.24,2.98,152.08,0.00
1741962934.11,-0.010,0.025,-0.022,0.770,-0.072,0.176,29.01,2.59,152.18,0.00
1741962934.13,-0.069,0.071,-0.008,0.651,-0.113,0.172,29.86,2.40,152.32,0.00
1741962934.15,-0.113,0.054,0.042,0.374,0.023,0.179,30.44,2.24,152.45,0.00
1741962934.17,-0.107,0.064,-0.019,0.488,0.072,0.177,30.90,2.20,152.61,0.00
1741962934.19,-0.153,0.057,-0.109,0.894,0.303,0.105,31.69,2.32,152.71,0.00
1741962934.21,-0.089,0.031,-0.114,1.216,0.413,0.016,32.91,2.68,152.66,0.00
1741962934.23,-0.039,0.003,-0.047,1.285,0.475,-0.043,34.37,3.26,152.53,0.00
1741962934.25,-0.061,0.001,-0.021,0.992,0.144,-0.248,35.68,3.80,152.21,0.00
1741962934.27,-0.079,0.027,0.077,0.650,0.234,-0.385,36.58,4.30,151.63,0.00
1741962934.29,-0.047,0.044,0.063,0.347,0.146,-0.318,37.11,4.91,151.00,0.00
1741962934.31,0.021,0.081,0.080,0.042,0.231,0.107,37.32,5.18,150.76,0.00
1741962934.33,-0.059,0.073,0.017,-0.215,0.929,0.622,37.24,5.48,151.27,0.00
1741962934.35,-0.162,0.066,-0.012,-0.039,1.685,0.937,37.14,6.31,152.41,0.00
1741962934.37,-0.101,0.128,0.041,0.490,2.580,1.247,37.54,7.80,153.87,0.00
1741962934.39,0.015,-0.023,0.068,0.669,3.967,1.585,38.51,10.41,155.77,0.00
1741962934.41,-0.153,0.004,-0.017,0.264,5.016,0.993,39.37,14.26,157.66,0.00
1741962934.43,-0.294,0.108,-0.131,-0.091,3.427,0.332,39.72,18.85,158.60,0.00
1741962934.45,0.019,0.207,0.270,-0.807,3.527,0.018,39.27,22.37,159.06,0.00
1741962934.47,0.284,0.029,0.160,-1.813,3.251,0.409,38.06,25.56,160.27,0.00
1741962934.49,0.120,0.189,0.163,-2.467,2.264,0.730,36.09,27.74,162.52,0.00
1741962934.51,-0.051,-0.038,0.333,-1.460,-3.333,1.807,34.88,24.59,165.45,0.00
1741962934.53,-0.106,0.339,0.461,-2.466,-2.365,1.910,33.53,19.52,168.99,0.00
1741962934.55,-0.161,0.313,0.329,-2.566,-1.837,1.739,31.37,15.10,172.54,0.00
1741962934.57,-0.175,0.408,0.316,-2.215,-0.722,1.283,29.10,12.33,175.28,0.00
1741962934.59,-0.295,0.419,0.530,-2.176,-0.188,0.929,26.97,10.98,177.39,0.00
1741962934.61,-0.368,0.588,0.631,-2.532,-0.121,0.428,24.48,10.20,178.87,0.00
1741962934.63,-0.296,0.706,0.752,-3.057,-0.015,0.043,21.43,9.76,179.86,0.00
1741962934.65,-0.223,0.747,0.827,-4.308,0.155,-0.343,17.29,9.63,-179.48,0.00
1741962934.67,-0.103,0.720,0.664,-5.416,0.681,-0.569,11.68,9.97,-178.95,0.00
1741962934.69,0.010,0.727,0.214,-5.753,1.011,-0.861,5.17,10.91,-178.51,0.00
1741962934.71,0.211,0.624,-0.175,-5.238,0.927,-0.736,-1.23,12.01,-178.12,0.00
1741962934.73,0.311,0.542,-0.375,-4.442,1.078,-0.393,-6.78,13.16,-177.47,0.00
1741962934.75,0.298,0.462,-0.391,-3.641,1.736,-0.386,-11.34,14.85,-176.69,0.00
1741962934.77,0.221,0.424,-0.289,-3.483,2.273,-0.793,-15.36,17.27,-176.13,0.00
1741962934.79,0.182,0.360,-0.241,-3.610,2.497,-1.233,-19.60,20.09,-175.85,0.00
1741962934.81,0.204,0.361,-0.357,-3.476,2.363,-1.478,-23.95,22.91,-175.76,0.00
1741962934.83,0.414,0.323,-0.499,-3.318,1.883,-1.388,-28.19,25.39,-175.64,0.00
1741962934.85,0.497,0.270,-0.563,-2.972,1.855,-1.109,-32.03,27.64,-175.18,0.00
1741962934.87,0.375,0.275,-0.477,-2.857,2.247,-1.262,-35.56,30.30,-174.62,0.00
1741962934.89,0.481,0.224,-0.462,-3.001,2.653,-1.346,-39.20,33.47,-173.97,0.00
1741962934.91,0.657,0.151,-0.638,-2.819,2.697,-1.079,-42.77,37.26,-172.91,0.00
1741962934.93,0.900,0.112,-0.714,-2.437,2.345,-0.262,-45.60,41.34,-171.12,0.00
1741962934.95,0.914,0.013,-0.709,-2.129,2.176,0.552,-47.34,45.95,-168.29,0.00
1741962934.97,0.740,-0.161,-0.802,-1.642,2.141,0.949,-48.13,50.83,-164.98,0.00
1741962934.99,0.544,-0.242,-0.816,-1.021,2.179,1.141,-48.08,55.48,-162.04,0.00
1741962935.01,0.504,-0.283,-0.792,-0.349,2.188,1.317,-47.32,59.51,-159.94,0.00
1741962935.03,0.511,-0.234,-0.629,0.149,2.319,1.599,-45.91,62.96,-158.68,0.00
1741962935.05,0.405,-0.210,-0.342,0.029,2.355,1.827,-44.06,66.40,-157.69,0.00
1741962935.07,0.150,-0.257,-0.270,-0.270,1.671,1.924,-42.12,69.64,-156.38,0.00
1741962935.09,-0.074,-0.277,-0.324,-0.253,1.188,1.847,-40.17,72.10,-155.02,0.00
1741962935.11,-0.141,-0.266,-0.277,-0.043,1.206,1.536,-38.35,74.02,-154.08,0.00
1741962935.13,-0.082,-0.188,-0.171,-0.135,1.234,1.308,-36.82,75.84,-153.49,0.00
1741962935.15,-0.234,-0.127,-0.147,-0.117,1.269,1.041,-35.54,77.62,-152.87,0.00
1741962935.17,-0.460,-0.086,-0.170,0.013,1.014,0.637,-34.62,79.14,-152.57,0.00
1741962935.19,-0.420,-0.151,-0.278,0.444,0.618,0.579,-33.93,80.02,-152.74,0.00
1741962935.21,-0.258,-0.168,-0.037,0.355,0.353,0.650,-33.17,80.20,-153.05,0.00
1741962935.23,-0.016,-0.182,-0.003,-0.161,-0.042,0.673,-32.30,80.33,-153.14,0.00
1741962935.25,0.045,0.004,0.033,-0.413,0.190,0.513,-31.73,80.67,-152.58,0.00
1741962935.27,0.121,0.091,0.065,-0.239,0.639,0.382,-31.26,81.46,-152.10,0.00
1741962935.29,0.125,0.099,0.261,-0.842,0.175,0.453,-30.90,82.38,-151.38,0.00
1741962935.31,0.012,0.087,0.328,-1.564,-0.450,0.457,-30.53,83.07,-149.66,0.00
1741962935.33,-0.163,0.009,0.193,-1.774,-1.069,0.173,-30.38,83.37,-147.40,0.00
1741962935.35,-0.284,-0.061,0.121,-1.951,-1.789,-0.114,-30.61,83.00,-144.94,0.00
1741962935.37,-0.304,-0.028,0.040,-2.147,-2.393,-0.305,-31.18,81.91,-142.24,0.00
1741962935.39,-0.231,0.034,-0.217,-1.732,-2.329,-0.417,-31.90,80.50,-139.67,0.00
1741962935.41,-0.165,0.080,-0.320,-1.008,-1.691,-0.787,-32.83,79.12,-137.99,0.00
1741962935.43,-0.108,0.127,-0.168,-0.598,-1.483,-1.069,-34.08,77.82,-137.23,0.00
1741962935.45,-0.037,0.208,0.050,-0.868,-1.695,-0.992,-35.43,76.32,-136.63,0.00
1741962935.47,0.049,0.194,0.160,-1.091,-1.423,-0.818,-36.73,75.03,-135.58,0.00
1741962935.49,0.107,0.339,0.185,-0.922,-0.631,-1.201,-38.10,74.53,-134.54,0.00
1741962935.51,0.315,0.207,0.190,-0.995,-0.649,-1.244,-39.80,74.36,-133.70,0.00
1741962935.53,0.283,0.068,0.140,-1.122,-0.403,-1.053,-41.37,74.43,-132.62,0.00
1741962935.55,0.170,0.108,-0.061,-1.061,-0.207,-0.698,-42.70,74.96,-131.34,0.00
1741962935.57,0.125,0.229,-0.153,-0.585,0.141,-0.626,-43.65,75.61,-130.32,0.00
1741962935.59,0.035,0.217,-0.003,-0.395,0.665,-0.966,-44.63,76.38,-129.94,0.00
1741962935.61,0.146,0.135,-0.028,-0.545,1.024,-1.128,-45.96,77.50,-129.60,0.00
1741962935.63,0.224,0.042,-0.013,-0.914,1.421,-1.050,-47.35,79.60,-128.79,0.00
1741962935.65,0.189,0.028,-0.023,-0.982,0.963,-0.829,-48.53,82.20,-127.34,0.00
1741962935.67,-0.160,-0.131,-0.108,-0.769,-0.316,-1.327,-49.83,83.53,-126.04,0.00
1741962935.69,-0.246,-0.054,-0.243,-0.382,-1.803,-2.125,-51.89,82.84,-125.37,0.00
1741962935.71,-0.261,-0.131,-0.122,-0.303,-2.589,-2.334,-54.52,80.21,-125.43,-0.10
1741962935.73,-0.186,-0.193,0.064,-0.591,-2.075,-2.190,-57.15,77.39,-125.47,-0.10
1741962935.75,-0.177,-0.210,0.070,-0.888,-0.926,-1.960,-59.68,76.20,-124.93,-0.10
1741962935.77,-0.133,-0.248,0.007,-0.961,-0.935,-1.407,-61.81,76.23,-123.74,-0.10
1741962935.79,-0.054,-0.255,-0.004,-1.132,-1.162,-1.164,-63.48,76.61,-121.98,-0.10
1741962935.81,0.027,-0.222,0.050,-1.659,-0.578,-1.315,-65.18,78.00,-119.18,-0.10
1741962935.83,0.174,-0.199,0.222,-2.207,0.818,-1.724,-67.24,82.52,-114.43,-0.10
1741962935.85,0.259,-0.145,0.126,-1.491,1.152,-2.497,-69.77,88.91,-108.85,-0.10
1741962935.86,0.081,-0.190,0.062,-0.280,1.444,-3.544,-73.20,93.50,-105.57,-0.10
1741962935.88,-0.156,-0.363,-0.065,0.382,1.365,-4.287,-77.72,96.23,-104.35,-0.10
1741962935.91,-0.204,-0.269,-0.049,0.572,1.094,-4.400,-82.81,97.75,-104.08,-0.10
1741962935.92,-0.341,0.190,-0.027,0.351,0.821,-2.906,-87.15,100.08,-102.75,-0.10
1741962935.94,-0.398,0.568,-0.067,-0.279,0.282,-1.395,-89.36,135.84,-67.60,-0.10
1741962935.96,-0.217,0.510,-0.254,-0.970,-1.848,-1.201,-88.49,-142.97,14.54,-0.10
1741962935.98,0.107,0.034,-0.001,-1.391,-2.023,-1.509,-86.43,-138.27,21.76,-0.10
1741962936.00,0.064,0.341,0.106,-1.387,-1.323,-1.259,-84.13,-138.63,23.38,-0.10
1741962936.02,0.147,0.406,0.064,-0.888,-0.716,-0.875,-82.32,-139.48,23.81,-0.10
1741962936.04,0.245,0.331,-0.012,-0.173,-0.319,-0.338,-81.39,-138.94,25.02,-0.10
1741962936.06,0.268,0.053,-0.104,0.223,0.017,0.240,-81.45,-138.80,25.50,-0.10
1741962936.08,0.127,-0.068,-0.061,0.185,0.386,0.317,-81.85,-139.11,25.03,-0.10
1741962936.10,0.071,-0.053,0.000,0.132,0.450,0.398,-82.25,-139.99,23.74,-0.10
1741962936.12,-0.001,-0.013,-0.018,-0.114,0.051,0.413,-82.61,-142.24,21.27,-0.10
1741962936.14,-0.025,-0.292,-0.005,-0.569,-0.403,-0.359,-82.20,-143.96,19.81,-0.10
1741962936.16,-0.113,-0.035,-0.005,-0.403,-0.654,-0.153,-81.62,-145.66,18.85,-0.10
1741962936.18,-0.084,0.056,-0.040,-0.132,-0.581,-0.484,-81.15,-145.43,19.90,-0.10
1741962936.20,-0.039,0.011,-0.075,0.053,-0.391,-0.433,-80.79,-143.35,22.69,-0.10
1741962936.22,0.002,-0.053,-0.019,0.005,-0.081,-0.154,-80.64,-141.79,24.65,-0.10
1741962936.24,-0.003,0.069,0.031,0.000,0.169,-0.207,-80.52,-140.97,25.51,-0.10
1741962936.26,-0.017,0.024,0.017,0.146,0.171,-0.348,-80.36,-139.08,27.34,-0.10
1741962936.28,-0.012,-0.005,-0.001,0.527,0.237,-0.320,-80.35,-135.53,30.81,-0.10
1741962936.30,-0.028,-0.022,0.004,0.400,0.329,-0.070,-80.63,-131.78,34.38,-0.10
1741962936.32,-0.058,0.151,0.005,0.076,0.146,-0.247,-80.67,-129.81,36.17,-0.10
1741962936.34,-0.010,0.062,0.002,0.165,0.190,-0.365,-80.45,-127.62,38.33,-0.10
1741962936.36,0.017,0.050,-0.032,0.163,0.131,-0.261,-80.28,-125.18,40.67,-0.10
1741962936.38,0.019,0.138,-0.074,-0.037,-0.306,-0.212,-80.11,-123.97,42.06,-0.10
1741962936.40,0.044,-0.073,-0.097,0.032,-0.628,0.046,-79.96,-124.35,42.36,-0.10
1741962936.42,-0.007,-0.196,0.002,0.243,-0.187,0.403,-80.28,-124.82,42.49,-0.10
1741962936.44,-0.118,-0.196,0.056,-0.168,0.006,0.750,-80.89,-126.94,40.46,-0.10
1741962936.46,-0.225,0.099,0.101,-0.645,0.352,0.511,-81.20,-132.22,35.09,-0.10
1741962936.48,-0.189,0.179,0.116,-0.833,1.014,-0.217,-80.68,-135.19,31.20,-0.10
1741962936.50,-0.077,-0.243,-0.075,-0.349,0.730,-0.328,-79.92,-136.37,29.12,-0.10
1741962936.52,0.007,-0.073,0.024,0.545,0.957,-0.824,-79.56,-132.20,32.47,-0.10
1741962936.54,0.096,0.118,0.122,0.527,1.456,-1.142,-79.09,-124.47,39.08,-0.10
1741962936.56,0.546,0.178,0.459,0.119,3.431,-0.865,-78.19,-116.01,44.70,-0.10
1741962936.58,0.545,0.084,0.057,-0.839,2.393,0.033,-77.56,-113.88,43.58,-0.10
1741962936.60,0.239,-0.104,-0.177,-0.953,1.077,0.940,-77.63,-117.42,37.93,-0.10
1741962936.62,-0.093,-0.051,-0.194,-0.225,1.187,1.015,-78.31,-122.01,32.12,-0.10
1741962936.64,-0.195,0.234,-0.089,0.057,1.541,0.312,-78.98,-122.58,29.86,-0.10
1741962936.66,-0.072,0.287,-0.142,0.090,0.862,-0.174,-79.01,-121.01,30.08,-0.10
1741962936.68,0.134,0.273,-0.049,0.422,0.972,-0.032,-79.03,-118.37,31.83,-0.10
1741962936.70,0.265,0.328,0.045,0.626,1.839,0.279,-79.40,-114.17,34.49,-0.10
1741962936.73,0.319,0.237,-0.092,0.539,1.659,0.570,-80.15,-109.51,37.04,-0.20
1741962936.74,0.208,-0.086,-0.224,0.531,0.275,0.799,-81.03,-106.24,39.16,-0.20
1741962936.76,-0.102,-0.062,-0.212,0.886,-1.248,1.183,-82.36,-103.86,42.21,-0.20
1741962936.78,-0.237,-0.149,-0.125,1.231,-2.376,1.349,-84.04,-98.11,50.13,-0.20
1741962936.80,-0.209,-0.379,0.121,1.408,-2.256,1.160,-85.59,-84.57,66.55,-0.20
1741962936.82,-0.096,-0.323,0.315,1.226,-0.834,0.188,-85.89,-62.56,90.34,-0.20
1741962936.84,0.191,-0.168,0.187,0.779,-0.022,0.283,-85.37,-49.83,103.60,-0.20
1741962936.86,0.178,0.081,0.054,0.654,0.454,0.990,-85.30,-36.19,116.98,-0.20
1741962936.88,-0.090,0.004,-0.166,0.554,-0.212,1.209,-85.24,-17.51,135.48,-0.20
1741962936.90,-0.506,0.145,-0.124,0.399,-0.633,0.362,-84.92,-5.71,147.94,-0.20
1741962936.92,-0.521,0.230,-0.202,0.644,-1.020,-1.295,-84.28,-10.88,143.65,-0.20
1741962936.94,-0.182,0.403,-0.324,1.667,-1.512,-1.644,-82.51,-24.67,131.31,-0.20
1741962936.96,0.108,0.471,-0.096,1.962,-0.496,-0.672,-79.93,-27.06,130.26,-0.20
1741962936.98,0.187,0.498,0.052,1.275,0.616,-0.371,-78.05,-25.54,131.69,-0.20
1741962937.00,0.358,0.171,0.181,1.238,1.982,0.467,-76.71,-21.74,134.17,-0.20
1741962937.02,0.178,-0.260,0.152,0.724,2.811,1.429,-75.96,-12.63,140.65,-0.20
1741962937.04,-0.241,-0.052,0.135,0.263,2.233,0.324,-75.61,-4.87,145.51,-0.20
1741962937.06,0.104,-0.014,0.092,0.074,0.353,0.059,-75.43,-3.14,145.80,-0.20
1741962937.08,0.282,-0.045,0.091,-0.212,-1.239,0.465,-75.52,-2.55,147.06,-0.20
1741962937.10,0.141,-0.110,0.264,-0.470,-2.215,0.459,-75.93,-2.34,149.37,-0.20
1741962937.12,0.159,-0.199,0.582,-0.687,-1.722,0.245,-76.62,-3.38,150.83,-0.20
1741962937.14,0.128,-0.250,0.556,-0.688,-1.050,0.354,-77.42,-3.91,151.85,-0.20
1741962937.16,-0.120,-1.038,0.381,-1.023,-1.478,1.585,-78.41,0.31,157.65,-0.20
1741962937.18,-0.421,-0.794,0.309,-1.682,-1.811,0.507,-79.85,5.36,164.68,-0.20
1741962937.20,-0.493,-0.562,0.038,-2.388,-3.413,-0.717,-82.20,2.33,164.61,-0.20
1741962937.22,-0.395,-0.253,-0.096,-2.758,-5.115,-1.204,-85.08,-16.25,150.97,-0.20
1741962937.24,-0.220,0.057,-0.360,-2.386,-5.100,-0.993,-86.64,-63.41,109.87,-0.20
1741962937.26,-0.062,0.422,-0.345,-1.752,-2.538,-0.758,-85.86,-105.25,72.47,-0.20
1741962937.28,-0.082,0.705,-0.064,-1.434,-0.499,-0.700,-84.33,-122.65,56.70,-0.20
1741962937.30,-0.024,0.635,-0.179,-0.597,-0.218,0.023,-83.38,-129.33,50.32,-0.20
1741962937.32,-0.097,0.517,-0.220,-0.226,-0.242,0.122,-83.16,-133.07,46.97,-0.20
1741962937.34,-0.260,0.450,-0.167,-0.094,0.586,0.512,-83.32,-136.23,43.79,-0.20
1741962937.36,-0.441,0.149,-0.192,0.073,1.528,0.743,-83.78,-139.79,39.05,-0.20
1741962937.38,-0.495,0.126,-0.217,0.169,2.013,0.616,-84.40,-143.55,33.36,-0.20
1741962937.40,-0.321,0.086,-0.224,0.548,2.089,-0.023,-84.93,-141.33,33.27,-0.20
1741962937.42,-0.083,-0.238,-0.106,1.164,1.903,-0.344,-85.42,-129.21,43.27,-0.20
1741962937.44,0.086,-0.513,-0.005,1.260,1.269,-0.428,-85.71,-107.78,62.98,-0.20
1741962937.46,0.145,-0.433,0.083,0.683,0.077,-0.442,-85.42,-91.34,78.78,-0.20
1741962937.48,0.100,-0.105,0.178,-0.048,-0.620,-0.375,-84.94,-87.67,82.93,-0.20
1741962937.50,0.097,0.166,0.210,-0.581,-0.382,-0.357,-84.52,-92.42,78.87,-0.20
1741962937.52,0.131,0.262,0.154,-0.889,0.368,-0.209,-84.07,-100.65,70.71,-0.20
1741962937.54,0.193,0.147,0.075,-0.814,1.301,0.179,-83.79,-108.88,61.55,-0.20
1741962937.56,0.201,0.054,-0.043,-0.235,2.105,0.391,-83.88,-113.61,54.88,-0.20
1741962937.58,0.202,-0.029,-0.228,0.626,2.554,0.377,-84.37,-110.58,55.23,-0.20
1741962937.60,0.013,-0.039,-0.289,1.047,1.454,0.340,-85.02,-98.36,65.09,-0.20
1741962937.62,-0.061,-0.011,-0.121,0.679,-0.103,0.372,-85.46,-85.40,77.46,-0.20
1741962937.64,-0.008,0.002,0.238,0.246,-0.302,0.205,-85.74,-78.66,84.58,-0.20
1741962937.66,0.069,-0.056,0.336,0.224,-0.355,0.105,-85.84,-75.38,88.25,-0.20
1741962937.68,0.098,-0.088,0.320,0.301,-0.471,0.101,-85.86,-71.26,92.92,-0.20
1741962937.70,0.107,-0.033,0.252,0.064,-0.362,0.083,-85.87,-68.12,96.60,-0.20
1741962937.72,0.113,0.006,0.107,-0.405,-0.133,0.134,-86.05,-70.48,94.56,-0.20
1741962937.74,0.068,0.054,-0.035,-0.500,-0.238,0.216,-86.41,-78.12,87.13,-0.20
1741962937.76,0.001,0.131,-0.067,-0.234,-0.474,0.177,-86.70,-85.04,80.66,-0.41
1741962937.78,-0.029,0.090,-0.019,-0.011,-0.647,0.083,-86.86,-87.74,78.63,-0.41
1741962937.80,-0.038,0.009,0.050,0.035,-0.650,0.057,-86.93,-87.87,79.31,-0.41
1741962937.82,-0.070,-0.033,0.085,-0.074,-0.289,0.103,-87.02,-88.58,79.21,-0.41
1741962937.84,-0.114,-0.033,0.057,-0.237,0.334,0.127,-87.15,-92.18,75.62,-0.41
1741962937.86,-0.126,-0.007,-0.002,-0.253,0.923,0.144,-87.28,-97.77,69.35,-0.41
1741962937.88,-0.060,0.017,-0.035,-0.146,1.441,0.102,-87.38,-101.98,63.80,-0.41
1741962937.90,0.047,0.007,-0.058,-0.048,1.565,0.079,-87.46,-102.76,61.31,-0.41
1741962937.92,0.113,0.003,-0.050,-0.072,1.441,0.075,-87.53,-103.03,59.35,-0.41
1741962937.94,0.133,0.011,-0.043,-0.031,1.230,0.075,-87.60,-103.51,57.36,-0.41
1741962937.96,0.116,-0.004,-0.031,0.046,1.006,0.044,-87.67,-102.34,57.26,-0.41
1741962937.98,0.075,-0.016,-0.002,0.040,0.841,0.019,-87.72,-99.99,58.58,-0.41
1741962938.00,0.052,-0.012,0.022,-0.053,0.851,0.006,-87.73,-99.17,58.46,-0.41
1741962938.02,0.039,-0.006,0.000,-0.107,0.822,-0.004,-87.71,-100.65,56.01,-0.41
1741962938.04,0.032,0.023,-0.011,-0.092,0.719,-0.012,-87.68,-102.50,53.26,-0.41
1741962938.06,0.033,0.041,-0.016,-0.108,0.619,-0.066,-87.62,-104.12,50.88,-0.41
1741962938.08,0.059,0.026,-0.000,-0.097,0.596,-0.107,-87.48,-105.70,48.61,-0.41
1741962938.10,0.063,0.018,0.039,-0.003,0.622,-0.132,-87.34,-105.47,48.13,-0.41
1741962938.12,0.061,0.003,0.039,0.042,0.659,-0.148,-87.19,-103.19,49.66,-0.41
1741962938.14,0.056,0.004,0.009,-0.018,0.693,-0.146,-87.03,-101.38,50.68,-0.41
1741962938.16,0.052,0.007,0.026,-0.014,0.682,-0.136,-86.86,-100.51,50.75,-0.41
1741962938.18,0.035,0.033,0.078,0.033,0.696,-0.093,-86.73,-99.15,51.31,-0.41
1741962938.20,0.016,0.042,0.103,0.118,0.742,-0.002,-86.69,-96.74,52.88,-0.41
1741962938.22,-0.038,0.019,0.071,0.169,0.856,0.042,-86.73,-92.92,55.77,-0.41
1741962938.24,-0.128,0.003,-0.023,0.158,1.206,-0.025,-86.75,-88.46,59.06,-0.41
1741962938.26,-0.152,0.031,-0.104,0.237,1.795,-0.159,-86.64,-83.25,62.54,-0.41
1741962938.28,-0.030,0.065,-0.107,0.459,2.477,-0.203,-86.34,-75.36,67.97,-0.41
1741962938.30,0.097,0.065,-0.119,0.815,3.008,0.024,-85.96,-62.83,77.32,-0.41
1741962938.32,0.101,0.038,-0.154,1.099,3.211,0.357,-85.49,-45.32,91.24,-0.41
1741962938.34,-0.000,0.001,-0.130,1.078,2.948,0.450,-84.76,-28.23,104.77,-0.41
1741962938.36,-0.127,0.030,-0.045,0.922,2.287,0.298,-83.88,-16.71,113.27,-0.41
1741962938.38,-0.225,0.034,0.111,0.828,1.709,-0.000,-82.94,-10.91,116.75,-0.41
1741962938.40,-0.286,-0.014,0.216,0.716,1.308,-0.216,-82.05,-9.10,116.77,-0.41
1741962938.42,-0.288,-0.051,0.058,0.511,0.562,-0.388,-81.28,-9.49,115.12,-0.41
1741962938.44,-0.199,-0.115,-0.084,-0.053,-0.350,-0.417,-80.88,-12.08,112.33,-0.41
1741962938.46,0.057,-0.181,0.205,-0.652,-0.583,-0.296,-81.25,-15.83,108.99,-0.41
1741962938.48,0.387,-0.212,0.372,-0.670,-0.485,-0.254,-81.90,-20.21,105.10,-0.41
1741962938.50,0.530,-0.233,0.331,-0.653,-0.064,-0.021,-82.52,-23.68,101.84,-0.41
1741962938.52,0.407,-0.203,0.223,-0.720,0.645,0.067,-83.25,-25.67,99.38,-0.41
1741962938.54,0.210,-0.115,0.079,-0.748,0.833,0.092,-84.05,-27.38,96.65,-0.41
1741962938.56,-0.010,0.008,-0.113,-0.646,0.491,0.098,-84.82,-29.64,93.49,-0.41
1741962938.58,-0.190,0.171,-0.373,-0.372,0.229,0.081,-85.38,-31.62,91.00,-0.41
1741962938.60,-0.325,0.387,-0.686,-0.292,-0.349,0.054,-85.71,-33.23,89.27,-0.41
1741962938.62,-0.394,0.425,-0.650,-0.252,-1.057,0.003,-86.02,-36.20,87.05,-0.41
1741962938.64,-0.311,0.127,-0.519,-0.001,-1.133,-0.123,-86.08,-39.70,84.75,-0.41
1741962938.66,-0.093,-0.146,-0.179,0.188,-0.638,-0.160,-85.89,-41.42,84.00,-0.41
1741962938.68,0.001,-0.249,0.283,0.155,-0.057,-0.142,-85.59,-41.68,84.00,-0.41
1741962938.70,0.030,-0.234,0.436,-0.035,0.155,0.013,-85.49,-41.73,83.77,-0.41
1741962938.72,0.075,-0.114,0.259,-0.339,0.432,0.015,-85.65,-42.79,82.30,-0.41
1741962938.74,0.224,0.046,0.060,-0.521,0.617,-0.021,-86.02,-47.63,76.73,-0.41
1741962938.76,0.313,0.100,0.008,-0.173,0.472,0.101,-86.34,-51.36,72.26,-0.41
1741962938.78,0.267,0.034,0.057,0.102,0.139,0.127,-86.45,-49.55,73.64,-0.49
1741962938.80,0.214,-0.018,0.034,-0.084,-0.271,0.106,-86.51,-47.73,75.46,-0.49
1741962938.82,0.134,0.018,-0.073,-0.340,-0.837,0.154,-86.79,-50.07,73.64,-0.49
1741962938.84,0.018,0.104,-0.169,-0.279,-1.331,0.133,-87.17,-55.07,69.83,-0.49
1741962938.86,-0.061,0.083,-0.066,-0.103,-1.470,0.053,-87.37,-59.09,67.36,-0.49
1741962938.88,-0.108,0.031,0.051,-0.058,-1.148,-0.035,-87.42,-62.13,65.74,-0.49
1741962938.90,-0.120,-0.016,0.079,-0.099,-0.373,0.019,-87.44,-65.03,63.67,-0.49
1741962938.92,-0.135,-0.009,0.013,-0.102,0.225,0.054,-87.53,-67.26,61.46,-0.49
1741962938.94,-0.136,0.006,-0.029,-0.103,0.506,0.044,-87.63,-68.65,59.58,-0.49
1741962938.95,-0.110,-0.001,-0.017,-0.143,0.665,-0.001,-87.70,-71.06,56.46,-0.49
1741962938.98,-0.064,-0.020,0.003,-0.104,0.793,-0.076,-87.71,-74.22,52.41,-0.49
1741962938.99,-0.016,-0.013,0.011,0.006,0.700,-0.125,-87.61,-75.35,50.35,-0.49
1741962939.01,-0.008,0.007,0.038,-0.003,0.381,-0.173,-87.45,-75.43,49.57,-0.49
1741962939.03,0.021,0.068,0.069,-0.043,-0.133,-0.267,-87.21,-77.21,47.60,-0.49
1741962939.05,0.075,0.045,0.121,-0.046,-0.487,-0.322,-86.88,-79.86,45.26,-0.49
1741962939.07,0.127,-0.023,0.126,-0.136,-0.381,-0.266,-86.56,-82.92,42.70,-0.49
1741962939.09,0.153,-0.001,0.011,-0.200,0.392,-0.206,-86.32,-86.65,38.93,-0.49
1741962939.11,0.128,0.060,-0.188,0.038,0.868,-0.171,-86.10,-87.83,36.90,-0.49
1741962939.13,0.042,0.063,-0.150,0.331,0.867,-0.078,-85.94,-83.71,39.97,-0.49
1741962939.15,-0.080,-0.024,-0.061,0.357,0.707,0.045,-85.85,-77.08,45.65,-0.49
1741962939.17,-0.132,-0.104,-0.082,0.142,0.451,0.081,-85.85,-72.18,49.85,-0.49
1741962939.19,-0.096,-0.131,-0.060,0.021,0.629,0.014,-85.88,-70.46,50.95,-0.49
1741962939.21,-0.000,-0.049,-0.073,0.090,0.728,-0.003,-85.87,-68.87,51.66,-0.49
1741962939.23,0.119,0.119,-0.053,0.161,0.293,-0.046,-85.79,-66.56,53.29,-0.49
1741962939.25,0.185,0.148,-0.002,0.270,-0.268,-0.046,-85.63,-63.94,55.87,-0.49
1741962939.27,0.075,-0.001,0.145,0.243,-0.393,0.035,-85.48,-60.91,59.26,-0.49
1741962939.29,-0.093,-0.114,0.205,0.120,-0.180,0.068,-85.43,-58.53,61.96,-0.49
1741962939.31,-0.193,-0.091,0.203,-0.081,0.245,0.046,-85.47,-57.78,62.62,-0.49
1741962939.33,-0.236,-0.036,0.103,-0.227,0.395,0.045,-85.61,-59.06,60.86,-0.49
1741962939.35,-0.166,0.014,-0.011,-0.140,0.205,-0.043,-85.73,-61.36,58.15,-0.49
1741962939.37,-0.037,0.016,-0.053,0.089,0.083,-0.054,-85.69,-61.96,57.35,-0.49
1741962939.39,0.022,0.026,-0.027,0.248,0.132,-0.006,-85.56,-59.73,59.41,-0.49
1741962939.41,0.013,0.024,0.014,0.312,0.062,0.083,-85.41,-55.86,63.11,-0.49
1741962939.43,-0.044,0.007,0.102,0.376,0.085,0.143,-85.29,-50.91,67.97,-0.49
1741962939.45,-0.100,-0.009,0.152,0.401,0.393,0.162,-85.12,-45.30,73.29,-0.49
1741962939.47,-0.095,-0.007,0.113,0.426,0.630,0.191,-84.91,-39.41,78.54,-0.49
1741962939.49,-0.046,0.029,0.075,0.554,0.743,0.168,-84.59,-33.21,83.91,-0.49
1741962939.51,-0.013,0.040,0.063,0.777,0.699,0.154,-84.02,-27.04,89.20,-0.49
1741962939.53,-0.032,0.046,0.056,0.941,0.431,0.220,-83.20,-21.08,94.48,-0.49
1741962939.55,-0.091,0.040,0.018,1.006,0.356,0.248,-82.23,-15.82,99.31,-0.49
1741962939.57,-0.076,-0.023,-0.016,1.014,0.494,0.159,-81.16,-11.84,102.79,-0.49
1741962939.59,0.009,-0.046,0.018,1.068,0.709,0.105,-80.02,-9.09,104.84,-0.49
1741962939.61,0.068,0.005,0.062,1.146,0.966,0.246,-78.79,-6.23,106.73,-0.49
1741962939.63,0.029,0.023,0.089,1.108,1.177,0.442,-77.53,-2.64,109.09,-0.49
1741962939.65,-0.055,-0.052,-0.040,1.007,1.321,0.549,-76.33,1.39,111.68,-0.49
1741962939.67,-0.031,-0.141,-0.019,1.004,1.062,0.540,-75.16,4.95,113.87,-0.49
1741962939.69,0.058,-0.172,0.031,1.154,0.960,0.599,-73.87,7.90,115.75,-0.49
1741962939.71,0.125,-0.083,-0.158,1.364,0.603,0.632,-72.31,10.38,117.26,-0.49
1741962939.73,0.055,-0.032,-0.034,1.247,0.237,0.610,-70.70,12.00,118.54,-0.49
1741962939.75,0.003,-0.082,0.048,1.209,0.780,0.591,-69.20,13.56,119.52,-0.49
1741962939.77,-0.011,-0.119,-0.052,1.301,0.787,0.693,-67.63,15.38,120.43,-0.49
1741962939.79,0.007,-0.074,-0.025,1.364,0.555,0.773,-65.93,17.07,121.37,-0.53
1741962939.81,-0.005,-0.018,0.028,1.371,0.372,0.712,-64.18,18.26,122.13,-0.53
1741962939.83,0.027,-0.038,0.094,1.320,0.742,0.632,-62.46,19.35,122.56,-0.53
1741962939.85,0.089,-0.050,0.073,1.071,0.496,0.727,-60.92,20.57,123.03,-0.53
1741962939.87,0.062,-0.038,-0.046,1.264,0.487,0.860,-59.39,21.78,123.76,-0.53
1741962939.89,-0.011,0.008,-0.127,1.361,0.190,0.893,-57.58,22.76,124.40,-0.53
1741962939.91,-0.061,0.045,0.141,1.338,0.207,0.747,-55.81,23.38,124.86,-0.53
1741962939.93,-0.092,-0.050,-0.004,1.428,-0.037,0.695,-54.02,23.63,124.99,-0.53
1741962939.95,-0.044,-0.051,0.041,1.243,0.174,0.744,-52.28,23.86,125.14,-0.53
1741962939.97,-0.014,0.050,0.049,1.033,0.452,0.752,-50.76,24.54,125.52,-0.53
1741962939.99,-0.005,0.126,-0.002,1.069,0.515,0.784,-49.31,25.46,125.90,-0.53
1741962940.01,-0.031,0.105,-0.047,1.051,0.335,0.810,-47.81,26.26,126.30,-0.53
1741962940.03,-0.046,-0.006,-0.041,1.195,0.180,0.734,-46.30,26.85,126.61,-0.53
1741962940.05,-0.051,-0.094,-0.035,1.490,-0.001,0.617,-44.57,26.92,126.52,-0.53
1741962940.07,-0.012,-0.111,-0.097,1.491,-0.176,0.569,-42.72,26.61,126.23,-0.53
1741962940.09,-0.015,-0.034,0.008,1.358,-0.002,0.463,-41.01,26.37,125.90,-0.53
1741962940.11,-0.132,-0.046,-0.029,1.390,0.070,0.443,-39.39,26.21,125.55,-0.53
1741962940.13,-0.095,-0.082,0.072,1.429,0.293,0.485,-37.71,26.19,125.19,-0.53
1741962940.15,0.066,-0.077,0.134,1.484,0.273,0.525,-35.97,26.41,124.86,-0.53
1741962940.17,0.086,-0.012,0.055,1.506,0.135,0.513,-34.15,26.48,124.52,-0.53
1741962940.19,0.051,0.031,-0.034,1.333,0.123,0.526,-32.43,26.47,124.24,-0.53
1741962940.21,-0.056,0.022,-0.036,1.370,0.121,0.452,-30.82,26.53,123.98,-0.53
1741962940.23,-0.029,-0.035,0.065,1.555,-0.038,0.439,-29.11,26.41,123.59,-0.53
1741962940.25,0.109,-0.070,0.104,1.646,-0.255,0.531,-27.20,26.06,123.21,-0.53
1741962940.27,0.013,-0.026,0.073,1.716,-0.170,0.451,-25.23,25.64,122.79,-0.53
1741962940.29,-0.187,-0.088,-0.069,1.598,0.196,0.452,-23.28,25.48,122.33,-0.53
1741962940.31,-0.058,-0.113,0.014,1.652,0.213,0.479,-21.43,25.66,121.96,-0.53
1741962940.33,0.088,-0.068,0.087,2.106,-0.293,0.258,-19.30,25.42,121.34,-0.53
1741962940.35,0.089,-0.069,0.057,2.317,-0.561,-0.022,-16.92,24.61,120.25,-0.53
1741962940.37,-0.067,0.160,0.067,1.876,-0.337,0.087,-14.69,23.76,119.13,-0.53
1741962940.39,-0.033,0.171,0.021,1.587,0.010,0.591,-12.80,23.51,118.71,-0.53
1741962940.41,0.131,-0.076,0.022,1.816,-0.098,0.627,-10.71,23.46,118.61,-0.53
1741962940.43,0.324,-0.275,0.231,1.827,-0.097,0.578,-8.52,23.31,118.39,-0.53
1741962940.45,0.066,-0.085,0.226,1.701,0.025,0.684,-6.37,23.25,118.24,-0.53
1741962940.47,-0.208,0.142,-0.059,1.537,0.000,0.729,-4.36,23.25,118.28,-0.53
1741962940.49,-0.189,0.130,-0.241,1.710,-0.050,0.497,-2.39,23.28,118.21,-0.53
1741962940.51,0.083,-0.100,-0.194,1.912,-0.570,0.242,-0.32,22.91,117.78,-0.53
1741962940.53,0.030,-0.182,-0.008,1.896,-0.493,0.262,1.80,22.23,117.14,-0.53
1741962940.55,-0.049,-0.087,0.182,1.724,0.108,0.508,3.89,22.02,116.78,-0.53
1741962940.57,-0.101,0.080,-0.059,1.399,0.392,0.461,5.73,22.29,116.66,-0.53
1741962940.59,0.062,0.114,-0.205,1.322,0.370,0.410,7.36,22.86,116.50,-0.53
1741962940.61,0.414,0.013,-0.287,1.333,-0.192,0.536,8.94,22.96,116.40,-0.53
1741962940.63,0.194,-0.127,-0.194,1.220,-0.239,0.643,10.57,22.64,116.46,-0.53
1741962940.65,-0.183,-0.013,-0.076,1.049,0.117,0.619,12.05,22.52,116.65,-0.53
1741962940.67,-0.345,0.134,-0.028,0.966,0.333,0.361,13.35,22.84,116.77,-0.53
1741962940.69,0.137,-0.025,-0.212,0.970,0.185,0.156,14.44,23.17,116.58,-0.53
1741962940.71,0.280,-0.007,-0.271,1.025,-0.410,0.116,15.55,23.14,116.25,-0.53
1741962940.73,0.044,-0.043,-0.155,0.923,-0.451,0.086,16.64,22.68,115.90,-0.53
1741962940.75,-0.143,-0.051,-0.094,0.683,-0.042,-0.075,17.49,22.49,115.56,-0.53
1741962940.77,-0.024,-0.013,-0.099,0.567,0.027,-0.217,18.07,22.67,115.09,-0.53
1741962940.79,0.113,-0.009,-0.081,0.476,-0.178,-0.254,18.52,22.76,114.60,-0.60
1741962940.81,0.222,-0.063,-0.216,0.429,-0.482,-0.278,18.88,22.54,114.08,-0.60
1741962940.83,0.076,-0.098,-0.114,0.269,-0.570,-0.276,19.14,22.06,113.61,-0.60
1741962940.85,-0.051,-0.152,-0.020,0.085,-0.280,-0.353,19.19,21.69,113.18,-0.60
1741962940.87,0.026,-0.168,-0.128,-0.194,-0.053,-0.390,18.98,21.67,112.78,-0.60
1741962940.89,0.153,-0.124,-0.235,-0.348,-0.064,-0.298,18.55,21.71,112.52,-0.60
1741962940.91,0.132,-0.106,-0.231,-0.621,-0.161,-0.293,17.90,21.58,112.41,-0.60
1741962940.93,0.043,-0.150,-0.171,-0.797,-0.058,-0.351,17.02,21.47,112.36,-0.60
1741962940.95,0.007,-0.070,-0.166,-1.085,0.134,-0.334,15.88,21.51,112.39,-0.60
1741962940.97,0.043,-0.062,-0.341,-1.228,0.180,-0.354,14.49,21.66,112.51,-0.60
1741962940.99,0.038,-0.042,-0.237,-1.386,0.116,-0.410,12.94,21.79,112.67,-0.60
1741962941.01,0.030,-0.022,-0.179,-1.517,0.033,-0.444,11.21,21.84,112.84,-0.60
1741962941.03,-0.024,0.011,-0.150,-1.581,0.104,-0.437,9.39,21.87,113.03,-0.60
1741962941.05,-0.083,0.040,-0.211,-1.755,0.142,-0.491,7.42,21.98,113.26,-0.60
1741962941.07,0.014,0.044,-0.217,-1.798,0.076,-0.574,5.31,22.11,113.46,-0.60
1741962941.09,0.119,0.007,-0.129,-1.877,-0.044,-0.531,3.13,22.10,113.64,-0.60
1741962941.11,0.116,0.011,-0.076,-2.029,-0.036,-0.337,0.88,22.05,114.01,-0.60
1741962941.13,0.137,0.035,-0.069,-2.122,-0.166,-0.198,-1.44,21.95,114.65,-0.60
1741962941.15,0.034,-0.006,-0.015,-2.029,-0.258,-0.233,-3.72,21.72,115.30,-0.60
1741962941.17,-0.009,-0.100,-0.051,-2.194,-0.230,-0.188,-6.05,21.49,115.96,-0.60
1741962941.19,0.070,-0.085,-0.013,-2.134,-0.225,-0.105,-8.42,21.35,116.72,-0.60
1741962941.21,0.049,-0.018,0.064,-2.008,-0.458,-0.145,-10.68,21.12,117.47,-0.60
1741962941.23,-0.074,-0.058,-0.007,-1.864,-0.577,-0.287,-12.82,20.59,118.04,-0.60
1741962941.25,-0.187,-0.071,0.056,-1.894,-0.168,-0.426,-14.97,20.25,118.41,-0.60
1741962941.27,-0.135,-0.119,0.075,-1.894,-0.101,-0.457,-17.20,20.19,118.70,-0.60
1741962941.29,-0.004,-0.163,0.016,-1.742,-0.077,-0.499,-19.32,20.18,118.92,-0.60
1741962941.31,0.015,-0.147,0.046,-1.670,-0.110,-0.594,-21.36,20.09,119.01,-0.60
1741962941.33,0.017,-0.132,0.023,-1.682,-0.036,-0.647,-23.40,19.99,118.99,-0.60
1741962941.35,0.026,-0.116,0.017,-1.795,0.134,-0.620,-25.51,20.02,118.97,-0.60
1741962941.37,0.142,-0.143,0.053,-1.915,0.351,-0.471,-27.72,20.40,119.13,-0.60
1741962941.39,0.194,-0.126,0.008,-1.866,0.237,-0.413,-29.94,20.92,119.49,-0.60
1741962941.41,0.168,-0.095,0.060,-1.767,-0.065,-0.538,-32.06,21.18,119.78,-0.60
1741962941.43,0.128,-0.089,0.014,-1.800,-0.286,-0.627,-34.19,21.00,119.89,-0.60
1741962941.45,0.131,-0.124,0.008,-1.953,-0.136,-0.507,-36.43,20.85,120.08,-0.60
1741962941.47,0.096,-0.152,-0.021,-1.986,-0.058,-0.414,-38.73,21.01,120.50,-0.60
1741962941.49,0.011,-0.146,0.078,-1.839,-0.132,-0.521,-40.96,21.18,120.90,-0.60
1741962941.51,-0.081,-0.098,0.010,-1.717,-0.565,-0.745,-43.10,20.84,120.96,-0.60
1741962941.53,-0.036,-0.047,-0.002,-1.782,-0.506,-0.778,-45.27,20.01,120.75,-0.60
1741962941.55,0.063,-0.050,0.070,-2.002,-0.204,-0.608,-47.58,19.61,120.71,-0.60
1741962941.57,0.113,-0.096,-0.018,-1.998,-0.282,-0.400,-49.94,19.63,121.09,-0.60
1741962941.59,0.041,-0.090,-0.039,-1.809,-0.509,-0.373,-52.14,19.60,121.62,-0.60
1741962941.61,-0.018,-0.077,-0.038,-1.662,-0.782,-0.572,-54.17,19.07,121.88,-0.60
1741962941.63,0.003,-0.106,0.033,-1.729,-0.888,-0.707,-56.23,17.93,121.69,-0.60
1741962941.65,0.052,-0.126,0.107,-1.852,-0.750,-0.553,-58.40,16.86,121.53,-0.60
1741962941.67,0.030,-0.115,0.123,-1.861,-0.646,-0.346,-60.60,16.25,121.76,-0.60
1741962941.69,-0.027,-0.038,0.030,-1.684,-0.594,-0.210,-62.64,16.07,122.34,-0.60
1741962941.71,-0.085,0.033,-0.050,-1.572,-0.744,-0.262,-64.48,15.86,122.94,-0.60
1741962941.73,-0.100,0.041,0.020,-1.569,-0.952,-0.443,-66.31,15.09,123.16,-0.60
1741962941.75,-0.024,-0.007,0.032,-1.606,-0.909,-0.475,-68.20,13.80,122.94,-0.60
1741962941.77,0.053,-0.071,0.162,-1.739,-0.664,-0.224,-70.15,13.02,123.08,-0.60
1741962941.79,-0.010,-0.037,0.095,-1.609,-0.263,-0.205,-72.09,13.15,123.80,-0.60
1741962941.81,-0.103,0.008,-0.049,-1.382,-0.090,-0.526,-73.83,12.97,123.77,-0.60
1741962941.83,-0.097,0.007,-0.029,-1.490,-0.362,-0.773,-75.57,11.25,122.22,-0.60
1741962941.85,-0.027,-0.007,0.054,-1.621,-0.657,-0.730,-77.48,8.28,119.78,-0.60
1741962941.87,0.068,0.018,0.093,-1.520,-0.653,-0.511,-79.38,5.12,117.35,-0.60
1741962941.89,0.077,-0.011,0.033,-1.190,-0.305,-0.397,-80.96,2.24,115.00,-0.60
1741962941.91,0.022,-0.069,-0.030,-0.990,-0.094,-0.469,-82.19,-1.16,111.76,-0.60
1741962941.93,-0.033,-0.091,-0.046,-0.957,-0.120,-0.535,-83.25,-6.38,106.61,-0.60
1741962941.95,-0.035,-0.093,-0.074,-0.985,-0.219,-0.455,-84.24,-13.59,99.54,-0.60
1741962941.97,0.014,-0.064,-0.044,-0.935,-0.448,-0.174,-85.19,-21.35,92.12,-0.60
1741962941.98,0.009,-0.056,-0.026,-0.886,-0.696,-0.027,-86.09,-28.55,85.58,-0.60
1741962942.01,-0.017,-0.043,0.030,-0.884,-0.574,-0.146,-86.88,-39.98,74.88,-0.60
1741962942.03,-0.018,-0.032,0.034,-0.783,-0.302,-0.216,-87.36,-57.71,57.63,-0.60
1741962942.05,-0.021,-0.031,-0.014,-0.573,-0.168,-0.169,-87.46,-75.98,39.59,-0.60
1741962942.06,-0.010,-0.016,0.006,-0.302,-0.117,-0.034,-87.41,-87.61,28.11,-0.60
1741962942.08,-0.012,0.010,0.064,-0.113,-0.025,0.067,-87.44,-92.76,23.04,-0.60
1741962942.10,-0.037,0.012,0.130,-0.093,0.014,0.117,-87.54,-95.10,20.70,-0.60
1741962942.13,-0.046,-0.028,0.237,-0.269,0.008,0.308,-87.75,-100.77,15.02,-0.60
1741962942.14,-0.135,-0.008,0.218,-0.449,0.062,0.420,-88.03,-115.07,0.67,-0.60
1741962942.16,-0.207,0.044,0.147,-0.534,0.088,0.357,-88.07,-136.70,-21.06,-0.60
1741962942.18,-0.265,0.067,0.052,-0.473,0.020,0.122,-87.75,-152.35,-36.81,-0.60
1741962942.20,-0.224,0.031,-0.043,-0.241,-0.108,-0.072,-87.37,-156.89,-41.29,-0.60
1741962942.22,-0.090,-0.007,-0.030,0.022,-0.035,-0.070,-87.23,-156.16,-40.46,-0.60
1741962942.24,-0.024,-0.010,0.024,0.175,0.096,0.002,-87.32,-154.32,-38.65,-0.60
1741962942.26,-0.030,-0.008,0.065,0.162,0.140,-0.008,-87.51,-152.23,-36.71,-0.60
1741962942.28,-0.065,0.001,0.044,0.047,-0.008,-0.035,-87.60,-150.14,-34.70,-0.60
1741962942.30,-0.071,0.007,0.010,-0.023,-0.040,-0.053,-87.58,-149.19,-33.70,-0.60
1741962942.32,-0.017,-0.020,0.018,0.080,0.144,-0.042,-87.56,-147.72,-32.30,-0.60
1741962942.34,0.008,-0.047,0.048,0.268,0.133,0.020,-87.72,-144.54,-29.31,-0.60
1741962942.36,-0.006,-0.016,0.051,0.323,-0.102,0.021,-88.01,-139.23,-24.02,-0.60
1741962942.38,-0.000,0.032,0.024,0.288,-0.291,0.019,-88.25,-132.18,-16.74,-0.60
1741962942.40,0.005,0.043,0.007,0.339,-0.304,0.083,-88.50,-124.11,-8.31,-0.60
1741962942.42,-0.019,0.006,0.027,0.502,-0.179,0.152,-88.83,-109.06,7.01,-0.60
1741962942.44,-0.067,-0.025,0.052,0.689,-0.087,0.199,-89.05,-71.67,44.55,-0.60
1741962942.46,-0.107,-0.032,0.061,0.836,-0.025,0.205,-88.65,-29.52,86.77,-0.60
1741962942.48,-0.126,-0.019,0.049,0.966,0.047,0.153,-87.75,-11.64,104.64,-0.60
1741962942.50,-0.124,-0.008,0.028,1.132,0.242,0.086,-86.59,-5.27,110.85,-0.60
1741962942.52,-0.087,-0.045,0.035,1.405,0.613,0.121,-85.16,-2.05,113.60,-0.60
1741962942.54,-0.057,-0.078,0.071,1.665,1.057,0.273,-83.40,1.26,115.96,-0.60
1741962942.56,-0.033,-0.055,-0.307,1.446,0.363,0.322,-81.56,4.25,117.98,-0.60
1741962942.58,-0.007,-0.139,-0.034,1.746,1.075,0.288,-79.79,6.08,119.25,-0.60
1741962942.60,0.003,-0.125,0.243,2.206,2.265,0.148,-77.49,7.92,119.05,-0.60
1741962942.62,-0.001,-0.084,0.026,2.082,1.950,0.196,-74.97,9.62,118.10,-0.60
1741962942.64,0.035,-0.004,-0.178,1.247,-0.104,0.371,-73.06,10.58,118.01,-0.60
1741962942.67,0.156,-0.013,0.121,1.439,0.325,0.595,-71.54,11.34,118.84,-0.59
1741962942.68,0.137,-0.101,0.184,1.752,1.314,0.785,-69.54,13.40,119.94,-0.59
1741962942.70,0.094,-0.120,0.140,1.502,1.391,0.931,-67.47,16.24,121.19,-0.59
1741962942.72,0.075,-0.071,-0.227,1.440,-0.514,0.911,-65.57,18.08,122.54,-0.59
1741962942.74,-0.017,0.013,0.069,1.664,0.045,0.619,-63.59,18.08,123.15,-0.59
1741962942.76,-0.010,0.060,0.103,1.162,0.919,0.496,-61.81,18.94,123.23,-0.59
1741962942.78,0.070,0.083,0.057,1.008,0.373,0.598,-60.53,20.02,123.62,-0.59
1741962942.80,0.092,0.134,0.081,1.542,0.534,0.731,-58.92,20.85,124.01,-0.59
1741962942.82,-0.068,0.135,0.022,1.717,-0.173,0.629,-56.83,21.36,124.11,-0.59
1741962942.84,-0.217,-0.011,-0.170,1.560,-0.336,0.528,-54.84,20.65,123.89,-0.59
1741962942.86,-0.050,-0.097,0.005,1.134,0.768,0.559,-53.17,21.03,123.95,-0.59
1741962942.88,0.001,-0.081,0.110,0.918,0.544,0.527,-51.91,22.10,124.18,-0.59
1741962942.90,-0.000,-0.008,0.007,1.353,0.176,0.585,-50.50,22.62,124.34,-0.59
1741962942.92,-0.061,0.085,-0.032,1.608,0.104,0.465,-48.64,22.63,124.15,-0.59
1741962942.94,-0.069,0.058,-0.085,1.417,0.179,0.370,-46.87,22.50,123.76,-0.59
1741962942.96,0.075,-0.004,0.049,1.278,0.451,0.511,-45.26,22.74,123.54,-0.59
1741962942.98,0.102,-0.076,0.107,1.369,0.260,0.616,-43.64,23.18,123.53,-0.59
1741962943.00,0.070,-0.202,0.077,1.688,-0.033,0.668,-41.76,23.33,123.50,-0.59
1741962943.02,0.033,-0.226,0.106,1.889,-0.100,0.586,-39.57,23.07,123.28,-0.59
1741962943.04,0.084,-0.135,0.023,1.822,-0.048,0.496,-37.35,22.79,122.91,-0.59
1741962943.06,0.182,-0.033,0.112,1.401,0.123,0.535,-35.41,22.69,122.64,-0.59
1741962943.08,0.113,0.013,0.078,1.300,-0.024,0.877,-33.74,22.87,122.81,-0.59
1741962943.10,-0.081,0.114,0.065,1.561,-0.160,0.894,-31.81,22.97,123.17,-0.59
1741962943.12,-0.137,0.037,0.084,1.682,-0.380,0.797,-29.75,22.77,123.32,-0.59
1741962943.14,-0.117,-0.028,-0.099,1.855,-0.198,0.627,-27.53,22.38,123.28,-0.59
1741962943.16,-0.132,-0.043,-0.117,1.464,0.011,0.508,-25.53,22.22,123.07,-0.59
1741962943.18,-0.067,0.045,0.065,1.375,0.057,0.669,-23.81,22.28,123.07,-0.59
1741962943.20,-0.115,0.089,0.147,1.682,-0.101,0.659,-21.91,22.32,123.09,-0.59
1741962943.22,-0.092,-0.118,0.031,1.854,-0.310,0.691,-19.74,22.02,122.99,-0.59
1741962943.24,-0.016,-0.286,-0.201,1.761,0.148,0.537,-17.53,21.82,122.84,-0.59
1741962943.26,-0.089,-0.215,0.034,1.582,0.379,0.320,-15.59,22.10,122.54,-0.59
1741962943.28,-0.104,-0.060,0.183,1.781,0.279,0.191,-13.74,22.37,122.07,-0.59
1741962943.30,0.012,0.067,0.148,2.051,-0.137,0.268,-11.61,22.35,121.44,-0.59
1741962943.32,0.167,0.027,-0.095,1.969,-0.392,0.356,-9.33,21.87,120.87,-0.59
1741962943.34,0.081,-0.147,-0.179,1.751,0.182,0.413,-7.19,21.66,120.51,-0.59
1741962943.36,-0.093,-0.063,0.093,1.675,0.612,0.425,-5.20,22.12,120.23,-0.59
1741962943.38,-0.092,0.126,0.255,1.656,0.673,0.486,-3.26,22.87,119.98,-0.59
1741962943.40,0.071,0.225,-0.007,1.779,0.226,0.525,-1.24,23.41,119.75,-0.59
1741962943.42,0.325,0.100,-0.305,1.794,-0.249,0.573,0.90,23.34,119.52,-0.59
1741962943.44,0.000,-0.238,-0.251,1.716,-0.012,0.431,2.99,23.18,119.25,-0.59
1741962943.46,-0.144,-0.111,0.020,1.467,0.460,0.480,4.84,23.43,119.00,-0.59
1741962943.48,-0.031,0.230,0.024,1.416,0.398,0.518,6.56,23.98,118.88,-0.59
1741962943.50,-0.024,0.328,-0.036,1.546,0.132,0.454,8.35,24.32,118.70,-0.59
1741962943.52,0.125,0.009,-0.229,1.565,-0.060,0.375,10.14,24.39,118.39,-0.59
1741962943.54,0.186,-0.231,-0.153,1.456,-0.151,0.364,11.91,24.31,118.04,-0.59
1741962943.56,0.038,-0.185,-0.031,1.235,0.168,0.447,13.49,24.36,117.83,-0.59
1741962943.58,-0.045,-0.031,0.023,1.056,0.422,0.427,14.92,24.74,117.75,-0.59
1741962943.60,0.042,0.083,-0.126,1.060,0.450,0.399,16.20,25.30,117.67,-0.59
1741962943.62,0.199,-0.028,-0.234,0.892,0.214,0.397,17.39,25.69,117.58,-0.59
1741962943.64,0.265,-0.111,-0.307,0.713,-0.026,0.477,18.45,25.77,117.63,-0.59
1741962943.66,0.063,-0.151,-0.184,0.399,0.101,0.494,19.28,25.71,117.87,-0.59
1741962943.68,-0.042,-0.152,-0.176,0.074,0.402,0.391,19.74,25.88,118.23,-0.59
1741962943.70,0.124,-0.203,-0.267,-0.228,0.412,0.226,19.80,26.23,118.61,-0.59
1741962943.72,0.315,-0.168,-0.215,-0.489,0.360,0.185,19.53,26.53,119.01,-0.59
1741962943.74,0.090,-0.177,-0.261,-0.832,0.324,0.131,18.97,26.75,119.55,-0.59
1741962943.76,0.065,-0.179,-0.290,-1.216,0.488,0.053,17.96,26.99,120.20,-0.59
1741962943.78,0.137,-0.191,-0.348,-1.464,0.366,-0.112,16.57,27.31,120.92,-0.59
1741962943.80,0.163,-0.111,-0.278,-1.519,0.059,-0.324,14.94,27.38,121.50,-0.59
1741962943.82,0.092,-0.036,-0.203,-1.661,-0.028,-0.419,13.14,27.27,121.95,-0.59
1741962943.84,0.153,-0.032,-0.163,-1.916,0.084,-0.300,11.13,27.16,122.53,-0.59
1741962943.86,0.179,-0.032,-0.116,-2.031,-0.041,-0.212,9.00,27.12,123.32,-0.59
1741962943.88,0.111,-0.017,-0.093,-2.018,-0.306,-0.300,6.79,26.79,124.14,-0.59
1741962943.90,0.021,-0.048,-0.154,-2.080,-0.354,-0.431,4.52,26.33,124.79,-0.59
1741962943.92,0.049,-0.015,-0.107,-2.136,-0.326,-0.328,2.16,25.94,125.46,-0.59
1741962943.94,0.016,0.019,-0.067,-2.082,-0.571,-0.410,-0.21,25.39,126.16,-0.59
1741962943.96,-0.096,-0.004,-0.075,-1.987,-0.375,-0.681,-2.56,24.82,126.58,-0.59
1741962943.98,-0.187,-0.053,-0.045,-2.023,-0.190,-0.820,-5.01,24.53,126.73,-0.59
1741962944.00,-0.013,-0.028,0.019,-2.095,-0.097,-0.678,-7.51,24.39,126.92,-0.59
1741962944.02,0.063,-0.032,0.034,-2.026,-0.141,-0.580,-9.96,24.32,127.26,-0.59
1741962944.04,0.041,-0.081,-0.014,-1.998,-0.208,-0.696,-12.34,24.15,127.55,-0.59
1741962944.06,-0.021,-0.096,-0.015,-2.030,-0.033,-0.817,-14.79,24.06,127.69,-0.59
1741962944.08,0.004,-0.054,0.069,-2.075,-0.064,-0.785,-17.33,24.03,127.81,-0.59
1741962944.10,0.009,-0.052,0.064,-1.918,-0.226,-0.772,-19.76,23.94,127.95,-0.59
1741962944.12,-0.036,-0.096,-0.004,-1.869,-0.285,-0.860,-22.10,23.62,127.96,-0.59
1741962944.14,-0.063,-0.090,-0.069,-1.848,-0.193,-0.926,-24.46,23.30,127.87,-0.59
1741962944.16,-0.067,-0.030,0.060,-1.841,-0.014,-1.000,-26.82,23.09,127.67,-0.59
1741962944.18,-0.075,-0.019,0.189,-1.802,0.168,-1.082,-29.22,23.05,127.35,-0.59
1741962944.20,-0.044,-0.093,-0.091,-1.609,-0.154,-0.943,-31.46,22.88,126.98,-0.59
1741962944.22,0.064,-0.107,0.003,-1.706,0.103,-0.836,-33.57,22.68,126.74,-0.59
1741962944.24,0.153,-0.151,0.071,-1.869,0.140,-0.844,-35.84,22.79,126.64,-0.59
1741962944.26,0.176,-0.185,0.050,-1.827,-0.026,-0.847,-38.18,22.81,126.55,-0.59
1741962944.28,0.094,-0.163,0.058,-1.782,-0.244,-0.872,-40.45,22.57,126.42,-0.59
1741962944.30,0.008,-0.146,-0.039,-1.739,-0.466,-0.895,-42.69,22.01,126.18,-0.59
1741962944.32,0.018,-0.138,-0.034,-1.790,-0.336,-0.828,-44.93,21.34,125.94,-0.59
1741962944.34,0.056,-0.115,0.043,-1.848,-0.144,-0.762,-47.19,21.00,125.79,-0.59
1741962944.36,0.080,-0.074,0.008,-1.888,-0.182,-0.725,-49.49,20.80,125.75,-0.59
1741962944.38,0.045,-0.046,-0.014,-1.905,-0.348,-0.754,-51.82,20.45,125.72,-0.59
1741962944.40,0.012,-0.050,0.083,-1.880,-0.267,-0.760,-54.15,20.00,125.60,-0.59
1741962944.42,-0.016,-0.069,0.079,-1.907,-0.336,-0.703,-56.46,19.59,125.50,-0.59
1741962944.44,-0.012,-0.057,0.000,-1.853,-0.473,-0.574,-58.75,19.17,125.54,-0.59
1741962944.46,0.008,-0.035,-0.012,-1.704,-0.642,-0.426,-60.86,18.73,125.79,-0.59
1741962944.48,-0.001,-0.027,-0.034,-1.670,-0.783,-0.411,-62.82,18.23,126.14,-0.59
1741962944.50,-0.016,-0.057,0.044,-1.715,-0.792,-0.480,-64.81,17.54,126.38,-0.59
1741962944.52,-0.014,-0.095,0.126,-1.839,-0.737,-0.395,-66.90,16.90,126.64,-0.59
1741962944.54,-0.032,-0.133,0.199,-2.006,-0.633,-0.207,-69.10,16.85,127.46,-0.59
1741962944.56,-0.005,-0.088,0.094,-1.995,-0.235,-0.133,-71.35,17.80,129.00,-0.57
1741962944.58,-0.020,-0.014,-0.050,-1.913,-0.292,-0.361,-73.55,19.03,130.53,-0.57
1741962944.60,-0.018,0.010,-0.022,-1.759,-0.589,-0.662,-75.74,18.95,131.00,-0.57
1741962944.62,0.055,-0.016,0.076,-1.578,-0.547,-0.673,-77.79,17.60,130.30,-0.57
1741962944.64,0.054,-0.026,0.020,-1.537,-0.461,-0.463,-79.68,16.57,129.83,-0.57
1741962944.66,0.020,-0.069,-0.056,-1.391,-0.396,-0.374,-81.43,16.28,130.01,-0.57
1741962944.68,-0.020,-0.136,-0.097,-1.206,-0.700,-0.352,-82.95,15.70,130.03,-0.57
1741962944.70,-0.065,-0.170,-0.006,-1.233,-0.954,-0.205,-84.37,15.10,130.42,-0.57
1741962944.72,-0.087,-0.144,-0.050,-1.384,-0.712,-0.087,-85.83,17.60,133.93,-0.57
1741962944.74,-0.083,-0.025,-0.028,-1.269,-0.215,-0.298,-87.38,22.80,139.65,-0.57
1741962944.76,-0.016,0.046,-0.062,-0.831,0.172,-0.379,-88.64,26.27,143.16,-0.57
1741962944.78,0.028,0.054,-0.052,-0.578,0.551,-0.193,-89.49,31.22,147.66,-0.57
1741962944.80,-0.013,0.028,-0.115,-0.490,0.457,0.013,-89.75,133.63,-110.53,-0.57
1741962944.82,-0.033,-0.002,-0.153,-0.448,0.246,0.020,-89.26,163.68,-80.88,-0.57
1741962944.84,0.044,0.022,0.009,-0.396,0.107,0.051,-88.79,168.90,-75.86,-0.57
1741962944.86,0.077,0.019,0.127,-0.242,-0.000,0.164,-88.39,167.41,-77.40,-0.57
1741962944.88,0.055,-0.027,0.177,-0.021,-0.066,0.265,-88.18,160.55,-84.23,-0.57
1741962944.90,0.005,-0.090,0.197,0.042,0.015,0.242,-88.09,151.76,-92.97,-0.57
1741962944.92,-0.042,-0.129,0.226,-0.162,0.279,0.190,-87.93,146.63,-98.26,-0.57
1741962944.94,-0.083,-0.063,0.207,-0.593,0.468,0.213,-87.45,148.00,-97.34,-0.57
1741962944.96,-0.110,0.056,0.124,-0.950,0.262,0.262,-86.53,152.45,-93.34,-0.57
1741962944.98,-0.143,0.098,0.052,-1.052,-0.165,0.218,-85.35,156.03,-89.81,-0.57
1741962945.00,-0.178,0.069,-0.024,-0.906,-0.544,0.086,-84.24,158.66,-86.76,-0.57
1741962945.02,-0.206,0.045,-0.192,-0.547,-0.858,-0.024,-83.42,160.31,-84.28,-0.57
1741962945.04,-0.183,0.078,-0.219,0.051,-0.717,-0.090,-83.17,160.74,-82.89,-0.57
1741962945.06,-0.117,0.071,-0.086,0.530,-0.125,-0.095,-83.55,160.11,-82.99,-0.57
1741962945.08,-0.037,0.005,0.044,0.648,0.302,-0.061,-84.24,158.72,-84.46,-0.57
1741962945.10,0.017,-0.033,0.107,0.503,0.286,0.006,-84.87,156.75,-86.75,-0.57
1741962945.12,0.026,-0.045,0.146,0.329,0.094,0.081,-85.28,154.11,-89.57,-0.57
1741962945.14,-0.001,-0.034,0.153,0.141,-0.000,0.076,-85.48,151.58,-92.09,-0.57
1741962945.16,-0.023,-0.028,0.125,-0.051,0.008,0.080,-85.48,150.31,-93.31,-0.57
1741962945.18,-0.050,-0.019,0.089,-0.131,0.044,0.088,-85.33,150.03,-93.58,-0.57
1741962945.19,-0.084,-0.023,0.050,-0.093,0.030,0.088,-85.17,149.80,-93.80,-0.57
1741962945.22,-0.094,0.021,-0.022,-0.035,-0.154,0.082,-85.05,149.21,-94.29,-0.57
1741962945.23,-0.087,0.067,-0.044,0.098,-0.222,0.086,-85.03,147.91,-95.30,-0.57
1741962945.25,-0.091,0.045,-0.012,0.339,-0.135,0.067,-85.18,145.30,-97.68,-0.57
1741962945.27,-0.089,-0.004,0.030,0.531,-0.098,0.049,-85.55,140.81,-102.01,-0.57
1741962945.29,-0.078,-0.027,0.077,0.591,-0.062,0.049,-85.99,134.29,-108.41,-0.57
1741962945.31,-0.072,-0.040,0.127,0.616,0.019,0.038,-86.40,125.84,-116.81,-0.57
1741962945.33,-0.074,-0.043,0.154,0.613,0.109,0.045,-86.72,115.39,-127.31,-0.57
1741962945.35,-0.088,-0.020,0.157,0.560,0.119,0.052,-86.89,103.75,-139.07,-0.57
1741962945.37,-0.096,-0.002,0.151,0.471,0.021,0.033,-86.92,92.90,-150.00,-0.57
1741962945.39,-0.092,-0.006,0.137,0.391,-0.149,-0.019,-86.90,83.74,-159.08,-0.57
1741962945.41,-0.070,-0.020,0.090,0.358,-0.384,-0.045,-86.86,75.69,-166.82,-0.57
1741962945.43,0.003,-0.021,-0.101,0.681,-0.429,0.034,-86.71,66.06,-175.93,-0.57
1741962945.45,0.042,-0.024,-0.121,1.414,0.080,0.168,-85.98,50.99,169.22,-0.57
1741962945.47,-0.022,-0.015,-0.074,2.080,0.667,0.185,-84.36,36.65,154.38,-0.57
1741962945.49,-0.067,0.016,-0.096,2.301,0.962,0.149,-82.09,27.54,144.26,-0.57
1741962945.51,-0.021,-0.045,-0.030,1.975,0.880,0.117,-79.78,22.88,138.46,-0.50
1741962945.53,0.042,-0.071,0.037,1.727,0.902,0.121,-77.80,20.58,135.16,-0.50
1741962945.55,0.047,-0.104,0.011,1.995,0.854,0.120,-75.79,19.18,132.60,-0.50
1741962945.57,0.038,-0.130,-0.289,2.170,0.119,0.214,-73.44,17.51,130.35,-0.50
1741962945.59,0.092,-0.109,0.143,1.774,0.988,0.350,-71.15,16.90,129.14,-0.50
1741962945.61,0.122,-0.100,0.119,1.545,0.987,0.565,-69.24,18.04,128.95,-0.50
1741962945.63,0.138,-0.053,0.007,1.591,0.103,0.837,-67.29,19.02,129.47,-0.50
1741962945.65,0.015,0.001,0.137,1.806,0.495,0.833,-65.12,20.01,130.15,-0.50
1741962945.67,-0.059,-0.023,-0.160,1.862,0.377,0.623,-62.88,20.58,130.28,-0.50
1741962945.69,-0.012,-0.094,-0.033,1.993,0.816,0.516,-60.58,20.99,129.90,-0.50
1741962945.71,-0.121,-0.079,-0.094,1.738,0.000,0.418,-58.36,20.99,129.32,-0.50
1741962945.73,-0.140,0.008,0.182,1.599,0.459,0.426,-56.47,20.75,128.92,-0.50
1741962945.75,-0.024,-0.069,0.223,1.224,0.846,0.676,-54.68,21.59,128.80,-0.50
1741962945.77,0.174,-0.048,0.147,1.197,0.426,1.078,-53.13,22.91,129.59,-0.50
1741962945.79,0.128,0.121,-0.079,1.789,0.167,0.982,-51.04,23.82,130.30,-0.50
1741962945.81,-0.031,0.139,-0.031,1.624,-0.151,0.561,-48.85,23.79,130.26,-0.50
1741962945.83,0.065,0.001,0.061,1.338,0.173,0.670,-47.06,23.72,130.13,-0.50
1741962945.85,0.131,-0.048,0.068,1.378,0.004,0.856,-45.29,24.05,130.41,-0.50
1741962945.87,0.072,-0.103,0.152,1.669,0.119,0.795,-43.34,24.26,130.63,-0.50
1741962945.89,-0.069,-0.155,-0.010,1.903,-0.060,0.744,-41.09,24.28,130.51,-0.50
1741962945.91,-0.092,-0.043,-0.098,1.695,0.074,0.706,-38.83,24.14,130.37,-0.50
1741962945.93,0.016,0.056,0.055,1.251,0.325,0.683,-36.99,24.39,130.37,-0.50
1741962945.95,-0.010,0.018,0.030,1.328,0.226,0.815,-35.34,24.86,130.58,-0.50
1741962945.97,-0.059,-0.054,0.019,1.694,-0.095,0.735,-33.39,24.99,130.65,-0.50
1741962945.99,0.002,-0.039,0.101,2.073,-0.251,0.600,-31.13,24.70,130.36,-0.50
1741962946.01,0.035,0.001,-0.135,2.000,-0.625,0.447,-28.68,23.86,129.82,-0.50
1741962946.03,0.014,0.007,0.006,1.266,0.069,0.587,-26.78,23.40,129.50,-0.50
1741962946.05,-0.046,0.081,-0.033,1.467,0.092,0.753,-25.08,23.64,129.62,-0.50
1741962946.07,0.062,0.004,0.181,1.722,-0.055,0.692,-23.06,23.63,129.61,-0.50
1741962946.09,0.070,-0.014,0.375,2.097,-0.395,0.608,-20.78,23.39,129.38,-0.50
1741962946.11,-0.054,-0.003,-0.165,2.103,-0.922,0.480,-18.27,22.36,128.91,-0.50
1741962946.13,-0.175,0.032,-0.079,1.516,0.314,0.543,-16.15,21.96,128.61,-0.50
1741962946.15,-0.180,0.006,0.052,1.703,0.157,0.612,-14.25,22.29,128.53,-0.50
1741962946.17,-0.103,-0.063,0.324,2.064,0.073,0.517,-11.98,22.35,128.26,-0.50
1741962946.19,-0.118,-0.084,0.142,2.185,-0.686,0.531,-9.53,21.92,127.87,-0.50
1741962946.21,0.079,-0.021,-0.249,2.058,-0.444,0.550,-7.00,21.12,127.55,-0.50
1741962946.23,0.044,-0.121,-0.160,2.053,-0.156,0.372,-4.67,20.84,127.23,-0.50
1741962946.25,-0.061,-0.223,0.189,2.082,-0.176,0.364,-2.32,20.52,126.75,-0.50
1741962946.27,-0.118,-0.033,0.276,1.956,0.211,0.449,0.03,20.61,126.38,-0.50
1741962946.29,-0.009,0.251,0.025,2.018,0.233,0.626,2.36,20.90,126.15,-0.50
1741962946.31,0.172,0.316,-0.349,1.995,0.027,0.569,4.75,21.05,125.99,-0.50
1741962946.33,0.236,-0.258,-0.236,1.940,-0.509,0.440,7.06,20.81,125.72,-0.50
1741962946.35,0.081,-0.356,0.006,1.853,-0.143,0.379,9.25,20.40,125.36,-0.50
1741962946.37,-0.168,-0.044,0.093,1.537,0.173,0.554,11.26,20.53,125.19,-0.50
1741962946.39,-0.018,0.112,-0.175,1.509,0.372,0.500,13.11,20.88,125.15,-0.50
1741962946.41,0.096,0.079,-0.298,1.517,0.042,0.374,14.90,21.17,125.00,-0.50
1741962946.43,0.290,-0.036,-0.208,1.424,-0.309,0.335,16.60,21.06,124.73,-0.50
1741962946.45,0.083,0.021,-0.121,1.305,-0.302,0.452,18.24,20.73,124.61,-0.41
1741962946.47,-0.153,-0.005,-0.122,1.189,0.138,0.342,19.72,20.62,124.53,-0.41
1741962946.49,-0.195,-0.139,-0.159,0.951,0.494,0.126,20.98,21.11,124.36,-0.41
1741962946.51,0.250,-0.214,-0.209,0.725,0.191,-0.013,21.89,21.69,124.00,-0.41
1741962946.53,0.430,-0.149,-0.400,0.418,-0.271,0.083,22.49,21.69,123.78,-0.41
1741962946.55,-0.038,-0.210,-0.343,0.068,-0.082,0.077,22.81,21.42,123.78,-0.41
1741962946.57,-0.034,-0.359,-0.243,-0.352,0.304,-0.063,22.67,21.55,123.85,-0.41
1741962946.59,0.293,-0.334,-0.231,-0.762,0.439,-0.147,22.00,21.93,123.98,-0.41
1741962946.61,0.201,-0.165,-0.250,-1.171,0.353,-0.069,20.95,22.25,124.30,-0.41
1741962946.63,0.127,-0.130,-0.321,-1.398,0.521,-0.088,19.56,22.58,124.82,-0.41
1741962946.65,0.006,-0.168,-0.166,-1.630,0.647,-0.249,17.89,23.08,125.35,-0.41
1741962946.67,0.055,-0.124,-0.111,-1.778,0.585,-0.330,15.97,23.67,125.83,-0.41
1741962946.69,0.150,-0.018,-0.268,-1.865,0.294,-0.335,13.90,24.04,126.35,-0.41
1741962946.71,0.121,0.044,-0.209,-1.986,0.186,-0.348,11.74,24.17,126.90,-0.41
1741962946.73,0.082,-0.042,-0.104,-2.024,0.155,-0.409,9.48,24.29,127.46,-0.41
1741962946.75,0.043,-0.061,-0.061,-2.085,0.060,-0.462,7.11,24.29,127.97,-0.41
1741962946.77,-0.009,0.002,-0.155,-2.120,-0.074,-0.432,4.71,24.24,128.51,-0.41
1741962946.79,-0.030,0.078,-0.095,-2.128,-0.071,-0.502,2.29,24.13,129.01,-0.41
1741962946.81,0.005,-0.012,-0.053,-2.208,-0.046,-0.479,-0.21,24.02,129.51,-0.41
1741962946.83,-0.005,-0.127,0.063,-2.113,-0.119,-0.506,-2.71,24.01,130.01,-0.41
1741962946.85,0.001,-0.156,-0.045,-2.022,-0.319,-0.600,-5.11,23.71,130.39,-0.41
1741962946.87,-0.046,-0.059,-0.023,-2.129,-0.060,-0.687,-7.57,23.53,130.65,-0.41
1741962946.89,-0.046,-0.013,0.094,-2.198,0.037,-0.615,-10.16,23.58,130.96,-0.41
1741962946.91,0.012,-0.098,0.057,-2.038,-0.207,-0.474,-12.63,23.60,131.38,-0.41
1741962946.93,0.058,-0.173,0.005,-1.820,-0.297,-0.472,-14.85,23.36,131.78,-0.41
1741962946.95,-0.011,-0.162,0.023,-2.025,-0.067,-0.711,-17.09,23.18,132.04,-0.41
1741962946.97,-0.137,-0.134,0.067,-2.077,0.271,-0.810,-19.63,23.43,132.15,-0.41
1741962946.99,-0.072,-0.093,-0.029,-2.000,0.025,-0.662,-22.10,23.64,132.32,-0.41
1741962947.01,0.044,-0.061,-0.002,-1.871,-0.179,-0.654,-24.43,23.65,132.56,-0.41
1741962947.03,0.070,-0.057,0.024,-1.734,-0.308,-0.817,-26.64,23.38,132.62,-0.41
1741962947.05,0.074,-0.058,-0.072,-1.698,-0.295,-0.892,-28.81,22.95,132.45,-0.41
1741962947.07,0.057,-0.028,0.046,-1.970,-0.055,-0.842,-31.12,22.66,132.32,-0.41
1741962947.09,-0.020,-0.051,0.065,-2.041,-0.092,-0.787,-33.63,22.68,132.37,-0.41
1741962947.11,-0.071,-0.065,-0.028,-1.873,-0.333,-0.762,-36.02,22.41,132.42,-0.41
1741962947.13,0.007,-0.081,0.049,-1.885,-0.242,-0.724,-38.32,22.12,132.43,-0.41
1741962947.15,0.148,-0.116,0.011,-1.919,-0.377,-0.675,-40.64,21.84,132.54,-0.41
1741962947.17,0.147,-0.150,-0.041,-1.908,-0.477,-0.683,-42.95,21.39,132.65,-0.41
1741962947.19,0.044,-0.195,-0.023,-1.899,-0.241,-0.723,-45.26,21.03,132.71,-0.41
1741962947.21,-0.026,-0.206,0.036,-1.972,-0.155,-0.820,-47.64,20.77,132.66,-0.41
1741962947.23,0.010,-0.183,0.166,-2.155,-0.282,-0.785,-50.17,20.49,132.59,-0.41
1741962947.25,0.082,-0.121,0.105,-2.222,-0.475,-0.543,-52.80,20.24,132.83,-0.41
1741962947.27,0.100,-0.017,0.035,-2.147,-0.380,-0.305,-55.31,20.33,133.56,-0.41
1741962947.29,0.055,0.062,0.012,-2.063,-0.461,-0.285,-57.67,20.71,134.54,-0.41
1741962947.31,-0.008,0.052,0.091,-2.064,-0.835,-0.362,-60.01,20.77,135.49,-0.41
1741962947.33,-0.075,0.002,0.095,-1.888,-0.814,-0.414,-62.29,20.48,136.27,-0.41
1741962947.35,-0.092,-0.072,0.055,-1.849,-0.814,-0.295,-64.41,20.22,137.02,-0.41
1741962947.37,-0.061,-0.121,0.090,-2.092,-0.510,-0.115,-66.59,20.67,138.38,-0.41
1741962947.39,-0.038,-0.085,0.021,-2.112,-0.186,-0.107,-68.89,22.24,140.48,-0.41
1741962947.41,-0.030,-0.047,0.064,-1.958,-0.219,-0.275,-71.12,24.00,142.57,-0.31
1741962947.43,0.000,-0.007,0.088,-1.836,-0.381,-0.368,-73.24,25.37,144.38,-0.31
1741962947.45,0.005,0.025,0.043,-1.759,-0.482,-0.315,-75.26,26.79,146.37,-0.31
1741962947.47,-0.011,-0.013,0.068,-1.740,-0.423,-0.145,-77.14,29.12,149.33,-0.31
1741962947.49,-0.078,-0.053,0.146,-1.697,-0.253,-0.088,-78.90,33.08,153.76,-0.31
1741962947.51,-0.097,-0.087,0.053,-1.525,-0.140,-0.180,-80.48,38.11,159.10,-0.31
1741962947.53,-0.056,-0.120,-0.056,-1.423,-0.160,-0.309,-81.93,43.61,164.81,-0.31
1741962947.55,0.046,-0.113,-0.004,-1.480,-0.272,-0.279,-83.32,50.95,172.47,-0.31
1741962947.57,0.070,-0.056,0.061,-1.335,-0.303,-0.065,-84.39,62.03,-176.04,-0.31
1741962947.59,-0.002,-0.022,0.029,-1.387,0.075,0.198,-84.85,77.51,-160.32,-0.31
1741962947.61,-0.071,-0.034,-0.004,-1.421,0.653,0.165,-84.70,95.88,-142.29,-0.31
1741962947.63,-0.115,-0.022,-0.099,-1.159,0.812,-0.031,-84.26,111.75,-127.25,-0.31
1741962947.65,-0.137,0.009,-0.152,-0.675,0.604,-0.072,-83.86,121.88,-117.88,-0.31
1741962947.67,-0.137,0.038,-0.144,-0.354,0.310,-0.030,-83.58,126.94,-113.32,-0.31
1741962947.69,-0.054,0.069,-0.100,-0.277,0.081,-0.014,-83.40,129.58,-110.87,-0.31
1741962947.71,0.089,0.058,-0.084,-0.258,0.127,0.008,-83.19,131.78,-108.75,-0.31
1741962947.73,0.130,0.026,0.010,0.078,0.239,0.103,-83.06,132.51,-108.25,-0.31
1741962947.75,0.078,0.023,0.116,0.492,0.074,0.292,-83.12,129.36,-111.60,-0.31
1741962947.77,-0.002,-0.011,0.192,0.587,0.199,0.399,-83.17,123.14,-117.99,-0.31
1741962947.79,-0.080,-0.058,0.227,0.402,0.666,0.398,-83.06,117.49,-124.16,-0.31
1741962947.81,-0.140,-0.071,0.218,0.131,1.016,0.240,-82.85,114.95,-127.73,-0.31
1741962947.83,-0.157,0.023,0.171,-0.052,0.842,0.084,-82.71,115.23,-128.57,-0.31
1741962947.85,-0.132,0.072,0.102,-0.242,0.184,0.044,-82.58,116.67,-127.74,-0.31
1741962947.87,-0.093,0.013,-0.016,-0.588,-0.630,-0.123,-82.39,119.75,-124.36,-0.31
1741962947.89,0.002,-0.056,-0.074,-0.570,-1.142,-0.166,-82.17,123.80,-119.22,-0.31
1741962947.91,0.097,-0.038,-0.143,-0.209,-1.168,-0.050,-82.01,125.72,-115.90,-0.31
1741962947.93,0.119,0.043,-0.108,0.218,-0.583,0.074,-82.00,124.51,-116.02,-0.31
1741962947.95,0.049,0.076,0.032,0.463,0.119,0.151,-82.12,121.29,-118.96,-0.31
1741962947.97,-0.059,0.022,0.105,0.465,0.450,0.158,-82.22,117.48,-123.11,-0.31
1741962947.99,-0.140,-0.040,0.121,0.296,0.477,0.023,-82.32,114.76,-126.34,-0.31
1741962948.01,-0.145,-0.022,0.113,0.139,0.268,-0.043,-82.44,113.67,-127.84,-0.31
1741962948.03,-0.111,0.044,0.085,0.115,-0.080,-0.079,-82.55,113.03,-128.54,-0.31
1741962948.05,-0.084,0.050,0.073,0.105,-0.267,-0.119,-82.71,112.21,-129.08,-0.31
1741962948.07,-0.045,-0.022,0.089,0.140,-0.150,-0.125,-82.89,111.44,-129.56,-0.31
1741962948.09,-0.016,-0.071,0.100,0.259,-0.052,-0.093,-83.09,109.95,-130.92,-0.31
1741962948.11,-0.010,-0.027,0.071,0.266,-0.221,-0.016,-83.25,107.49,-133.22,-0.31
1741962948.13,-0.010,0.042,-0.028,0.169,-0.623,0.014,-83.32,105.02,-135.19,-0.31
1741962948.15,-0.013,0.035,-0.038,0.284,-0.795,0.039,-83.35,102.20,-137.13,-0.31
1741962948.17,-0.048,-0.009,0.046,0.572,-0.620,0.075,-83.36,97.13,-141.34,-0.31
1741962948.18,-0.092,-0.030,0.125,0.772,-0.312,0.085,-83.32,89.87,-148.07,-0.31
1741962948.21,-0.125,-0.030,0.131,0.843,-0.134,0.065,-83.16,81.85,-155.86,-0.31
1741962948.23,-0.141,-0.006,0.059,0.883,-0.237,-0.006,-82.92,73.89,-163.64,-0.31
1741962948.25,-0.117,-0.001,-0.003,1.100,-0.327,-0.049,-82.57,65.26,-171.90,-0.31
1741962948.26,-0.116,-0.017,0.034,1.455,0.079,-0.072,-81.90,55.51,178.48,-0.31
1741962948.29,-0.109,-0.025,0.078,1.710,0.603,-0.062,-80.82,46.24,168.75,-0.31
1741962948.30,-0.079,-0.050,0.131,1.799,1.043,-0.016,-79.36,39.22,160.66,-0.31
1741962948.32,-0.032,-0.067,-0.090,1.990,0.817,-0.019,-77.65,33.96,154.18,-0.31
1741962948.34,0.010,-0.019,-0.155,2.168,0.478,-0.019,-75.62,29.34,148.68,-0.30
1741962948.36,0.039,0.009,-0.176,1.929,0.106,-0.088,-73.52,25.47,144.39,-0.30
1741962948.38,0.088,-0.022,0.105,1.551,1.135,-0.131,-71.79,23.05,141.23,-0.30
1741962948.40,0.095,-0.116,0.081,1.466,1.489,0.155,-70.23,22.80,139.18,-0.30
1741962948.42,0.070,-0.164,-0.146,1.644,0.526,0.519,-68.46,23.09,138.28,-0.30
1741962948.44,0.096,-0.142,0.000,1.776,0.312,0.653,-66.36,23.13,137.93,-0.30
1741962948.46,0.025,-0.111,0.041,1.808,0.722,0.572,-64.21,23.43,137.55,-0.30
1741962948.48,-0.003,-0.076,-0.089,1.594,0.734,0.454,-62.16,23.69,136.99,-0.30
1741962948.50,0.140,-0.045,0.256,1.306,1.248,0.550,-60.44,24.54,136.63,-0.30
1741962948.52,0.166,-0.033,0.165,1.531,0.898,0.750,-58.70,25.90,136.63,-0.30
1741962948.54,-0.036,-0.003,-0.203,1.812,-1.125,0.811,-56.59,25.77,136.56,-0.30
1741962948.56,-0.026,0.006,-0.022,1.926,-0.311,0.710,-54.21,24.44,136.34,-0.30
1741962948.58,-0.032,-0.036,0.126,1.316,0.424,0.455,-52.26,24.51,136.04,-0.30
1741962948.60,-0.040,0.038,0.100,1.381,0.105,0.431,-50.71,24.59,135.75,-0.30
1741962948.62,-0.012,0.128,0.124,1.947,-0.020,0.534,-48.77,24.31,135.30,-0.30
1741962948.64,-0.172,0.098,-0.223,2.066,-0.701,0.490,-46.36,23.41,134.68,-0.30
1741962948.66,-0.115,0.012,-0.040,1.725,0.140,0.317,-44.17,22.57,134.05,-0.30
1741962948.68,-0.013,-0.034,0.126,1.424,0.368,0.330,-42.41,22.66,133.54,-0.30
1741962948.70,0.101,0.037,0.240,1.535,-0.217,0.471,-40.70,22.54,133.23,-0.30
1741962948.72,0.102,0.056,0.153,1.947,-0.374,0.628,-38.64,22.05,132.98,-0.30
1741962948.74,-0.064,0.026,-0.089,1.987,-0.332,0.666,-36.20,21.46,132.73,-0.30
1741962948.76,-0.039,-0.059,-0.004,1.541,0.267,0.656,-34.05,21.37,132.66,-0.30
1741962948.78,0.054,-0.137,0.100,1.516,0.240,0.608,-32.20,21.81,132.69,-0.30
1741962948.80,0.133,-0.106,0.183,1.751,-0.233,0.546,-30.23,21.75,132.56,-0.30
1741962948.82,0.019,0.041,0.066,1.894,-0.382,0.500,-28.06,21.23,132.28,-0.30
1741962948.84,-0.155,0.134,-0.085,1.833,-0.262,0.467,-25.86,20.73,131.95,-0.30
1741962948.86,-0.180,0.065,-0.035,1.710,-0.019,0.384,-23.80,20.45,131.63,-0.30
1741962948.88,-0.112,-0.052,-0.043,1.718,-0.035,0.338,-21.83,20.32,131.25,-0.30
1741962948.90,0.073,-0.025,0.112,1.823,0.041,0.398,-19.80,20.21,130.86,-0.30
1741962948.92,0.025,0.061,0.106,1.888,-0.414,0.454,-17.63,19.90,130.53,-0.30
1741962948.94,-0.168,0.009,-0.015,1.776,-0.341,0.416,-15.51,19.35,130.24,-0.30
1741962948.96,-0.169,-0.264,-0.037,1.893,0.012,0.441,-13.32,19.17,129.94,-0.30
1741962948.98,0.077,-0.368,0.185,1.961,-0.030,0.291,-11.14,19.11,129.58,-0.30
1741962949.00,0.174,-0.177,0.156,2.068,0.055,0.134,-8.86,19.01,129.00,-0.30
1741962949.02,0.009,0.014,-0.163,1.826,0.255,0.485,-6.66,19.09,128.62,-0.30
1741962949.04,-0.113,0.036,-0.001,1.769,0.408,0.492,-4.52,19.51,128.48,-0.30
1741962949.06,0.151,-0.064,0.120,1.862,0.072,0.448,-2.40,19.80,128.30,-0.30
1741962949.08,0.076,0.103,0.207,1.945,-0.182,0.511,-0.17,19.73,128.05,-0.30
1741962949.10,0.016,0.135,-0.052,1.867,-0.252,0.538,2.06,19.42,127.89,-0.30
1741962949.12,0.039,0.017,-0.141,1.971,-0.474,0.439,4.34,19.02,127.71,-0.30
1741962949.14,0.027,-0.192,0.001,1.990,-0.456,0.393,6.62,18.49,127.43,-0.30
1741962949.16,-0.096,-0.259,0.127,1.874,-0.127,0.415,8.88,18.18,127.15,-0.30
1741962949.18,-0.033,-0.097,0.024,1.727,0.318,0.485,10.98,18.30,127.00,-0.30
1741962949.20,0.060,0.119,-0.101,1.651,0.595,0.600,13.00,18.87,126.98,-0.30
1741962949.22,0.122,0.294,-0.250,1.726,0.266,0.668,15.06,19.40,127.06,-0.30
1741962949.24,0.227,0.072,-0.246,1.673,-0.091,0.594,17.15,19.49,127.08,-0.30
1741962949.26,0.126,-0.158,-0.151,1.523,-0.106,0.662,19.14,19.31,127.12,-0.30
1741962949.28,-0.120,0.027,-0.194,1.450,0.230,0.683,20.95,19.30,127.34,-0.30
1741962949.30,-0.242,0.126,-0.269,1.401,0.225,0.401,22.71,19.57,127.40,-0.25
1741962949.32,0.018,-0.091,-0.215,1.186,0.099,0.125,24.23,19.92,127.12,-0.25
1741962949.34,0.317,-0.247,-0.373,0.917,-0.328,0.165,25.41,19.90,126.82,-0.25
1741962949.36,0.104,-0.170,-0.244,0.668,-0.433,0.156,26.33,19.46,126.69,-0.25
1741962949.38,-0.066,-0.152,-0.102,0.397,-0.101,0.047,26.95,19.18,126.60,-0.25
1741962949.40,0.006,-0.192,-0.049,0.201,0.244,-0.108,27.24,19.34,126.43,-0.25
1741962949.42,0.210,-0.294,-0.126,-0.134,0.234,-0.163,27.23,19.76,126.25,-0.25
1741962949.44,0.272,-0.327,-0.269,-0.456,0.134,-0.092,26.88,19.97,126.20,-0.25
1741962949.46,0.175,-0.189,-0.225,-0.821,0.365,0.035,26.18,20.11,126.46,-0.25
1741962949.48,0.032,-0.176,-0.239,-1.138,0.570,0.007,25.13,20.42,126.93,-0.25
1741962949.50,0.054,-0.138,-0.132,-1.427,0.783,-0.110,23.76,21.02,127.44,-0.25
1741962949.52,0.171,-0.107,-0.306,-1.587,0.628,-0.191,22.07,21.65,127.95,-0.25
1741962949.54,0.121,-0.020,-0.369,-1.783,0.364,-0.218,20.20,22.03,128.48,-0.25
1741962949.56,0.037,0.014,-0.266,-1.831,0.297,-0.305,18.17,22.21,129.02,-0.25
1741962949.58,-0.080,0.013,-0.112,-1.919,0.417,-0.462,16.03,22.48,129.44,-0.25
1741962949.60,-0.058,-0.026,-0.042,-1.922,0.361,-0.513,13.77,22.84,129.79,-0.25
1741962949.62,-0.002,-0.062,-0.154,-1.912,0.148,-0.510,11.53,23.08,130.11,-0.25
1741962949.64,0.018,0.016,-0.166,-1.908,0.133,-0.594,9.27,23.18,130.40,-0.25
1741962949.66,-0.011,0.023,-0.011,-1.919,-0.008,-0.633,7.00,23.23,130.61,-0.25
1741962949.68,0.035,-0.061,0.003,-2.053,0.097,-0.538,4.64,23.24,130.87,-0.25
1741962949.70,0.097,-0.122,-0.059,-2.086,0.018,-0.357,2.27,23.31,131.35,-0.25
1741962949.72,0.019,-0.061,-0.055,-2.025,-0.123,-0.431,-0.05,23.22,131.89,-0.25
1741962949.74,-0.111,-0.031,0.045,-2.005,0.090,-0.601,-2.40,23.19,132.25,-0.25
1741962949.76,-0.072,-0.091,0.046,-2.025,-0.004,-0.542,-4.77,23.28,132.54,-0.25
1741962949.78,0.020,-0.120,-0.002,-1.941,-0.032,-0.454,-7.10,23.29,132.93,-0.25
1741962949.80,-0.042,-0.126,-0.037,-1.846,0.107,-0.608,-9.30,23.36,133.24,-0.25
1741962949.82,-0.185,-0.105,0.071,-1.961,0.339,-0.834,-11.64,23.60,133.36,-0.25
1741962949.84,-0.168,-0.152,-0.035,-1.916,0.359,-0.853,-14.04,24.05,133.33,-0.25
1741962949.86,0.086,-0.136,0.078,-2.052,0.395,-0.665,-16.48,24.51,133.47,-0.25
1741962949.88,0.175,-0.140,-0.009,-1.807,0.017,-0.473,-18.77,24.89,133.85,-0.25
1741962949.90,0.089,-0.081,0.068,-1.710,-0.081,-0.683,-20.82,24.89,134.13,-0.25
1741962949.92,-0.003,-0.082,-0.018,-1.901,-0.087,-0.851,-23.07,24.82,134.16,-0.25
1741962949.94,0.040,-0.106,-0.029,-2.096,0.218,-0.659,-25.51,24.94,134.35,-0.25
1741962949.96,0.024,-0.094,0.020,-2.107,0.311,-0.624,-28.01,25.49,134.79,-0.25
1741962949.98,-0.019,-0.057,0.029,-1.927,0.141,-0.804,-30.43,25.91,135.11,-0.25
1741962950.00,0.021,-0.021,0.058,-1.908,-0.076,-0.904,-32.82,25.99,135.18,-0.25
1741962950.02,0.103,-0.077,0.011,-1.895,-0.180,-0.729,-35.20,25.88,135.29,-0.25
1741962950.04,0.089,-0.135,-0.100,-1.872,-0.362,-0.571,-37.44,25.81,135.66,-0.25
1741962950.06,-0.020,-0.130,0.074,-1.910,-0.380,-0.710,-39.69,25.60,136.03,-0.25
1741962950.08,-0.121,-0.075,0.160,-1.931,-0.353,-0.915,-42.08,25.27,136.16,-0.25
1741962950.10,-0.047,-0.034,0.052,-1.923,-0.323,-0.787,-44.50,24.87,136.17,-0.25
1741962950.12,0.123,-0.047,0.073,-1.979,-0.147,-0.396,-46.81,24.95,136.64,-0.25
1741962950.14,0.174,-0.103,-0.053,-1.926,-0.303,-0.172,-48.96,25.48,137.67,-0.25
1741962950.16,0.075,-0.109,0.013,-1.794,-0.362,-0.323,-50.98,25.90,138.75,-0.25
1741962950.18,-0.072,-0.068,0.136,-1.913,-0.378,-0.617,-53.10,26.05,139.45,-0.25
1741962950.20,-0.138,-0.060,0.053,-1.889,-0.628,-0.711,-55.43,25.84,139.89,-0.25
1741962950.22,-0.083,-0.054,-0.033,-1.786,-0.874,-0.491,-57.61,25.35,140.36,-0.25
1741962950.24,0.026,-0.045,0.095,-1.884,-0.758,-0.140,-59.66,25.32,141.45,-0.25
1741962950.26,0.079,-0.006,0.120,-1.961,-0.539,0.078,-61.65,26.26,143.38,-0.25
1741962950.28,0.082,-0.002,0.047,-1.940,-0.282,0.001,-63.61,27.89,145.73,-0.25
1741962950.30,0.054,-0.039,0.018,-1.864,-0.192,-0.264,-65.58,29.57,147.86,-0.25
1741962950.32,0.011,-0.066,0.030,-1.880,-0.381,-0.488,-67.64,30.84,149.59,-0.25
1741962950.34,0.018,-0.043,0.083,-1.913,-0.415,-0.456,-69.79,32.04,151.38,-0.25
1741962950.36,-0.007,-0.008,0.082,-1.790,-0.452,-0.262,-71.80,33.89,153.86,-0.25
1741962950.38,-0.073,-0.017,0.034,-1.612,-0.529,-0.137,-73.50,36.31,156.99,-0.25
1741962950.40,-0.111,-0.065,-0.058,-1.657,-0.526,-0.160,-75.06,39.26,160.70,-0.25
1741962950.42,-0.077,-0.123,-0.028,-1.681,-0.221,-0.264,-76.68,43.16,165.18,-0.25
1741962950.44,-0.003,-0.163,0.053,-1.480,-0.044,-0.267,-78.18,47.83,170.07,-0.25
1741962950.46,0.035,-0.131,0.052,-1.253,-0.318,-0.095,-79.34,52.99,175.53,-0.25
1741962950.48,0.019,-0.047,0.031,-1.195,-0.308,0.094,-80.10,58.89,-178.08,-0.25
1741962950.50,-0.045,-0.005,0.000,-1.330,-0.155,0.100,-80.65,66.49,-170.08,-0.25
1741962950.52,-0.101,0.013,-0.023,-1.511,0.168,-0.053,-81.14,76.15,-160.30,-0.25
1741962950.54,-0.077,0.030,-0.009,-1.485,0.443,-0.191,-81.54,87.73,-148.97,-0.25
1741962950.56,-0.052,0.035,-0.000,-1.168,0.511,-0.174,-81.67,98.75,-138.39,-0.25
1741962950.58,-0.053,0.007,-0.057,-0.889,0.405,-0.095,-81.56,107.17,-130.42,-0.25
1741962950.60,-0.066,-0.038,-0.099,-0.769,0.315,-0.061,-81.31,113.63,-124.30,-0.25
1741962950.62,-0.019,-0.008,-0.060,-0.690,0.326,-0.032,-80.99,118.95,-119.27,-0.25
1741962950.64,0.031,0.004,0.034,-0.554,0.505,0.088,-80.60,123.12,-115.52,-0.25
1741962950.66,0.012,-0.050,0.071,-0.368,0.747,0.197,-80.17,125.89,-113.43,-0.25
1741962950.68,-0.018,-0.045,0.071,-0.081,0.803,0.277,-79.80,127.06,-113.16,-0.25
1741962950.70,-0.048,0.009,0.096,0.105,0.791,0.325,-79.54,126.68,-114.47,-0.25
1741962950.72,-0.092,0.043,0.108,0.094,0.861,0.304,-79.31,125.90,-116.21,-0.25
1741962950.74,-0.123,0.060,0.092,0.008,0.865,0.195,-79.12,125.77,-117.36,-0.25
1741962950.76,-0.131,0.066,0.062,-0.087,0.590,0.044,-78.98,126.40,-117.60,-0.25
1741962950.78,-0.108,0.040,0.032,-0.179,0.098,-0.105,-78.92,127.55,-116.83,-0.25
1741962950.80,-0.044,0.007,0.026,-0.223,-0.282,-0.144,-78.89,128.85,-115.38,-0.25
1741962950.82,0.017,-0.017,0.021,-0.190,-0.382,-0.111,-78.85,129.88,-113.92,-0.25
1741962950.84,0.055,-0.013,0.017,-0.112,-0.253,-0.050,-78.81,130.46,-112.94,-0.25
1741962950.86,0.042,0.009,-0.001,-0.074,-0.027,0.020,-78.75,130.76,-112.48,-0.25
1741962950.88,-0.014,0.016,-0.013,-0.011,0.046,0.042,-78.69,130.83,-112.40,-0.25
1741962950.90,-0.055,0.009,-0.014,0.039,-0.005,0.030,-78.67,130.66,-112.55,-0.25
1741962950.92,-0.081,0.006,-0.005,0.055,-0.043,0.000,-78.69,130.34,-112.77,-0.25
1741962950.94,-0.084,-0.006,0.007,0.069,-0.047,-0.048,-78.75,130.10,-112.90,-0.25
1741962950.96,-0.053,-0.012,0.019,0.121,-0.072,-0.071,-78.87,129.84,-113.05,-0.25
1741962950.98,-0.013,0.003,0.037,0.148,-0.060,-0.071,-79.04,129.42,-113.34,-0.25
1741962951.00,0.004,0.005,0.050,0.082,0.011,-0.041,-79.19,129.07,-113.61,-0.25
1741962951.02,0.005,-0.016,0.044,-0.001,0.086,-0.026,-79.25,129.14,-113.55,-0.25
1741962951.04,0.021,-0.009,0.023,-0.019,0.064,-0.019,-79.27,129.44,-113.30,-0.25
1741962951.06,0.040,0.016,-0.003,-0.074,0.055,-0.008,-79.25,129.76,-112.98,-0.25
1741962951.08,0.031,-0.005,-0.037,-0.097,0.040,-0.005,-79.18,130.34,-112.42,-0.25
1741962951.10,-0.004,-0.014,-0.047,-0.002,-0.034,0.019,-79.13,130.55,-112.16,-0.25
1741962951.12,-0.028,0.004,-0.035,0.028,-0.034,-0.016,-79.14,130.41,-112.22,-0.25
1741962951.14,-0.006,0.011,-0.034,-0.003,-0.015,-0.015,-79.15,130.37,-112.19,-0.25
1741962951.16,0.015,0.010,-0.027,0.027,0.040,-0.028,-79.17,130.38,-112.14,-0.25
1741962951.18,0.026,-0.016,-0.012,0.062,0.050,-0.019,-79.24,130.23,-112.32,-0.25
1741962951.20,0.048,-0.016,-0.008,0.021,0.036,0.014,-79.30,130.04,-112.52,-0.25
1741962951.22,0.048,0.008,-0.033,-0.063,-0.051,0.031,-79.27,130.00,-112.53,-0.25
1741962951.24,0.028,0.016,-0.047,-0.065,-0.144,0.030,-79.19,130.04,-112.33,-0.25
1741962951.26,0.008,0.006,-0.025,-0.005,-0.116,0.028,-79.14,129.87,-112.29,-0.25
1741962951.28,-0.012,-0.010,0.007,0.037,-0.044,0.051,-79.10,129.45,-112.58,-0.25
1741962951.30,-0.038,0.003,0.034,0.003,0.034,0.053,-79.06,128.96,-113.01,-0.25
1741962951.32,-0.050,0.009,0.010,-0.079,0.072,0.031,-78.99,128.99,-113.01,-0.25
1741962951.34,-0.033,0.007,-0.022,0.005,0.035,0.012,-78.94,129.19,-112.83,-0.25
1741962951.36,-0.029,0.008,-0.003,0.172,-0.010,0.019,-78.99,128.74,-113.27,-0.25
1741962951.38,-0.032,-0.001,0.045,0.209,0.026,0.034,-79.11,127.77,-114.22,-0.25
1741962951.40,-0.033,-0.011,0.074,0.172,0.063,0.038,-79.22,126.87,-115.16,-0.25
1741962951.41,-0.036,-0.024,0.083,0.149,0.031,0.034,-79.30,126.06,-116.02,-0.25
1741962951.43,-0.035,-0.012,0.085,0.180,-0.067,0.041,-79.39,125.16,-116.89,-0.25
1741962951.45,-0.033,0.019,0.090,0.216,-0.132,0.072,-79.46,123.89,-118.04,-0.25
1741962951.47,-0.047,0.027,0.095,0.228,-0.129,0.067,-79.53,122.43,-119.35,-0.25
1741962951.49,-0.065,0.003,0.094,0.250,-0.126,0.074,-79.61,120.96,-120.68,-0.25
1741962951.51,-0.085,-0.007,0.094,0.284,-0.111,0.111,-79.66,119.43,-122.10,-0.25
1741962951.53,-0.100,0.003,0.093,0.322,-0.115,0.127,-79.70,117.61,-123.81,-0.25
1741962951.55,-0.113,0.013,0.086,0.357,-0.169,0.088,-79.76,115.36,-125.93,-0.25
1741962951.57,-0.117,0.008,0.074,0.391,-0.297,0.023,-79.88,112.79,-128.27,-0.25
1741962951.59,-0.116,-0.001,0.063,0.405,-0.469,-0.040,-80.06,109.98,-130.66,-0.25
1741962951.61,-0.100,-0.012,0.042,0.408,-0.683,-0.073,-80.27,106.92,-133.11,-0.25
1741962951.63,-0.057,0.005,-0.056,0.416,-1.109,-0.105,-80.49,103.43,-135.62,-0.25
1741962951.65,0.010,-0.011,-0.131,0.585,-1.421,-0.120,-80.72,98.83,-138.77,-0.25
1741962951.67,0.034,-0.034,-0.110,0.910,-1.237,-0.153,-80.95,92.16,-143.95,-0.25
1741962951.69,0.035,-0.047,-0.067,1.352,-0.707,-0.203,-81.10,82.81,-152.25,-0.25
1741962951.71,0.027,-0.086,0.018,1.791,-0.022,-0.137,-80.90,71.05,-163.69,-0.25
1741962951.73,0.024,-0.060,0.043,2.178,0.612,0.058,-79.97,58.98,-176.28,-0.25
1741962951.75,-0.022,0.009,0.023,2.296,0.722,0.290,-78.29,49.46,173.24,-0.25
1741962951.77,-0.070,-0.013,0.088,2.047,1.057,0.362,-76.27,43.52,166.23,-0.25
1741962951.79,-0.156,-0.060,0.152,1.709,1.519,0.213,-74.47,40.60,161.63,-0.25
1741962951.81,-0.149,-0.035,-0.038,1.876,1.210,0.114,-72.81,38.28,157.55,-0.25
1741962951.83,-0.104,0.065,-0.028,1.688,0.686,0.072,-71.04,35.76,153.74,-0.25
1741962951.85,-0.039,0.098,0.047,1.208,0.021,-0.034,-69.71,33.59,151.03,-0.25
1741962951.87,0.040,0.034,-0.087,1.454,0.119,0.002,-68.48,31.48,148.74,-0.25
1741962951.89,0.151,-0.052,0.034,1.576,0.546,0.011,-66.95,29.66,146.36,-0.25
1741962951.91,0.210,-0.154,0.065,1.495,0.690,0.233,-65.36,28.76,144.43,-0.25
1741962951.93,0.107,-0.159,-0.156,1.331,-0.472,0.502,-63.75,28.10,143.54,-0.25
1741962951.95,-0.054,-0.132,-0.029,1.392,0.024,0.485,-62.10,27.26,143.08,-0.25
1741962951.97,-0.078,-0.105,0.159,1.238,1.088,0.376,-60.54,27.48,142.48,-0.25
1741962951.99,0.009,-0.033,0.107,1.400,1.156,0.488,-59.02,28.40,141.95,-0.25
1741962952.01,0.024,0.104,0.069,1.511,0.493,0.524,-57.25,28.93,141.35,-0.25
1741962952.03,0.059,0.079,0.019,1.509,0.084,0.620,-55.41,28.77,140.82,-0.25
1741962952.05,0.116,-0.017,-0.032,1.425,0.065,0.729,-53.60,28.67,140.61,-0.25
1741962952.07,0.115,-0.061,0.019,1.569,0.222,0.609,-51.71,28.66,140.34,-0.25
1741962952.09,0.062,-0.057,0.165,1.569,0.099,0.463,-49.85,28.49,139.77,-0.25
1741962952.11,-0.012,-0.088,-0.002,1.585,-0.453,0.571,-47.99,27.86,139.18,-0.25
1741962952.13,0.106,-0.061,-0.040,1.380,-0.656,0.841,-46.09,27.12,139.05,-0.25
1741962952.15,0.094,-0.006,0.064,1.271,-0.329,0.726,-44.34,26.74,139.23,-0.25
1741962952.17,-0.038,-0.002,0.067,1.589,-0.136,0.469,-42.61,26.31,139.04,-0.25
1741962952.19,-0.095,-0.029,-0.078,1.836,0.023,0.462,-40.58,25.91,138.44,-0.25
1741962952.21,-0.052,-0.074,0.007,1.387,0.105,0.617,-38.63,25.74,138.07,-0.25
1741962952.23,0.028,-0.085,0.062,1.377,-0.114,0.692,-36.93,25.82,138.07,-0.25
1741962952.25,0.028,-0.043,0.063,1.619,-0.343,0.601,-35.06,25.47,137.95,-0.25
1741962952.27,-0.069,0.025,-0.023,1.759,-0.432,0.460,-33.05,24.82,137.58,-0.25
1741962952.29,-0.170,-0.006,-0.122,1.766,-0.167,0.346,-31.00,24.19,137.04,-0.25
1741962952.31,-0.121,-0.052,0.056,1.500,0.164,0.331,-29.15,23.98,136.54,-0.25
1741962952.33,-0.033,-0.015,0.136,1.594,0.072,0.405,-27.39,23.97,136.14,-0.25
1741962952.35,0.082,0.048,0.179,1.837,-0.434,0.525,-25.38,23.64,135.75,-0.25
1741962952.37,0.173,0.083,-0.081,1.949,-0.712,0.530,-23.13,22.79,135.39,-0.25
1741962952.39,-0.041,0.042,-0.143,1.613,-0.046,0.298,-21.03,22.16,134.94,-0.25
1741962952.41,-0.237,0.036,0.119,1.504,0.103,0.267,-19.32,22.13,134.49,-0.25
1741962952.43,-0.155,-0.008,0.186,1.811,-0.175,0.326,-17.45,21.98,134.02,-0.25
1741962952.45,0.077,-0.089,0.078,2.198,-0.501,0.282,-15.19,21.44,133.44,-0.25
1741962952.47,0.121,-0.197,-0.135,2.266,-0.879,0.050,-12.68,20.46,132.60,-0.25
1741962952.49,-0.127,-0.185,-0.026,1.838,-0.158,0.016,-10.48,19.62,131.73,-0.25
1741962952.51,-0.318,0.036,0.005,1.587,0.284,0.134,-8.63,19.66,131.12,-0.25
1741962952.53,0.052,0.040,0.105,1.729,0.228,0.208,-6.81,19.95,130.63,-0.25
1741962952.55,0.419,-0.027,0.138,2.045,-0.578,0.351,-4.67,19.71,130.22,-0.25
1741962952.57,0.225,-0.225,0.129,1.919,-0.633,0.448,-2.33,18.88,129.85,-0.25
1741962952.59,-0.134,-0.219,-0.078,1.651,0.164,0.660,-0.22,18.61,129.84,-0.25
1741962952.61,-0.177,0.199,-0.046,1.588,0.427,0.656,1.75,18.99,129.96,-0.25
1741962952.63,0.039,0.383,0.010,1.663,-0.040,0.653,3.75,19.26,130.07,-0.25
1741962952.65,0.250,-0.062,-0.059,1.816,-0.386,0.591,5.90,19.03,130.09,-0.25
1741962952.67,0.030,-0.295,-0.096,1.725,-0.517,0.494,7.99,18.45,130.00,-0.25
1741962952.69,-0.255,-0.127,-0.087,1.610,-0.062,0.519,9.98,18.09,129.97,-0.25
1741962952.71,-0.070,0.104,0.011,1.533,0.249,0.480,11.87,18.27,129.94,-0.25
1741962952.73,0.007,0.260,-0.033,1.609,0.147,0.413,13.75,18.54,129.87,-0.25
1741962952.75,0.123,0.090,-0.213,1.597,-0.182,0.330,15.61,18.56,129.68,-0.25
1741962952.77,0.241,-0.226,-0.159,1.430,-0.396,0.322,17.37,18.26,129.46,-0.25
1741962952.79,0.106,-0.184,-0.155,1.225,-0.240,0.403,18.95,17.90,129.38,-0.25
1741962952.81,-0.076,0.045,-0.240,1.095,0.039,0.394,20.34,17.78,129.44,-0.25
1741962952.83,-0.029,0.027,-0.217,0.939,0.199,0.159,21.56,17.94,129.38,-0.25
1741962952.85,0.206,-0.202,-0.370,0.586,0.042,-0.008,22.43,18.22,129.16,-0.25
1741962952.87,0.255,-0.338,-0.402,0.208,-0.201,0.007,22.87,18.15,128.98,-0.25
1741962952.89,0.098,-0.230,-0.438,-0.227,-0.125,0.016,22.87,17.92,129.02,-0.25
1741962952.91,-0.056,-0.212,-0.313,-0.628,0.284,-0.106,22.39,17.98,129.13,-0.25
1741962952.93,0.021,-0.171,-0.313,-0.974,0.490,-0.240,21.45,18.40,129.24,-0.25
1741962952.95,0.164,-0.126,-0.372,-1.225,0.409,-0.316,20.14,18.90,129.35,-0.25
1741962952.97,0.155,-0.108,-0.256,-1.481,0.360,-0.339,18.57,19.26,129.50,-0.25
1741962952.99,0.047,-0.063,-0.242,-1.657,0.417,-0.359,16.73,19.64,129.75,-0.25
1741962953.01,-0.043,-0.065,-0.165,-1.763,0.510,-0.441,14.74,20.12,129.99,-0.25
1741962953.03,0.040,-0.020,-0.122,-1.812,0.460,-0.497,12.64,20.62,130.20,-0.25
1741962953.05,0.059,-0.009,-0.086,-1.896,0.310,-0.485,10.44,21.01,130.43,-0.25
1741962953.07,0.021,0.012,-0.123,-1.930,0.309,-0.458,8.22,21.33,130.73,-0.25
1741962953.09,-0.049,-0.004,-0.062,-1.883,0.276,-0.537,5.98,21.62,131.01,-0.25
1741962953.11,-0.030,-0.081,0.007,-1.938,0.148,-0.568,3.71,21.81,131.22,-0.25
1741962953.13,0.058,-0.075,-0.012,-1.912,0.188,-0.444,1.46,22.00,131.49,-0.25
1741962953.15,0.017,-0.001,-0.010,-1.897,0.252,-0.403,-0.74,22.26,131.89,-0.25
1741962953.17,-0.042,-0.032,0.026,-1.924,0.162,-0.516,-2.95,22.50,132.23,-0.25
1741962953.19,-0.004,-0.141,0.039,-2.028,0.230,-0.460,-5.26,22.75,132.57,-0.25
1741962953.21,0.103,-0.161,0.014,-1.944,0.111,-0.334,-7.54,23.01,133.05,-0.25
1741962953.23,0.064,-0.099,0.116,-1.767,-0.126,-0.393,-9.64,23.10,133.53,-0.25
1741962953.25,-0.089,-0.103,0.046,-1.532,-0.507,-0.533,-11.59,22.78,133.78,-0.25
1741962953.27,-0.246,-0.120,-0.045,-1.437,-0.121,-0.606,-13.38,22.33,133.81,-0.25
1741962953.29,-0.160,-0.132,-0.036,-1.572,0.382,-0.559,-15.22,22.55,133.85,-0.25
1741962953.31,-0.071,-0.138,0.029,-1.621,0.296,-0.555,-17.15,23.02,133.98,-0.25
1741962953.33,-0.028,-0.128,0.053,-1.671,0.116,-0.571,-19.13,23.27,134.14,-0.25
1741962953.35,0.008,-0.101,0.046,-1.661,0.292,-0.616,-21.16,23.54,134.27,-0.25
1741962953.37,0.110,-0.090,-0.073,-1.748,0.381,-0.538,-23.19,24.01,134.46,-0.25
1741962953.39,0.157,-0.062,-0.039,-1.934,0.344,-0.507,-25.35,24.59,134.83,-0.25
1741962953.41,0.116,-0.050,0.122,-1.940,0.230,-0.553,-27.63,25.11,135.27,-0.25
1741962953.43,0.058,-0.036,0.048,-1.825,0.010,-0.569,-29.85,25.44,135.64,-0.25
1741962953.45,0.041,-0.024,-0.029,-1.814,0.115,-0.519,-31.97,25.65,136.02,-0.25
1741962953.47,0.049,-0.041,0.024,-2.023,0.296,-0.514,-34.19,26.21,136.53,-0.25
1741962953.49,0.058,-0.071,0.021,-2.099,0.077,-0.488,-36.58,26.83,137.19,-0.25
1741962953.51,0.042,-0.078,-0.047,-1.881,-0.234,-0.403,-38.84,27.20,137.95,-0.25
1741962953.53,-0.075,-0.017,0.047,-1.772,-0.316,-0.548,-40.92,27.27,138.56,-0.25
1741962953.55,-0.074,-0.064,-0.024,-1.819,-0.439,-0.585,-43.05,27.15,139.01,-0.25
1741962953.57,0.055,-0.142,-0.069,-1.873,-0.349,-0.403,-45.18,27.11,139.65,-0.25
1741962953.59,0.133,-0.166,0.006,-1.956,-0.312,-0.330,-47.32,27.44,140.59,-0.25
1741962953.61,0.106,-0.122,0.130,-1.934,-0.481,-0.383,-49.47,27.75,141.60,-0.25
1741962953.63,0.065,-0.049,0.018,-1.901,-0.637,-0.447,-51.63,27.84,142.55,-0.25
1741962953.65,0.056,-0.031,0.001,-1.937,-0.671,-0.415,-53.81,27.83,143.50,-0.25
1741962953.67,0.045,-0.053,0.068,-2.004,-0.633,-0.249,-55.97,28.10,144.73,-0.25
1741962953.69,0.009,-0.046,0.159,-2.090,-0.656,-0.041,-58.11,28.87,146.52,-0.25
1741962953.71,-0.008,-0.003,0.117,-2.093,-0.694,0.072,-60.19,30.14,148.89,-0.25
1741962953.73,-0.060,0.020,-0.029,-1.905,-0.753,-0.001,-62.12,31.53,151.41,-0.25
1741962953.75,-0.073,-0.012,0.030,-1.884,-0.630,-0.189,-63.99,32.80,153.75,-0.25
1741962953.77,-0.076,-0.046,0.083,-1.939,-0.413,-0.411,-66.01,34.16,155.92,-0.25
1741962953.79,-0.039,-0.042,0.052,-1.793,-0.342,-0.469,-68.08,35.66,157.97,-0.25
1741962953.81,-0.031,-0.013,0.067,-1.586,-0.492,-0.317,-69.89,37.16,160.10,-0.25
1741962953.83,-0.073,-0.011,0.111,-1.581,-0.282,-0.167,-71.47,39.26,162.83,-0.25
1741962953.85,-0.122,-0.055,-0.032,-1.643,-0.115,-0.123,-72.96,42.39,166.34,-0.25
1741962953.87,-0.083,-0.108,0.010,-1.714,-0.058,-0.143,-74.44,46.58,170.81,-0.25
1741962953.89,0.013,-0.102,0.040,-1.561,0.144,-0.177,-75.82,51.52,175.87,-0.25
1741962953.91,0.081,-0.053,0.135,-1.437,0.266,-0.147,-76.97,57.00,-178.74,-0.25
1741962953.93,0.068,-0.015,0.148,-1.286,0.310,-0.101,-77.87,63.07,-172.85,-0.25
1741962953.95,-0.007,-0.010,0.105,-1.268,0.295,-0.058,-78.54,69.55,-166.60,-0.25
1741962953.97,-0.065,-0.015,0.029,-1.314,0.314,-0.029,-79.00,76.96,-159.38,-0.25
1741962953.99,-0.112,-0.017,-0.057,-1.244,0.429,-0.051,-79.28,84.94,-151.69,-0.25
1741962954.01,-0.119,-0.031,-0.068,-1.098,0.607,-0.044,-79.37,92.61,-144.47,-0.25
1741962954.03,-0.113,-0.022,-0.079,-0.958,0.866,-0.030,-79.28,99.67,-138.15,-0.28
1741962954.05,-0.083,-0.013,-0.126,-0.775,0.909,-0.050,-79.10,105.83,-132.92,-0.28
1741962954.07,-0.023,-0.007,-0.132,-0.500,0.742,-0.081,-78.95,110.49,-129.15,-0.28
1741962954.09,0.045,0.011,-0.116,-0.212,0.317,-0.065,-78.88,113.20,-127.03,-0.28
1741962954.11,0.089,0.033,-0.060,-0.096,0.031,-0.002,-78.86,114.16,-126.22,-0.28
1741962954.13,0.098,0.062,-0.010,-0.129,0.119,0.113,-78.75,114.69,-125.74,-0.28
1741962954.15,0.036,0.044,0.033,-0.041,0.295,0.242,-78.52,114.99,-125.68,-0.28
1741962954.17,-0.059,0.021,0.065,0.126,0.469,0.224,-78.28,114.65,-126.47,-0.28
1741962954.19,-0.101,-0.012,0.103,0.262,0.623,0.083,-78.22,113.94,-127.85,-0.28
1741962954.21,-0.116,-0.070,0.130,0.322,0.661,-0.014,-78.32,113.09,-129.47,-0.28
1741962954.23,-0.108,-0.087,0.141,0.235,0.535,-0.056,-78.49,112.38,-130.90,-0.28
1741962954.25,-0.053,0.021,0.134,0.011,0.204,-0.030,-78.60,112.24,-131.45,-0.28
1741962954.27,-0.002,0.081,0.109,-0.262,-0.091,-0.026,-78.57,112.97,-130.73,-0.28
1741962954.29,0.031,0.025,0.054,-0.516,-0.220,-0.134,-78.46,115.01,-128.43,-0.28
1741962954.31,0.076,-0.064,-0.005,-0.557,-0.338,-0.081,-78.31,117.76,-125.25,-0.28
1741962954.33,0.088,-0.022,-0.062,-0.390,-0.391,0.075,-78.04,119.67,-122.83,-0.28
1741962954.35,0.003,0.041,-0.127,-0.163,-0.369,0.129,-77.77,120.21,-121.79,-0.28
1741962954.37,-0.088,0.031,-0.093,0.112,-0.223,0.047,-77.66,119.74,-121.88,-0.28
1741962954.39,-0.094,0.009,0.009,0.294,0.081,0.024,-77.76,118.58,-122.94,-0.28
1741962954.41,-0.069,0.031,0.055,0.225,0.285,0.012,-77.88,117.45,-124.28,-0.28
1741962954.43,-0.053,0.022,0.023,0.028,0.207,-0.033,-77.96,117.21,-124.80,-0.28
1741962954.44,-0.027,-0.008,-0.012,-0.005,-0.059,-0.085,-78.02,117.44,-124.61,-0.28
1741962954.47,0.023,0.005,-0.015,-0.030,-0.109,-0.090,-78.11,117.62,-124.28,-0.28
1741962954.49,0.051,0.006,-0.036,-0.012,-0.048,-0.042,-78.16,117.86,-123.90,-0.28
1741962954.50,0.029,-0.013,-0.020,0.094,0.036,0.025,-78.19,117.69,-124.03,-0.28
1741962954.52,-0.019,0.009,0.015,0.114,0.094,0.041,-78.22,117.12,-124.66,-0.28
1741962954.54,-0.063,0.018,0.035,0.025,0.149,0.011,-78.23,116.82,-125.07,-0.28
1741962954.57,-0.074,-0.009,0.028,-0.031,0.194,-0.026,-78.23,117.07,-124.99,-0.28
1741962954.58,-0.039,-0.004,-0.002,0.006,0.178,-0.036,-78.25,117.41,-124.84,-0.28
1741962954.60,-0.012,0.026,-0.029,0.016,0.167,-0.037,-78.29,117.63,-124.80,-0.28
1741962954.62,-0.017,0.015,-0.042,0.032,0.165,-0.059,-78.35,117.89,-124.69,-0.28
1741962954.64,-0.004,-0.023,0.004,0.161,0.186,-0.065,-78.48,117.86,-124.91,-0.28
1741962954.66,0.025,-0.022,0.050,0.166,0.215,-0.029,-78.64,117.36,-125.63,-0.28
1741962954.68,0.031,0.002,0.045,-0.028,0.176,0.012,-78.68,117.23,-125.98,-0.28
1741962954.70,0.001,-0.007,-0.001,-0.098,-0.005,0.018,-78.63,117.69,-125.59,-0.28
1741962954.72,-0.023,-0.003,-0.006,0.048,-0.122,0.006,-78.60,117.71,-125.46,-0.28
1741962954.74,-0.037,0.022,0.026,0.136,-0.024,0.037,-78.63,117.13,-125.94,-0.28
1741962954.76,-0.062,0.036,0.048,0.179,0.127,0.085,-78.63,116.25,-126.89,-0.28
1741962954.78,-0.100,0.031,0.017,0.196,0.163,0.071,-78.63,115.28,-128.05,-0.28
1741962954.80,-0.106,0.022,-0.001,0.271,0.071,0.008,-78.70,114.18,-129.30,-0.28
1741962954.82,-0.054,0.008,0.035,0.402,0.025,-0.018,-78.87,112.47,-131.07,-0.28
1741962954.84,-0.011,-0.009,0.068,0.434,0.013,0.011,-79.06,110.24,-133.35,-0.28
1741962954.86,-0.020,-0.020,0.087,0.410,-0.038,0.054,-79.19,107.84,-135.78,-0.28
1741962954.88,-0.049,-0.030,0.100,0.404,-0.084,0.087,-79.24,105.31,-138.26,-0.28
1741962954.90,-0.078,-0.007,0.100,0.377,-0.108,0.086,-79.25,102.77,-140.74,-0.28
1741962954.92,-0.097,0.017,0.077,0.297,-0.195,0.023,-79.26,100.54,-142.84,-0.28
1741962954.94,-0.081,0.020,0.044,0.257,-0.365,-0.053,-79.33,98.64,-144.45,-0.28
1741962954.96,-0.051,0.002,0.029,0.339,-0.532,-0.077,-79.45,96.43,-146.17,-0.33
1741962954.98,-0.043,-0.023,0.042,0.481,-0.618,-0.067,-79.58,93.28,-148.71,-0.33
1741962955.00,-0.052,-0.033,0.053,0.560,-0.656,-0.080,-79.67,89.27,-152.05,-0.33
1741962955.02,-0.039,-0.039,0.051,0.600,-0.637,-0.116,-79.75,84.86,-155.76,-0.33
1741962955.04,0.008,-0.033,-0.007,0.769,-0.459,-0.108,-79.78,79.95,-160.10,-0.33
1741962955.06,0.039,-0.047,-0.089,1.201,-0.358,-0.007,-79.60,73.49,-166.21,-0.33
1741962955.08,0.027,-0.038,-0.095,1.578,-0.238,0.067,-78.98,65.19,-174.28,-0.33
1741962955.10,-0.011,-0.014,0.025,1.553,0.095,0.044,-78.04,57.38,177.85,-0.33
1741962955.12,-0.035,-0.023,0.105,1.372,0.612,0.061,-77.03,51.79,171.70,-0.33
1741962955.14,-0.054,-0.005,-0.018,1.415,0.627,0.074,-75.96,47.85,166.84,-0.33
1741962955.16,-0.095,0.011,-0.229,1.946,0.143,0.087,-74.57,43.34,161.74,-0.33
1741962955.18,-0.074,-0.016,-0.118,2.069,0.123,0.050,-72.73,38.41,156.48,-0.33
1741962955.20,0.017,-0.037,0.021,1.568,0.726,-0.046,-71.04,35.00,152.41,-0.33
1741962955.22,0.105,-0.046,0.174,1.195,1.205,0.011,-69.78,33.65,149.70,-0.33
1741962955.24,0.158,-0.064,0.154,1.178,0.817,0.255,-68.61,33.23,147.94,-0.33
1741962955.26,0.135,-0.074,-0.089,1.637,0.277,0.555,-67.03,32.71,146.70,-0.33
1741962955.28,0.048,-0.068,-0.117,1.707,-0.151,0.593,-64.98,31.70,145.51,-0.33
1741962955.30,-0.053,-0.022,0.050,1.435,-0.029,0.352,-63.18,30.61,144.44,-0.33
1741962955.32,-0.085,-0.020,0.029,1.403,0.313,0.217,-61.64,29.76,143.26,-0.33
1741962955.34,-0.046,-0.009,0.130,1.594,0.534,0.333,-60.04,29.22,142.08,-0.33
1741962955.36,-0.081,0.031,0.061,1.887,0.590,0.511,-58.02,29.00,140.98,-0.33
1741962955.38,-0.181,-0.008,-0.083,1.469,-0.323,0.601,-56.01,28.56,140.27,-0.33
1741962955.40,-0.046,-0.064,0.012,1.279,0.456,0.583,-54.29,28.26,140.01,-0.33
1741962955.42,0.180,-0.059,0.254,0.897,0.740,0.602,-52.92,29.12,139.95,-0.33
1741962955.44,0.302,0.007,0.116,1.374,0.050,0.804,-51.46,29.71,140.08,-0.33
1741962955.46,0.181,0.071,-0.091,1.840,-0.683,0.799,-49.33,29.18,139.88,-0.33
1741962955.48,-0.030,0.053,-0.021,1.489,-0.615,0.567,-47.27,28.06,139.47,-0.33
1741962955.50,-0.104,-0.068,-0.066,1.323,-0.078,0.521,-45.58,27.45,139.14,-0.33
1741962955.52,-0.148,-0.159,0.076,1.224,0.257,0.627,-44.00,27.52,138.95,-0.33
1741962955.54,-0.087,-0.132,0.050,1.377,0.123,0.771,-42.34,27.76,138.94,-0.33
1741962955.56,-0.027,-0.018,0.118,1.575,0.133,0.687,-40.43,27.89,138.84,-0.33
1741962955.58,0.027,0.012,-0.003,1.518,-0.128,0.674,-38.51,27.74,138.57,-0.33
1741962955.60,0.178,-0.016,-0.019,1.438,-0.130,0.862,-36.60,27.60,138.51,-0.33
1741962955.62,0.212,-0.059,-0.031,1.327,-0.133,0.850,-34.75,27.54,138.68,-0.33
1741962955.64,0.009,-0.137,0.075,1.459,0.036,0.554,-32.96,27.48,138.61,-0.33
1741962955.66,-0.124,-0.114,0.092,1.693,-0.288,0.459,-31.12,27.19,138.17,-0.33
1741962955.68,-0.051,-0.026,-0.076,1.773,-0.560,0.540,-29.05,26.38,137.66,-0.33
1741962955.70,0.075,0.084,-0.067,1.400,-0.235,0.607,-27.13,25.82,137.38,-0.33
1741962955.72,-0.049,0.133,-0.089,1.403,-0.278,0.543,-25.42,25.50,137.26,-0.33
1741962955.74,-0.288,0.140,0.152,1.540,-0.213,0.273,-23.71,25.14,136.88,-0.33
1741962955.76,-0.288,0.055,0.092,1.976,-0.729,0.163,-21.82,24.33,136.15,-0.33
1741962955.78,-0.018,0.028,-0.130,1.945,-0.610,0.187,-19.61,23.18,135.29,-0.33
1741962955.80,0.105,0.031,-0.081,1.429,-0.128,0.308,-17.75,22.70,134.72,-0.33
1741962955.82,-0.081,-0.011,-0.071,1.410,-0.003,0.309,-16.14,22.47,134.41,-0.33
1741962955.84,-0.071,-0.113,0.116,1.611,-0.219,0.157,-14.44,22.32,133.94,-0.33
1741962955.86,-0.035,-0.064,0.084,1.746,-0.393,-0.099,-12.64,21.76,133.16,-0.33
1741962955.88,0.021,-0.094,-0.068,1.846,-0.448,-0.142,-10.78,21.14,132.19,-0.33
1741962955.90,0.102,-0.113,-0.112,1.734,-0.372,-0.145,-8.92,20.47,131.26,-0.33
1741962955.92,0.150,-0.088,0.074,1.635,-0.323,0.052,-7.15,19.99,130.53,-0.33
1741962955.94,0.089,0.094,0.092,1.525,0.045,0.275,-5.37,19.74,130.09,-0.33
1741962955.96,-0.113,0.331,0.129,1.469,0.041,0.352,-3.64,19.88,129.86,-0.33
1741962955.98,0.108,0.072,-0.123,1.471,-0.242,0.453,-1.93,19.72,129.73,-0.33
1741962956.00,0.214,-0.287,-0.061,1.486,-0.598,0.257,-0.18,19.26,129.57,-0.33
1741962956.02,0.027,-0.328,0.085,1.431,-0.386,0.287,1.50,18.61,129.27,-0.33
1741962956.04,-0.155,-0.042,0.125,1.399,0.081,0.398,3.14,18.48,129.15,-0.33
1741962956.06,-0.070,0.257,0.099,1.444,0.107,0.507,4.86,18.64,129.12,-0.33
1741962956.08,0.134,0.078,-0.109,1.433,-0.045,0.498,6.58,18.67,129.14,-0.33
1741962956.10,0.238,-0.242,-0.093,1.356,-0.437,0.444,8.28,18.40,129.14,-0.33
1741962956.12,0.146,-0.209,-0.046,1.218,-0.449,0.546,9.86,17.84,129.20,-0.33
1741962956.14,-0.061,0.076,-0.124,1.184,-0.024,0.640,11.37,17.52,129.45,-0.33
1741962956.16,-0.189,0.150,-0.138,1.165,0.049,0.414,12.82,17.51,129.64,-0.33
1741962956.18,0.080,0.015,-0.123,1.014,-0.067,0.175,14.10,17.56,129.58,-0.33
1741962956.20,0.200,-0.075,-0.289,0.916,-0.454,0.110,15.21,17.28,129.38,-0.33
1741962956.22,-0.050,-0.122,-0.279,0.648,-0.221,0.031,16.11,16.91,129.19,-0.33
1741962956.24,-0.150,-0.135,-0.390,0.390,0.113,-0.172,16.65,16.95,128.93,-0.33
1741962956.26,0.120,-0.128,-0.261,0.090,0.208,-0.292,16.84,17.25,128.57,-0.33
1741962956.28,0.268,-0.141,-0.356,-0.208,0.160,-0.239,16.69,17.54,128.27,-0.33
1741962956.30,0.096,-0.058,-0.418,-0.568,0.285,-0.167,16.20,17.80,128.19,-0.33
1741962956.32,0.032,-0.117,-0.361,-0.900,0.483,-0.238,15.34,18.24,128.25,-0.33
1741962956.34,0.145,-0.149,-0.328,-1.204,0.418,-0.304,14.08,18.77,128.34,-0.33
1741962956.36,0.150,-0.149,-0.206,-1.392,0.340,-0.345,12.56,19.14,128.47,-0.33
1741962956.38,0.102,-0.057,-0.245,-1.550,0.368,-0.328,10.85,19.50,128.67,-0.33
1741962956.40,0.027,-0.045,-0.197,-1.663,0.391,-0.366,8.99,19.89,128.92,-0.33
1741962956.42,0.019,-0.068,-0.103,-1.763,0.421,-0.462,6.98,20.33,129.16,-0.33
1741962956.44,0.082,-0.055,-0.050,-1.894,0.351,-0.398,4.85,20.74,129.41,-0.33
1741962956.46,0.130,0.013,-0.046,-2.003,0.193,-0.155,2.65,21.05,129.92,-0.33
1741962956.48,0.074,-0.016,-0.012,-1.929,0.119,-0.207,0.47,21.18,130.57,-0.33
1741962956.50,-0.048,-0.101,0.008,-1.858,0.064,-0.354,-1.65,21.29,131.03,-0.33
1741962956.52,-0.079,-0.118,0.031,-1.961,0.205,-0.305,-3.82,21.47,131.47,-0.33
1741962956.54,0.029,-0.062,0.026,-1.932,0.144,-0.277,-6.01,21.73,132.00,-0.33
1741962956.56,0.016,-0.016,0.015,-1.733,-0.149,-0.390,-8.09,21.80,132.43,-0.33
1741962956.58,-0.160,-0.010,0.002,-1.653,-0.010,-0.571,-10.09,21.69,132.63,-0.33
1741962956.60,-0.187,-0.071,-0.026,-1.664,0.157,-0.558,-12.08,21.80,132.72,-0.33
1741962956.62,-0.045,-0.114,0.060,-1.708,0.252,-0.517,-14.11,22.09,132.88,-0.33
1741962956.64,0.066,-0.100,0.067,-1.605,0.103,-0.533,-16.10,22.35,133.06,-0.33
1741962956.66,0.014,0.007,0.003,-1.473,0.054,-0.700,-17.97,22.39,133.08,-0.33
1741962956.68,-0.100,0.046,-0.000,-1.469,0.242,-0.762,-19.85,22.52,132.91,-0.33
1741962956.70,-0.077,-0.026,0.016,-1.554,0.326,-0.580,-21.74,22.83,132.86,-0.33
1741962956.72,0.065,-0.094,0.051,-1.580,0.333,-0.519,-23.63,23.29,133.01,-0.33
1741962956.74,0.139,-0.116,0.025,-1.579,0.196,-0.598,-25.54,23.64,133.17,-0.33
1741962956.76,0.136,-0.115,0.012,-1.571,0.196,-0.668,-27.48,23.89,133.23,-0.33
1741962956.78,0.075,-0.113,-0.008,-1.609,0.183,-0.627,-29.43,24.14,133.29,-0.33
1741962956.80,0.026,-0.135,0.007,-1.718,0.200,-0.554,-31.45,24.45,133.49,-0.33
1741962956.82,0.006,-0.153,-0.043,-1.710,0.197,-0.512,-33.49,24.84,133.81,-0.33
1741962956.84,0.008,-0.137,0.035,-1.734,0.219,-0.563,-35.52,25.28,134.15,-0.33
1741962956.86,0.001,-0.087,0.034,-1.758,0.016,-0.630,-37.62,25.61,134.44,-0.45
1741962956.88,0.018,-0.049,0.024,-1.729,-0.015,-0.612,-39.73,25.76,134.72,-0.45
1741962956.90,0.018,-0.015,-0.008,-1.767,-0.028,-0.532,-41.80,25.97,135.08,-0.45
1741962956.92,0.004,0.008,-0.009,-1.795,-0.010,-0.444,-43.88,26.32,135.63,-0.45
1741962956.94,0.012,-0.025,-0.006,-1.736,-0.153,-0.389,-45.90,26.73,136.32,-0.45
1741962956.96,0.047,-0.058,0.066,-1.665,-0.322,-0.451,-47.85,26.93,136.97,-0.45
1741962956.98,0.076,-0.081,0.053,-1.682,-0.413,-0.452,-49.77,26.95,137.57,-0.45
1741962957.00,0.090,-0.088,0.058,-1.835,-0.528,-0.330,-51.77,27.03,138.36,-0.45
1741962957.02,0.067,-0.081,0.056,-1.989,-0.588,-0.122,-53.84,27.40,139.65,-0.45
1741962957.04,0.013,-0.045,0.018,-1.935,-0.509,0.031,-55.86,28.22,141.42,-0.45
1741962957.06,-0.048,0.010,-0.012,-1.836,-0.479,-0.009,-57.72,29.29,143.35,-0.45
1741962957.08,-0.081,-0.003,0.016,-1.830,-0.604,-0.181,-59.59,30.24,145.18,-0.45
1741962957.10,-0.084,-0.051,0.065,-1.855,-0.685,-0.337,-61.55,30.90,146.80,-0.45
1741962957.12,-0.042,-0.056,0.103,-1.971,-0.573,-0.329,-63.62,31.71,148.53,-0.45
1741962957.14,-0.022,0.011,0.052,-2.010,-0.420,-0.286,-65.74,33.11,150.71,-0.45
1741962957.16,-0.039,0.061,0.046,-1.828,-0.235,-0.284,-67.75,35.01,153.18,-0.45
1741962957.18,-0.082,0.029,0.002,-1.538,-0.284,-0.347,-69.51,36.89,155.48,-0.45
1741962957.20,-0.070,-0.050,-0.098,-1.463,-0.518,-0.354,-71.09,38.38,157.56,-0.45
1741962957.22,-0.007,-0.092,0.030,-1.604,-0.352,-0.225,-72.66,40.43,160.29,-0.45
1741962957.24,0.023,-0.124,0.118,-1.617,0.007,-0.047,-74.14,44.07,164.28,-0.45
1741962957.26,-0.025,-0.120,0.033,-1.361,0.193,0.019,-75.34,48.76,169.00,-0.45
1741962957.28,-0.114,-0.074,-0.125,-1.090,0.268,-0.034,-76.21,53.25,173.37,-0.45
1741962957.30,-0.147,-0.015,-0.049,-1.076,0.436,-0.116,-76.96,57.64,177.47,-0.45
1741962957.32,-0.120,0.025,0.011,-1.187,0.588,-0.251,-77.79,62.80,-177.85,-0.45
1741962957.34,-0.010,0.011,0.081,-1.123,0.662,-0.322,-78.65,68.68,-172.57,-0.45
1741962957.36,0.068,-0.006,0.089,-0.934,0.663,-0.143,-79.29,74.75,-167.17,-0.45
1741962957.38,0.020,-0.061,-0.006,-0.714,0.392,0.030,-79.54,80.22,-162.24,-0.45
1741962957.40,-0.064,-0.053,-0.063,-0.679,0.117,0.014,-79.60,84.71,-157.95,-0.45
1741962957.42,-0.070,-0.003,-0.015,-0.708,0.002,-0.052,-79.67,89.09,-153.55,-0.45
1741962957.44,-0.012,0.025,0.072,-0.702,0.234,-0.057,-79.72,93.63,-149.03,-0.45
1741962957.46,0.043,0.025,0.120,-0.712,0.693,0.022,-79.67,98.57,-144.55,-0.45
1741962957.48,0.068,-0.024,0.066,-0.629,0.864,0.147,-79.42,103.58,-140.42,-0.45
1741962957.50,0.017,-0.042,-0.037,-0.430,0.468,0.244,-79.04,107.12,-137.64,-0.45
1741962957.52,-0.069,0.005,-0.107,-0.321,-0.151,0.261,-78.63,108.84,-136.06,-0.45
1741962957.54,-0.126,0.035,-0.071,-0.270,-0.352,0.227,-78.25,109.64,-134.89,-0.45
1741962957.56,-0.130,0.054,0.037,-0.076,-0.067,0.139,-77.97,109.99,-134.27,-0.45
1741962957.57,-0.097,0.081,0.098,0.177,0.282,0.045,-77.90,109.67,-134.72,-0.45
1741962957.60,-0.055,0.042,0.130,0.232,0.414,0.008,-77.96,108.91,-135.90,-0.45
1741962957.61,-0.030,-0.029,0.115,0.029,0.366,0.030,-78.00,108.60,-136.67,-0.45
1741962957.63,0.017,-0.064,0.039,-0.234,0.177,0.021,-77.93,109.45,-136.12,-0.45
1741962957.65,0.073,-0.045,-0.030,-0.258,-0.213,0.084,-77.78,110.67,-134.85,-0.45
1741962957.67,0.079,0.026,-0.071,-0.169,-0.441,0.136,-77.56,111.09,-133.99,-0.45
1741962957.69,0.025,0.027,-0.081,-0.070,-0.341,0.066,-77.40,111.02,-133.56,-0.45
1741962957.71,0.009,-0.008,-0.019,0.136,-0.188,0.055,-77.35,110.49,-133.77,-0.45
1741962957.73,-0.003,0.019,0.047,0.192,-0.006,0.084,-77.35,109.36,-134.80,-0.45
1741962957.75,-0.056,0.013,0.051,0.031,0.120,0.073,-77.30,108.73,-135.51,-0.45
1741962957.77,-0.081,-0.006,0.015,-0.040,0.038,-0.045,-77.28,108.92,-135.41,-0.45
1741962957.79,-0.008,-0.023,0.008,0.041,-0.037,-0.068,-77.35,109.01,-135.29,-0.45
1741962957.81,0.043,-0.004,-0.021,0.054,-0.047,-0.017,-77.42,108.77,-135.46,-0.45
1741962957.83,0.039,0.028,-0.034,-0.010,0.031,0.026,-77.42,108.70,-135.52,-0.45
1741962957.85,-0.001,0.014,-0.038,0.033,0.029,-0.025,-77.42,108.76,-135.47,-0.45
1741962957.87,0.007,-0.040,-0.006,0.078,0.044,-0.040,-77.50,108.57,-135.69,-0.45
1741962957.89,0.023,-0.009,-0.013,0.025,0.018,-0.014,-77.54,108.39,-135.89,-0.45
1741962957.91,0.004,0.024,-0.030,-0.023,-0.092,0.012,-77.53,108.33,-135.89,-0.45
1741962957.93,-0.024,0.008,-0.039,0.027,-0.142,-0.016,-77.53,108.15,-135.91,-0.45
1741962957.95,0.009,-0.012,-0.005,0.095,-0.056,-0.007,-77.56,107.69,-136.24,-0.45
1741962957.97,0.023,-0.009,0.026,0.066,0.109,0.035,-77.56,107.24,-136.71,-0.45
1741962957.99,-0.024,-0.003,0.028,0.007,0.121,0.047,-77.52,107.09,-136.99,-0.45
1741962958.01,-0.053,0.014,-0.004,-0.045,0.008,0.013,-77.50,107.14,-137.00,-0.45
1741962958.03,-0.042,0.019,-0.053,-0.023,-0.089,-0.046,-77.51,107.33,-136.72,-0.45
1741962958.05,-0.002,-0.008,-0.023,0.071,-0.018,-0.049,-77.56,107.21,-136.74,-0.45
1741962958.07,0.026,-0.006,-0.011,0.068,0.060,-0.022,-77.63,106.97,-137.00,-0.45
1741962958.09,0.025,0.001,-0.010,0.022,0.051,-0.009,-77.68,106.87,-137.15,-0.45
1741962958.11,0.006,-0.012,0.007,-0.019,0.037,0.005,-77.70,106.87,-137.18,-0.45
1741962958.13,0.004,-0.015,-0.008,-0.053,-0.013,-0.009,-77.69,107.05,-136.99,-0.45
1741962958.15,0.018,0.005,-0.036,-0.039,-0.100,-0.010,-77.67,107.22,-136.72,-0.45
1741962958.17,0.005,0.013,-0.026,0.026,-0.092,0.002,-77.66,107.10,-136.69,-0.45
1741962958.19,-0.019,0.004,-0.006,0.035,-0.003,0.005,-77.67,106.85,-136.87,-0.45
1741962958.21,-0.006,0.004,-0.016,0.006,0.019,-0.012,-77.67,106.76,-136.96,-0.45
1741962958.23,0.017,-0.010,-0.013,0.014,0.019,-0.013,-77.69,106.70,-137.03,-0.45
1741962958.25,0.015,-0.030,-0.004,0.044,-0.044,-0.012,-77.71,106.47,-137.22,-0.45
1741962958.27,0.017,-0.007,0.001,0.009,-0.099,0.018,-77.73,106.20,-137.38,-0.45
1741962958.29,-0.002,0.015,-0.016,-0.027,-0.127,0.014,-77.71,106.11,-137.31,-0.45
1741962958.31,-0.020,0.002,-0.007,0.028,-0.156,-0.008,-77.70,105.93,-137.32,-0.45
1741962958.33,-0.020,-0.007,0.004,0.067,-0.148,0.011,-77.71,105.46,-137.59,-0.45
1741962958.35,-0.025,0.009,0.022,0.084,-0.085,0.014,-77.70,104.92,-138.00,-0.45
1741962958.37,-0.044,0.012,0.029,0.119,-0.065,-0.004,-77.72,104.30,-138.54,-0.45
1741962958.39,-0.047,0.006,0.034,0.162,-0.111,-0.013,-77.78,103.50,-139.23,-0.45
1741962958.41,-0.039,0.006,0.050,0.192,-0.116,0.016,-77.84,102.48,-140.11,-0.45
1741962958.43,-0.044,0.008,0.054,0.218,-0.105,0.042,-77.87,101.33,-141.14,-0.45
1741962958.45,-0.052,0.013,0.059,0.265,-0.102,0.078,-77.87,100.03,-142.33,-0.45
1741962958.47,-0.069,0.019,0.076,0.326,-0.083,0.085,-77.85,98.44,-143.83,-0.45
1741962958.49,-0.084,0.017,0.084,0.364,-0.076,0.086,-77.83,96.63,-145.58,-0.45
1741962958.51,-0.104,-0.005,0.097,0.390,-0.051,0.073,-77.80,94.70,-147.48,-0.45
1741962958.53,-0.121,-0.014,0.101,0.386,-0.051,0.053,-77.75,92.55,-149.61,-0.45
1741962958.55,-0.127,0.009,0.088,0.347,-0.112,0.013,-77.72,90.54,-151.57,-0.45
1741962958.57,-0.113,0.027,0.060,0.310,-0.248,-0.031,-77.73,88.62,-153.31,-0.45
1741962958.59,-0.098,0.043,-0.009,0.295,-0.527,-0.063,-77.77,86.62,-154.90,-0.45
1741962958.61,-0.077,0.023,0.001,0.422,-0.602,-0.107,-77.83,84.06,-156.80,-0.45
1741962958.63,-0.053,-0.029,0.059,0.645,-0.339,-0.159,-77.90,80.63,-159.74,-0.45
1741962958.65,-0.023,-0.062,0.046,0.864,-0.117,-0.169,-77.92,76.26,-163.97,-0.45
1741962958.67,0.021,-0.057,-0.074,1.084,-0.116,-0.141,-77.78,70.95,-169.26,-0.45
1741962958.69,0.048,-0.006,-0.167,1.471,0.096,-0.081,-77.34,64.60,-175.74,-0.45
1741962958.71,-0.001,-0.009,0.005,1.604,0.448,-0.013,-76.53,58.01,177.20,-0.45
1741962958.73,-0.026,-0.094,0.156,1.529,1.037,0.075,-75.48,53.02,171.17,-0.45
1741962958.75,-0.021,-0.035,0.109,1.481,1.110,0.148,-74.31,49.68,166.34,-0.45
1741962958.77,-0.007,0.026,-0.091,1.610,0.410,0.153,-73.02,46.55,162.12,-0.45
1741962958.79,-0.061,0.091,-0.222,1.750,-0.189,0.097,-71.53,42.64,157.97,-0.45
1741962958.81,-0.091,0.057,-0.036,1.621,0.508,0.023,-70.01,39.22,154.22,-0.45
1741962958.83,0.009,-0.077,0.078,1.336,1.065,0.008,-68.69,37.47,151.28,-0.45
1741962958.85,0.185,-0.156,-0.015,1.275,0.481,0.104,-67.48,36.32,148.99,-0.45
1741962958.87,0.306,-0.129,0.140,1.365,0.406,0.307,-66.13,35.09,147.19,-0.45
1741962958.89,0.285,-0.097,0.049,1.457,0.242,0.623,-64.50,34.57,146.03,-0.45
1741962958.91,0.025,-0.044,-0.259,1.432,-0.573,0.584,-62.71,33.56,145.21,-0.45
1741962958.93,-0.048,-0.027,0.102,1.265,0.330,0.368,-61.14,32.69,144.39,-0.45
1741962958.95,-0.012,-0.057,0.063,1.589,0.397,0.354,-59.59,32.27,143.30,-0.45
1741962958.97,-0.027,-0.022,-0.004,1.702,-0.353,0.451,-57.67,31.31,142.04,-0.45
1741962958.99,-0.142,0.019,-0.106,1.254,-0.781,0.407,-55.98,29.84,141.25,-0.45
1741962959.01,-0.071,-0.012,0.049,1.096,0.677,0.384,-54.58,29.35,140.72,-0.45
1741962959.03,-0.019,-0.044,0.040,0.872,0.448,0.504,-53.39,30.04,140.50,-0.45
1741962959.05,0.070,0.015,0.106,1.368,-0.195,0.613,-52.00,30.03,140.42,-0.45
1741962959.07,0.028,0.086,0.031,1.720,-0.380,0.393,-50.11,29.29,139.77,-0.45
1741962959.09,-0.033,0.037,-0.134,1.397,-0.639,0.272,-48.36,27.96,138.89,-0.45
1741962959.11,0.042,-0.015,-0.018,1.279,-0.295,0.340,-46.87,27.03,138.31,-0.45
1741962959.13,-0.029,-0.017,0.080,1.382,-0.218,0.265,-45.37,26.38,137.75,-0.45
1741962959.15,-0.042,-0.038,0.146,1.555,-0.146,0.304,-43.72,25.69,137.06,-0.45
1741962959.17,-0.019,-0.065,0.092,1.701,0.196,0.387,-41.87,25.35,136.41,-0.45
1741962959.19,0.007,-0.018,-0.136,1.390,0.018,0.460,-40.00,25.19,135.93,-0.45
1741962959.21,0.081,0.045,0.100,1.065,0.318,0.465,-38.56,25.25,135.75,-0.45
1741962959.23,-0.041,0.005,-0.019,1.254,0.016,0.590,-37.13,25.51,135.72,-0.45
1741962959.25,-0.075,0.003,0.101,1.514,-0.255,0.417,-35.43,25.23,135.51,-0.45
1741962959.27,0.037,-0.014,0.205,1.696,-0.315,0.255,-33.62,24.64,134.94,-0.45
1741962959.29,0.134,-0.053,-0.043,1.743,-0.458,0.256,-31.66,23.78,134.22,-0.45
1741962959.31,0.144,-0.035,-0.011,1.337,-0.134,0.342,-29.91,23.17,133.72,-0.45
1741962959.33,0.002,0.004,0.075,1.380,-0.047,0.410,-28.36,23.02,133.47,-0.45
1741962959.35,-0.080,0.047,0.146,1.560,-0.276,0.459,-26.61,22.72,133.19,-0.45
1741962959.37,0.015,0.018,0.146,1.694,-0.365,0.626,-24.66,22.30,133.00,-0.45
1741962959.39,0.039,-0.006,-0.070,1.589,-0.249,0.594,-22.61,21.87,132.91,-0.45
1741962959.41,-0.042,-0.079,-0.063,1.329,0.060,0.479,-20.86,21.77,132.81,-0.45
1741962959.43,-0.097,-0.123,0.042,1.457,-0.179,0.430,-19.22,21.72,132.68,-0.45
1741962959.45,-0.086,0.044,0.152,1.664,-0.550,0.354,-17.39,21.20,132.37,-0.45
1741962959.47,-0.187,0.081,-0.025,1.717,-0.541,0.475,-15.40,20.45,132.07,-0.45
1741962959.49,-0.155,-0.086,-0.304,1.582,-0.356,0.376,-13.45,19.90,131.85,-0.45
1741962959.51,-0.077,-0.193,-0.017,1.582,-0.217,0.123,-11.68,19.50,131.46,-0.45
1741962959.53,-0.184,-0.166,0.159,1.616,-0.043,0.128,-9.89,19.26,130.92,-0.45
1741962959.55,-0.192,0.107,0.054,1.643,0.234,0.216,-8.09,19.31,130.47,-0.45
1741962959.57,0.101,0.011,-0.022,1.587,0.139,0.264,-6.26,19.49,130.11,-0.45
1741962959.59,0.360,-0.235,-0.101,1.563,-0.377,0.279,-4.45,19.34,129.82,-0.45
1741962959.61,0.232,-0.192,-0.013,1.493,-0.165,0.356,-2.69,18.97,129.54,-0.45
1741962959.63,-0.109,0.168,0.182,1.380,0.181,0.616,-0.96,18.96,129.55,-0.45
1741962959.65,-0.203,0.248,0.051,1.395,0.394,0.623,0.76,19.34,129.73,-0.45
1741962959.67,0.015,-0.050,-0.187,1.415,0.060,0.432,2.50,19.61,129.78,-0.45
1741962959.69,0.279,-0.241,-0.146,1.406,-0.197,0.314,4.15,19.56,129.62,-0.45
1741962959.71,0.030,-0.089,-0.124,1.304,-0.167,0.400,5.72,19.27,129.49,-0.45
1741962959.73,-0.200,0.092,-0.114,1.222,0.132,0.354,7.25,19.27,129.42,-0.45
1741962959.75,-0.027,0.121,-0.047,1.071,0.339,0.308,8.60,19.58,129.33,-0.45
1741962959.77,0.232,0.097,-0.199,0.968,0.100,0.322,9.81,19.87,129.27,-0.45
1741962959.79,0.297,-0.098,-0.097,0.908,-0.073,0.356,10.96,19.84,129.28,-0.45
1741962959.81,0.058,-0.052,-0.153,0.773,0.182,0.353,11.99,19.84,129.33,-0.45
1741962959.83,-0.181,0.103,-0.213,0.597,0.508,0.287,12.87,20.26,129.42,-0.45
1741962959.85,0.045,0.029,-0.255,0.465,0.454,0.106,13.51,20.82,129.43,-0.45
1741962959.87,0.220,-0.165,-0.302,0.241,0.145,-0.085,13.90,21.20,129.29,-0.45
1741962959.89,0.143,-0.151,-0.370,0.009,0.080,-0.211,13.97,21.37,129.06,-0.45
1741962959.91,-0.010,0.001,-0.359,-0.255,0.164,-0.241,13.74,21.53,128.86,-0.45
1741962959.93,0.049,-0.088,-0.248,-0.539,0.408,-0.326,13.21,21.88,128.73,-0.45
1741962959.95,0.206,-0.127,-0.272,-0.745,0.422,-0.341,12.39,22.41,128.65,-0.45
1741962959.97,0.254,-0.090,-0.294,-1.000,0.294,-0.345,11.31,22.80,128.68,-0.45
1741962959.99,0.177,-0.049,-0.258,-1.229,0.211,-0.405,9.96,23.06,128.78,-0.45
1741962960.01,0.088,-0.039,-0.189,-1.394,0.216,-0.412,8.40,23.27,128.94,-0.45
1741962960.03,0.053,-0.021,-0.170,-1.517,0.232,-0.469,6.67,23.50,129.16,-0.45
1741962960.05,0.062,-0.062,-0.125,-1.557,0.084,-0.502,4.83,23.67,129.35,-0.45
1741962960.07,0.089,-0.021,-0.081,-1.637,0.013,-0.496,2.94,23.69,129.55,-0.45
1741962960.09,0.016,-0.002,-0.064,-1.772,0.069,-0.469,0.93,23.73,129.83,-0.45
1741962960.11,-0.036,-0.057,-0.089,-1.774,0.072,-0.494,-1.15,23.81,130.15,-0.45
1741962960.13,0.031,-0.076,-0.012,-1.796,0.023,-0.470,-3.24,23.88,130.46,-0.45
1741962960.15,0.091,-0.076,0.044,-1.894,0.099,-0.362,-5.35,23.96,130.88,-0.45
1741962960.17,0.073,-0.117,0.032,-1.915,0.074,-0.246,-7.49,24.15,131.46,-0.45
1741962960.19,0.038,-0.166,0.011,-1.827,-0.043,-0.273,-9.57,24.27,132.10,-0.45
1741962960.21,-0.041,-0.160,0.029,-1.707,-0.168,-0.510,-11.57,24.21,132.53,-0.45
1741962960.23,-0.062,-0.159,-0.025,-1.832,-0.247,-0.546,-13.66,24.02,132.78,-0.45
1741962960.25,-0.019,-0.162,0.009,-1.853,0.115,-0.386,-15.81,24.03,133.17,-0.45
1741962960.27,-0.036,-0.154,0.025,-1.800,0.082,-0.422,-17.89,24.32,133.65,-0.45
1741962960.29,-0.045,-0.144,0.104,-1.735,0.086,-0.580,-19.97,24.50,133.98,-0.45
1741962960.31,-0.000,-0.120,0.015,-1.840,0.061,-0.547,-22.09,24.68,134.24,-0.45
1741962960.33,0.053,-0.073,0.015,-1.809,0.170,-0.418,-24.22,24.99,134.65,-0.45
1741962960.35,0.043,-0.063,-0.040,-1.845,0.131,-0.412,-26.30,25.36,135.17,-0.45
1741962960.37,0.060,-0.115,0.067,-1.836,0.286,-0.497,-28.43,25.86,135.67,-0.45
1741962960.39,0.102,-0.159,-0.018,-1.700,0.041,-0.497,-30.50,26.26,136.10,-0.45
1741962960.41,0.086,-0.146,0.055,-1.719,0.156,-0.550,-32.49,26.54,136.48,-0.45
1741962960.43,0.081,-0.129,0.013,-1.875,0.180,-0.554,-34.61,27.00,136.91,-0.45
1741962960.45,0.029,-0.063,0.067,-1.963,0.205,-0.580,-36.86,27.51,137.44,-0.45
1741962960.47,-0.036,-0.007,0.018,-1.850,0.080,-0.578,-39.11,28.06,137.99,-0.45
1741962960.49,-0.098,0.043,-0.060,-1.773,-0.225,-0.592,-41.24,28.27,138.50,-0.45
1741962960.51,-0.086,0.016,-0.037,-1.809,-0.127,-0.574,-43.35,28.37,139.01,-0.45
1741962960.53,-0.034,-0.033,0.029,-1.916,0.060,-0.527,-45.52,28.82,139.66,-0.45
1741962960.55,-0.041,-0.029,0.108,-1.852,-0.099,-0.508,-47.71,29.40,140.46,-0.45
1741962960.57,-0.037,-0.032,-0.025,-1.671,-0.366,-0.459,-49.72,29.70,141.22,-0.45
1741962960.59,0.008,-0.040,-0.011,-1.734,-0.364,-0.406,-51.63,29.89,142.06,-0.45
1741962960.61,0.036,-0.060,0.085,-1.868,-0.164,-0.381,-53.64,30.44,143.12,-0.45
1741962960.63,0.018,-0.064,0.091,-2.030,-0.149,-0.318,-55.75,31.40,144.49,-0.45
1741962960.65,0.003,-0.045,0.117,-2.118,-0.140,-0.180,-57.93,32.80,146.37,-0.49
1741962960.67,-0.005,-0.018,0.035,-1.918,-0.212,-0.032,-59.93,34.59,148.67,-0.49
1741962960.69,-0.044,-0.009,0.029,-1.730,-0.375,-0.040,-61.62,36.39,151.11,-0.49
1741962960.71,-0.094,-0.005,0.028,-1.628,-0.405,-0.311,-63.26,37.86,153.29,-0.49
1741962960.73,-0.085,0.002,0.005,-1.719,-0.323,-0.600,-65.07,39.00,155.03,-0.49
1741962960.75,-0.021,0.004,0.076,-1.922,-0.271,-0.687,-67.16,40.35,156.87,-0.49
1741962960.76,0.047,-0.013,0.167,-1.959,-0.177,-0.445,-69.29,42.55,159.52,-0.49
1741962960.78,0.049,-0.035,0.091,-1.722,-0.246,-0.073,-71.00,45.84,163.24,-0.49
1741962960.80,-0.011,-0.083,-0.076,-1.574,-0.292,-0.002,-72.27,49.67,167.63,-0.49
1741962960.82,-0.040,-0.108,-0.039,-1.508,-0.214,-0.152,-73.42,53.65,172.09,-0.49
1741962960.84,-0.030,-0.105,0.029,-1.574,0.006,-0.207,-74.59,58.16,176.93,-0.49
1741962960.86,-0.005,-0.088,0.026,-1.454,0.072,-0.149,-75.63,63.63,-177.50,-0.49
1741962960.88,-0.009,-0.071,-0.025,-1.244,-0.143,-0.058,-76.35,69.01,-171.90,-0.49
1741962960.90,-0.052,-0.034,-0.022,-1.205,0.139,-0.010,-76.82,74.45,-166.27,-0.49
1741962960.92,-0.108,0.001,-0.059,-1.098,0.462,-0.076,-77.15,80.41,-160.51,-0.49
1741962960.94,-0.130,0.030,-0.015,-0.903,0.626,-0.171,-77.43,85.99,-155.46,-0.49
1741962960.96,-0.121,0.031,-0.045,-0.746,0.542,-0.238,-77.69,90.89,-151.13,-0.49
1741962960.98,-0.079,0.005,-0.045,-0.673,0.612,-0.219,-77.92,95.29,-147.28,-0.49
1741962961.00,-0.027,0.000,-0.033,-0.608,0.835,-0.185,-78.05,99.70,-143.62,-0.49
1741962961.02,0.024,-0.005,-0.004,-0.511,0.914,-0.157,-78.11,103.84,-140.42,-0.49
1741962961.04,0.079,-0.012,-0.000,-0.437,0.848,-0.116,-78.12,107.55,-137.67,-0.49
1741962961.06,0.121,-0.017,0.031,-0.305,0.672,-0.003,-78.05,110.43,-135.62,-0.49
1741962961.08,0.130,-0.043,0.052,-0.220,0.523,0.144,-77.87,112.25,-134.46,-0.49
1741962961.10,0.086,-0.026,0.036,-0.247,0.379,0.281,-77.54,113.41,-133.81,-0.49
1741962961.12,-0.039,0.021,-0.028,-0.389,0.190,0.350,-77.05,114.52,-133.00,-0.49
1741962961.14,-0.152,0.063,-0.090,-0.382,0.020,0.173,-76.57,115.85,-131.75,-0.49
1741962961.16,-0.189,0.069,-0.103,-0.186,-0.014,0.029,-76.33,116.89,-130.65,-0.49
1741962961.18,-0.135,0.018,0.018,0.098,0.071,-0.003,-76.30,117.09,-130.49,-0.49
1741962961.20,-0.078,-0.003,0.116,0.199,0.065,-0.033,-76.41,116.51,-131.18,-0.49
1741962961.22,-0.043,-0.010,0.144,0.067,-0.032,-0.069,-76.53,116.01,-131.69,-0.49
1741962961.24,-0.004,-0.033,0.145,-0.163,-0.075,-0.067,-76.59,116.29,-131.30,-0.49
1741962961.26,0.039,-0.039,0.109,-0.371,-0.015,-0.032,-76.50,117.49,-129.98,-0.49
1741962961.28,0.068,-0.023,0.041,-0.478,0.037,0.013,-76.27,119.33,-128.07,-0.49
1741962961.30,0.029,0.013,-0.033,-0.448,0.012,0.072,-75.95,121.17,-126.19,-0.49
1741962961.32,-0.047,0.020,-0.095,-0.249,-0.103,0.015,-75.69,122.41,-124.85,-0.49
1741962961.34,-0.064,0.013,-0.051,-0.009,-0.205,-0.037,-75.63,122.71,-124.33,-0.49
1741962961.36,-0.037,0.002,0.024,0.004,-0.108,-0.035,-75.68,122.54,-124.26,-0.49
1741962961.38,-0.010,-0.007,0.045,-0.106,0.070,-0.046,-75.68,122.81,-123.94,-0.49
1741962961.40,0.015,-0.002,0.009,-0.146,0.066,-0.053,-75.65,123.52,-123.27,-0.49
1741962961.42,0.011,0.006,-0.031,-0.142,-0.032,-0.058,-75.61,124.22,-122.55,-0.49
1741962961.44,0.007,0.011,-0.039,-0.089,-0.141,-0.080,-75.60,124.75,-121.88,-0.49
1741962961.46,0.021,-0.008,0.000,-0.038,-0.134,-0.065,-75.63,125.01,-121.41,-0.49
1741962961.48,0.029,-0.009,0.025,-0.057,-0.065,-0.031,-75.64,125.17,-121.09,-0.49
1741962961.50,0.020,0.001,0.009,-0.111,-0.030,-0.010,-75.61,125.45,-120.72,-0.49
1741962961.52,-0.007,0.006,-0.020,-0.109,-0.089,0.004,-75.53,125.76,-120.31,-0.49
1741962961.54,-0.039,0.009,-0.025,-0.006,-0.170,-0.011,-75.49,125.80,-120.08,-0.49
1741962961.56,-0.045,0.012,0.005,0.091,-0.173,-0.007,-75.52,125.45,-120.20,-0.49
1741962961.58,-0.040,0.022,0.037,0.087,-0.061,-0.004,-75.58,124.97,-120.52,-0.49
1741962961.60,-0.037,0.017,0.041,0.057,0.041,-0.005,-75.63,124.73,-120.73,-0.49
1741962961.62,-0.034,-0.003,0.044,0.110,0.081,0.035,-75.68,124.48,-121.03,-0.49
1741962961.64,-0.041,-0.000,0.041,0.198,0.142,0.106,-75.73,123.91,-121.72,-0.49
1741962961.66,-0.056,0.040,0.032,0.297,0.227,0.165,-75.76,122.94,-122.91,-0.49
1741962961.68,-0.083,0.075,0.015,0.355,0.337,0.175,-75.80,121.70,-124.51,-0.49
1741962961.70,-0.113,0.071,-0.019,0.403,0.382,0.114,-75.88,120.39,-126.28,-0.49
1741962961.72,-0.120,0.027,-0.038,0.500,0.221,0.067,-76.04,118.78,-128.29,-0.49
1741962961.74,-0.092,-0.007,-0.008,0.645,-0.007,0.033,-76.30,116.43,-130.81,-0.49
1741962961.76,-0.051,-0.033,0.032,0.739,-0.129,0.014,-76.61,113.30,-133.93,-0.49
1741962961.78,-0.004,-0.037,0.056,0.743,-0.193,0.053,-76.89,109.68,-137.43,-0.49
1741962961.80,0.025,-0.012,0.046,0.694,-0.281,0.136,-77.04,105.89,-141.03,-0.49
1741962961.82,0.019,0.006,-0.008,0.708,-0.485,0.196,-77.04,101.92,-144.64,-0.49
1741962961.84,-0.023,-0.004,-0.038,0.843,-0.738,0.229,-76.95,97.30,-148.65,-0.49
1741962961.86,-0.081,-0.040,0.047,1.045,-0.762,0.213,-76.77,91.72,-153.45,-0.49
1741962961.88,-0.130,-0.053,0.172,1.196,-0.479,0.129,-76.54,85.58,-159.00,-0.49
1741962961.90,-0.149,-0.042,0.228,1.241,-0.061,0.041,-76.26,79.58,-164.83,-0.49
1741962961.92,-0.165,-0.030,0.267,1.183,0.375,-0.051,-75.95,74.27,-170.48,-0.49
1741962961.94,-0.170,0.001,0.286,0.990,0.569,-0.156,-75.68,69.96,-175.50,-0.49
1741962961.96,-0.144,0.056,0.256,0.548,0.473,-0.239,-75.55,66.95,-179.24,-0.49
1741962961.98,0.021,0.119,-0.268,0.183,-0.430,-0.268,-75.71,65.42,179.10,-0.49
1741962962.00,0.117,0.044,-0.229,0.880,-0.575,-0.127,-75.66,62.32,176.61,-0.49
1741962962.02,0.085,-0.042,0.021,1.394,0.136,-0.069,-75.07,57.41,171.78,-0.49
1741962962.04,0.106,-0.020,-0.054,1.491,0.516,0.039,-74.14,52.78,166.53,-0.49
1741962962.06,0.060,-0.050,-0.124,1.594,0.734,0.194,-72.92,49.17,162.03,-0.49
1741962962.08,0.018,-0.104,-0.053,1.549,0.801,0.202,-71.52,46.39,158.10,-0.49
1741962962.10,0.026,-0.127,-0.198,1.410,0.215,0.222,-70.18,44.04,154.99,-0.49
1741962962.12,0.116,-0.140,-0.047,1.525,0.370,0.325,-68.74,41.81,152.33,-0.49
1741962962.14,0.152,-0.156,0.031,1.431,0.420,0.566,-67.13,40.55,150.35,-0.49
1741962962.16,0.030,-0.110,-0.191,1.691,-0.253,0.636,-65.35,39.36,148.94,-0.49
1741962962.18,0.000,-0.076,-0.077,1.941,0.006,0.470,-63.29,37.41,147.07,-0.49
1741962962.20,0.062,-0.073,0.122,1.697,0.821,0.352,-61.32,36.17,145.09,-0.49
1741962962.22,0.094,-0.125,-0.013,1.270,0.318,0.582,-59.68,35.98,143.93,-0.49
1741962962.24,0.088,-0.101,0.129,1.378,-0.391,0.813,-58.00,35.48,143.53,-0.49
1741962962.26,0.129,-0.051,0.171,1.446,-0.216,0.896,-56.11,34.94,143.28,-0.49
1741962962.28,0.116,0.025,-0.037,1.578,-0.601,0.836,-54.12,34.29,143.02,-0.49
1741962962.30,0.015,0.092,0.024,1.649,-0.298,0.585,-52.12,33.23,142.44,-0.49
1741962962.32,-0.123,0.093,0.021,1.664,-0.222,0.349,-50.25,32.28,141.49,-0.49
1741962962.34,-0.194,0.013,-0.079,1.709,-0.486,0.378,-48.41,31.01,140.42,-0.49
1741962962.36,-0.059,-0.011,0.056,1.566,-0.140,0.529,-46.51,30.14,139.68,-0.49
1741962962.38,-0.043,0.040,0.132,1.415,-0.042,0.430,-44.76,29.67,139.15,-0.49
1741962962.40,-0.054,0.065,0.126,1.566,-0.257,0.437,-43.08,29.15,138.57,-0.49
1741962962.42,-0.052,0.045,-0.148,1.727,-0.523,0.596,-41.11,28.30,138.01,-0.49
1741962962.44,0.019,0.057,-0.037,1.476,-0.285,0.618,-39.14,27.63,137.67,-0.49
1741962962.46,0.008,-0.003,0.045,1.475,-0.398,0.506,-37.40,27.13,137.45,-0.49
1741962962.48,-0.135,-0.056,0.041,1.621,-0.241,0.311,-35.59,26.42,136.93,-0.49
1741962962.50,-0.120,-0.067,0.123,1.608,-0.008,0.310,-33.79,25.97,136.28,-0.49
1741962962.52,0.007,-0.017,0.029,1.805,-0.012,0.375,-31.87,25.65,135.66,-0.49
1741962962.54,0.092,0.039,-0.111,1.532,-0.035,0.359,-29.90,25.32,135.10,-0.49
1741962962.56,0.065,0.025,0.091,1.114,0.162,0.431,-28.39,25.29,134.80,-0.49
1741962962.58,0.007,0.048,0.104,1.315,-0.128,0.564,-26.92,25.30,134.73,-0.49
1741962962.60,-0.001,0.060,0.164,1.649,-0.406,0.521,-25.11,24.90,134.53,-0.49
1741962962.62,0.025,-0.037,0.028,1.730,-0.561,0.554,-23.08,24.23,134.22,-0.49
1741962962.64,0.038,-0.104,-0.183,1.542,-0.271,0.457,-21.09,23.58,133.93,-0.49
1741962962.66,-0.060,-0.138,0.008,1.312,-0.112,0.369,-19.46,23.34,133.66,-0.49
1741962962.68,-0.007,-0.082,0.193,1.488,-0.230,0.412,-17.83,23.06,133.41,-0.49
1741962962.70,-0.074,0.014,0.218,1.688,-0.317,0.545,-15.93,22.72,133.14,-0.49
1741962962.72,-0.173,-0.027,-0.159,1.665,-0.234,0.576,-13.91,22.27,133.00,-0.49
1741962962.74,-0.118,-0.176,-0.100,1.733,-0.016,0.357,-11.90,22.17,132.72,-0.49
1741962962.76,0.076,-0.215,0.065,1.636,-0.059,0.287,-9.98,22.02,132.23,-0.49
1741962962.78,0.154,-0.097,0.093,1.613,0.092,0.490,-8.12,21.99,131.95,-0.49
1741962962.80,0.075,0.224,0.221,1.560,-0.008,0.768,-6.15,22.04,131.93,-0.49
1741962962.82,-0.048,0.260,-0.066,1.593,-0.013,0.906,-4.10,22.05,132.16,-0.49
1741962962.84,0.017,-0.096,-0.167,1.553,-0.108,0.768,-2.11,22.01,132.39,-0.49
1741962962.86,0.091,-0.258,0.038,1.602,-0.304,0.636,-0.09,21.78,132.45,-0.49
1741962962.88,-0.078,-0.053,-0.022,1.585,-0.180,0.591,1.81,21.48,132.43,-0.49
1741962962.90,-0.151,0.236,-0.038,1.582,0.006,0.551,3.76,21.39,132.38,-0.49
1741962962.92,-0.098,0.160,-0.145,1.521,-0.064,0.318,5.59,21.38,132.21,-0.49
1741962962.94,0.192,-0.140,-0.163,1.614,-0.522,0.108,7.34,21.16,131.77,-0.49
1741962962.96,0.163,-0.103,0.041,1.546,-0.732,0.080,9.06,20.44,131.21,-0.49
1741962962.98,-0.081,0.080,-0.096,1.410,-0.314,0.186,10.72,19.92,130.75,-0.49
1741962963.00,0.086,0.154,-0.150,1.280,-0.009,0.197,12.24,19.83,130.44,-0.49
1741962963.02,0.292,-0.074,-0.100,1.224,-0.224,0.180,13.64,19.76,130.16,-0.49
1741962963.04,0.082,-0.129,-0.082,1.105,-0.121,0.095,14.97,19.60,129.85,-0.49
1741962963.06,-0.069,-0.122,-0.291,0.827,0.182,0.055,16.05,19.72,129.54,-0.49
1741962963.08,0.126,-0.182,-0.407,0.494,0.262,0.011,16.76,20.09,129.31,-0.49
1741962963.10,0.155,-0.163,-0.306,0.222,0.074,-0.080,17.14,20.32,129.14,-0.49
1741962963.12,0.131,-0.166,-0.344,-0.117,0.121,-0.178,17.14,20.47,128.95,-0.49
1741962963.14,0.170,-0.154,-0.429,-0.502,0.271,-0.108,16.76,20.68,128.90,-0.49
1741962963.16,0.152,-0.137,-0.297,-0.918,0.648,0.001,15.99,21.13,129.16,-0.49
1741962963.18,0.188,-0.181,-0.174,-1.247,0.887,0.016,14.83,21.91,129.64,-0.49
1741962963.20,0.248,-0.152,-0.269,-1.466,0.749,0.081,13.42,22.71,130.30,-0.49
1741962963.22,0.168,-0.058,-0.315,-1.681,0.605,0.035,11.79,23.30,131.09,-0.49
1741962963.24,0.017,-0.014,-0.244,-1.820,0.430,-0.083,9.93,23.75,131.90,-0.49
1741962963.26,-0.037,-0.001,-0.141,-1.834,0.320,-0.277,7.93,24.04,132.57,-0.49
1741962963.28,-0.075,-0.006,-0.114,-1.862,0.186,-0.397,5.84,24.29,133.08,-0.49
1741962963.30,-0.057,0.023,-0.190,-1.863,0.107,-0.508,3.68,24.40,133.50,-0.49
1741962963.32,-0.131,0.014,-0.105,-1.783,0.143,-0.765,1.49,24.53,133.71,-0.49
1741962963.34,-0.152,-0.048,-0.015,-1.793,0.189,-0.911,-0.76,24.73,133.66,-0.49
1741962963.36,-0.014,-0.085,0.002,-1.823,0.221,-0.718,-3.04,24.95,133.67,-0.49
1741962963.38,0.058,-0.047,0.019,-1.790,0.253,-0.614,-5.23,25.25,133.89,-0.49
1741962963.40,-0.034,-0.075,0.078,-1.703,0.263,-0.764,-7.36,25.56,134.04,-0.49
1741962963.42,-0.039,-0.159,0.017,-1.769,0.191,-0.737,-9.52,25.82,134.09,-0.49
1741962963.44,0.124,-0.182,0.104,-1.808,0.289,-0.425,-11.67,26.17,134.39,-0.49
1741962963.46,0.142,-0.138,0.044,-1.750,0.088,-0.308,-13.66,26.50,134.97,-0.49
1741962963.48,0.025,-0.125,0.104,-1.752,0.212,-0.551,-15.66,26.79,135.44,-0.52
1741962963.50,0.002,-0.180,-0.059,-1.757,0.022,-0.592,-17.75,27.02,135.77,-0.52
1741962963.52,0.031,-0.120,-0.014,-1.843,0.281,-0.555,-19.87,27.27,136.14,-0.52
1741962963.54,0.036,-0.066,0.055,-1.835,0.320,-0.598,-22.05,27.82,136.57,-0.52
1741962963.56,0.043,-0.037,0.043,-1.785,0.034,-0.668,-24.22,28.16,136.93,-0.52
1741962963.58,0.032,-0.006,0.005,-1.815,-0.049,-0.725,-26.40,28.25,137.22,-0.52
1741962963.60,0.053,0.007,0.027,-1.876,0.255,-0.732,-28.65,28.49,137.52,-0.52
1741962963.62,0.026,-0.050,0.012,-1.889,0.399,-0.647,-30.93,29.09,137.91,-0.52
1741962963.64,0.008,-0.103,-0.064,-1.760,0.144,-0.519,-33.07,29.71,138.44,-0.52
1741962963.66,-0.029,-0.127,-0.007,-1.778,0.003,-0.605,-35.12,30.07,138.99,-0.52
1741962963.68,-0.000,-0.164,0.039,-1.966,0.139,-0.745,-37.35,30.43,139.49,-0.52
1741962963.70,0.047,-0.164,0.013,-2.079,0.205,-0.715,-39.79,31.00,140.07,-0.52
1741962963.72,0.061,-0.107,0.017,-2.020,0.236,-0.601,-42.18,31.77,140.84,-0.52
1741962963.74,0.033,-0.059,-0.014,-1.921,0.051,-0.559,-44.43,32.56,141.72,-0.52
1741962963.76,0.009,-0.022,-0.001,-1.907,-0.127,-0.702,-46.64,33.09,142.56,-0.52
1741962963.78,0.009,-0.049,0.159,-1.933,-0.187,-0.842,-48.97,33.42,143.24,-0.52
1741962963.80,0.029,-0.067,0.102,-1.954,-0.408,-0.765,-51.33,33.62,143.93,-0.52
1741962963.82,0.054,-0.042,-0.092,-1.961,-0.738,-0.575,-53.63,33.76,144.93,-0.52
