Time,AccX,AccY,AccZ,GyroX,GyroY,GyroZ,Pitch,Roll,Yaw
1746584544.81,0.044,-0.034,-0.024,0.064,-0.034,0.105,11.395,1.744,38.485
1746584544.83,0.088,-0.009,0.049,-0.059,-0.098,0.226,11.418,1.590,38.648
1746584544.85,0.009,0.018,0.070,-0.046,-0.639,0.251,11.348,1.116,38.993
1746584544.87,-0.053,-0.004,0.100,0.020,-0.759,-0.063,11.328,0.236,39.101
1746584544.89,-0.004,-0.048,0.036,-0.090,-0.563,-0.071,11.299,-0.514,38.989
1746584544.91,0.042,-0.039,0.130,-0.530,0.462,0.063,11.013,-0.645,39.006
1746584544.93,0.001,-0.053,-0.066,-0.720,0.250,0.260,10.228,-0.173,39.212
1746584544.95,0.117,0.003,-0.013,-0.558,-0.250,0.447,9.494,-0.223,39.610
1746584544.97,0.042,-0.009,0.082,-0.424,-0.036,0.352,8.915,-0.615,40.148
1746584544.99,-0.169,0.097,-0.114,-0.118,0.569,-0.153,8.614,-0.207,40.224
1746584545.01,0.035,-0.105,-0.135,-0.037,0.632,-0.175,8.541,0.507,40.010
1746584545.03,0.024,-0.102,0.066,-0.154,0.577,-0.096,8.436,1.236,39.849
1746584545.05,0.072,-0.045,0.231,0.116,1.212,-0.079,8.394,2.263,39.730
1746584545.07,0.070,-0.148,0.046,0.331,0.825,0.074,8.668,3.511,39.704
1746584545.09,0.060,-0.104,0.143,0.273,0.822,0.239,9.069,4.335,39.877
1746584545.11,0.027,0.000,0.080,0.092,1.022,0.185,9.280,5.495,40.123
1746584545.13,-0.048,0.143,-0.191,0.034,0.149,0.093,9.367,6.192,40.276
1746584545.15,-0.045,0.174,-0.007,0.148,-0.479,-0.060,9.455,5.931,40.289
1746584545.17,-0.068,0.212,-0.118,0.211,-1.168,-0.137,9.688,5.082,40.109
1746584545.19,-0.045,0.125,0.016,-0.170,-0.566,0.297,9.763,3.810,40.205
1746584545.21,-0.035,0.122,-0.016,-0.404,0.683,0.475,9.429,3.891,40.676
1746584545.23,-0.038,0.162,-0.031,-0.342,0.874,-0.086,8.966,4.688,40.975
1746584545.25,0.056,-0.060,0.202,0.124,0.824,-0.098,8.881,5.770,40.827
1746584545.27,0.002,0.016,-0.042,0.110,0.114,-0.196,9.003,6.344,40.647
1746584545.29,0.145,0.019,-0.119,0.061,0.078,-0.053,9.096,6.345,40.475
1746584545.31,-0.036,0.185,0.184,-0.212,0.963,-0.129,9.038,6.964,40.405
1746584545.33,0.016,0.106,0.220,-0.663,1.215,-0.281,8.466,8.294,40.230
1746584545.35,-0.018,0.027,0.246,-0.628,1.119,0.243,7.700,9.636,40.248
1746584545.37,-0.120,-0.028,0.322,-0.081,-0.843,0.743,7.531,9.482,40.893
1746584545.39,0.089,0.259,0.394,-0.867,-0.922,1.495,7.184,8.320,42.143
1746584545.41,0.107,0.219,0.370,-1.705,-1.225,2.067,6.052,6.758,44.393
1746584545.43,-0.064,0.372,0.420,-2.506,-0.591,1.867,3.811,5.419,46.999
1746584545.45,-0.258,0.351,0.027,-1.819,0.779,1.263,1.436,5.454,49.002
1746584545.47,-0.378,0.390,0.218,-1.652,1.348,0.791,-0.270,6.716,50.347
1746584545.49,-0.203,0.421,0.503,-2.613,0.976,0.617,-2.535,8.111,51.405
1746584545.51,-0.019,0.521,0.451,-3.651,0.719,0.850,-5.993,9.082,52.732
1746584545.53,0.028,0.467,0.189,-3.925,1.149,1.028,-10.119,10.360,54.602
1746584545.55,-0.186,0.369,-0.080,-4.041,2.026,0.464,-14.409,12.481,56.410
1746584545.57,-0.166,0.389,-0.436,-3.512,2.752,-0.227,-18.664,15.602,57.625
1746584545.59,0.131,0.249,-0.396,-2.776,2.902,-0.222,-22.125,19.190,58.421
1746584545.61,0.314,0.285,-0.140,-2.660,2.620,0.186,-24.985,22.783,59.571
1746584545.63,0.107,0.256,-0.059,-2.886,2.441,0.062,-27.771,26.365,61.250
1746584545.65,-0.003,0.182,-0.137,-3.061,3.096,-0.455,-30.891,30.322,62.905
1746584545.67,0.158,0.198,-0.354,-2.666,3.483,-0.690,-34.079,34.900,64.309
1746584545.69,0.475,0.202,-0.341,-2.313,2.998,-0.262,-36.660,39.515,65.807
1746584545.71,0.683,0.197,-0.260,-2.425,2.529,0.387,-38.616,44.050,68.143
1746584545.73,0.468,0.032,-0.366,-2.292,2.547,0.531,-40.078,48.892,71.243
1746584545.75,0.225,-0.120,-0.490,-1.886,2.728,0.254,-41.231,53.720,74.070
1746584545.77,0.281,-0.191,-0.566,-1.162,2.664,0.090,-42.066,58.163,76.120
1746584545.79,0.575,-0.134,-0.388,-0.963,2.849,0.309,-42.467,62.298,77.594
1746584545.81,0.686,-0.149,-0.263,-1.252,2.827,0.736,-42.476,66.845,79.462
1746584545.83,0.603,-0.282,-0.314,-1.290,2.355,1.258,-41.930,71.460,81.911
1746584545.85,0.249,-0.432,-0.387,-0.935,1.716,1.326,-40.830,75.254,84.103
1746584545.87,-0.006,-0.561,-0.363,-0.682,1.243,0.992,-39.731,77.921,85.675
1746584545.89,-0.046,-0.489,-0.378,-0.402,1.065,0.554,-39.002,79.836,86.690
1746584545.91,0.111,-0.311,-0.247,-0.276,1.047,0.423,-38.546,81.434,87.239
1746584545.92,0.162,-0.242,-0.116,-0.513,0.574,0.599,-38.031,82.806,87.890
1746584545.95,-0.254,-0.237,-0.422,0.135,0.566,0.206,-37.565,83.686,88.357
1746584545.97,-0.436,-0.302,-0.508,0.864,0.672,-0.105,-37.492,83.938,87.593
1746584545.98,-0.210,-0.165,-0.481,1.285,0.612,-0.045,-37.438,83.766,86.048
1746584546.01,-0.024,-0.044,-0.113,1.173,1.181,-0.117,-37.353,83.646,84.142
1746584546.03,-0.018,0.087,0.113,0.544,1.271,-0.299,-37.510,84.346,82.888
1746584546.05,-0.001,-0.022,0.105,0.342,0.625,-0.147,-37.739,85.107,82.274
1746584546.06,-0.114,-0.150,0.108,0.137,-0.167,-0.098,-37.850,85.078,81.895
1746584546.08,-0.109,-0.158,-0.002,0.231,-0.635,-0.272,-38.031,84.467,81.668
1746584546.10,-0.139,-0.061,0.018,0.277,-1.099,-0.590,-38.472,83.225,81.207
1746584546.12,-0.199,-0.097,-0.163,0.676,-2.095,-1.035,-39.323,80.938,80.414
1746584546.14,-0.337,-0.069,-0.136,1.006,-2.384,-1.591,-40.559,77.235,78.745
1746584546.16,-0.374,0.188,0.024,0.741,-2.195,-2.367,-42.496,73.219,76.600
1746584546.18,0.103,0.505,0.139,0.443,-1.988,-2.220,-44.867,69.490,74.577
1746584546.20,0.465,0.385,0.065,0.341,-1.765,-1.303,-46.550,65.991,72.891
1746584546.22,-0.105,0.077,0.027,-0.043,-0.956,-1.440,-47.719,63.804,71.719
1746584546.24,-0.360,0.151,0.004,-0.626,-0.839,-2.264,-49.866,62.096,70.826
1746584546.26,-0.070,0.083,-0.168,-0.843,-1.469,-1.869,-52.374,60.208,70.191
1746584546.28,0.199,0.127,0.027,-0.892,-0.925,-1.446,-54.473,58.736,70.002
1746584546.30,0.148,0.007,-0.025,-0.985,-0.200,-1.368,-56.393,58.196,70.192
1746584546.32,0.119,-0.001,-0.011,-0.847,0.626,-1.518,-58.328,58.581,70.301
1746584546.34,0.104,-0.100,0.038,-0.789,1.412,-1.671,-60.378,59.457,69.941
1746584546.36,-0.086,-0.320,0.105,-1.088,2.276,-1.471,-62.461,61.617,69.972
1746584546.38,-0.146,-0.356,0.018,-1.629,2.307,-1.492,-64.643,65.638,71.425
1746584546.40,-0.262,-0.328,-0.033,-2.165,1.629,-1.583,-67.090,70.971,74.748
1746584546.42,-0.290,-0.356,-0.051,-2.544,0.817,-1.317,-69.463,77.792,80.611
1746584546.44,-0.199,-0.298,-0.077,-2.765,-0.107,-0.900,-71.080,86.091,88.929
1746584546.46,0.083,0.466,-0.109,-2.632,-1.638,-0.702,-71.963,94.796,99.000
1746584546.48,0.193,1.269,-0.232,-1.200,-4.615,-0.265,-72.306,98.020,106.313
1746584546.50,0.074,1.378,0.285,0.317,-3.190,0.219,-72.206,94.673,108.055
1746584546.52,-0.118,0.536,0.310,1.558,0.632,-0.064,-72.097,89.817,104.197
1746584546.54,-0.025,-0.150,-0.227,1.344,0.203,-0.603,-72.422,85.041,98.439
1746584546.56,0.133,-0.332,-0.252,0.767,-0.907,-0.785,-73.079,80.400,94.061
1746584546.58,0.123,-0.125,-0.086,0.529,-0.706,-0.695,-73.785,76.501,91.061
1746584546.60,0.001,0.064,-0.002,0.624,-0.260,-0.718,-74.352,73.104,88.044
1746584546.62,-0.038,0.092,-0.079,0.637,-0.619,-0.997,-75.037,68.876,84.151
1746584546.64,0.078,-0.134,-0.088,0.250,-0.378,-1.309,-76.109,64.973,80.731
1746584546.66,0.166,0.100,-0.159,0.177,-1.029,-1.545,-77.431,60.012,76.333
1746584546.68,0.124,0.071,-0.098,-0.063,-1.627,-1.234,-78.795,53.938,71.750
1746584546.70,-0.031,-0.047,-0.111,-0.095,-1.813,-0.563,-79.679,49.154,68.890
1746584546.72,-0.104,-0.194,-0.037,0.168,-1.435,-0.114,-79.923,45.810,67.504
1746584546.74,-0.145,-0.270,0.216,0.253,0.260,0.080,-79.719,43.775,66.165
1746584546.76,-0.338,-0.188,0.240,-0.102,0.659,-0.149,-79.625,44.416,66.025
1746584546.78,-0.169,-0.160,0.171,-0.377,-0.713,-0.815,-80.229,43.031,64.626
1746584546.80,-0.272,0.241,0.126,-0.503,-1.332,-1.204,-81.441,38.129,60.981
1746584546.82,-0.125,-0.025,0.063,-0.513,-0.613,-0.837,-82.602,32.242,56.254
1746584546.84,-0.033,-0.207,0.106,-0.576,0.546,-0.336,-83.490,30.153,54.185
1746584546.86,0.090,-0.156,0.097,-0.613,0.915,-0.214,-84.170,32.756,55.834
1746584546.88,-0.007,0.173,0.071,-0.301,0.948,-0.414,-84.861,33.120,55.144
1746584546.90,-0.050,-0.058,-0.051,-0.277,0.546,-0.329,-85.318,31.860,52.990
1746584546.92,-0.026,-0.175,-0.068,-0.452,0.157,-0.147,-85.828,31.869,52.598
1746584546.94,-0.025,-0.161,-0.114,-0.320,0.074,0.135,-86.234,35.747,56.373
1746584546.96,-0.095,0.114,-0.286,0.171,0.210,0.257,-86.167,39.735,60.241
1746584546.98,-0.165,0.303,-0.391,0.553,0.653,0.212,-85.635,39.233,59.270
1746584547.00,-0.119,0.305,-0.343,0.217,0.812,0.039,-85.151,37.503,56.597
1746584547.02,0.022,0.138,-0.276,-0.433,-0.130,-0.222,-85.303,38.388,57.033
1746584547.04,0.225,-0.043,-0.158,-0.830,-1.462,-0.700,-86.252,37.866,57.472
1746584547.06,0.408,-0.180,0.118,-0.737,-1.695,-0.840,-87.544,31.733,53.237
1746584547.08,0.374,-0.126,0.232,-0.317,-1.526,-0.293,-88.396,20.344,43.663
1746584547.10,0.261,-0.151,0.286,-0.006,-1.291,-0.041,-88.591,16.063,41.023
1746584547.12,0.135,-0.244,0.237,-0.137,-1.537,0.561,-88.538,23.371,49.827
1746584547.14,-0.250,0.128,0.177,-0.344,-1.700,0.796,-88.228,52.910,81.321
1746584547.16,-0.511,0.204,-0.017,-0.210,-1.312,0.367,-87.780,69.249,99.375
1746584547.18,-0.454,0.135,-0.200,0.009,-0.529,0.060,-87.618,72.262,103.576
1746584547.20,-0.136,0.059,0.062,-0.006,1.064,0.015,-87.587,72.662,103.657
1746584547.22,0.097,0.040,0.136,-0.020,1.457,0.014,-87.588,74.987,104.402
1746584547.24,0.162,-0.033,0.061,0.306,1.058,0.216,-87.452,73.882,101.847
1746584547.26,0.100,-0.035,0.051,0.533,1.010,0.522,-86.893,68.206,95.047
1746584547.28,0.074,-0.042,0.022,0.426,0.926,0.562,-86.063,65.032,90.705
1746584547.30,0.144,0.002,-0.119,0.231,0.542,0.301,-85.448,64.309,89.163
1746584547.32,0.177,0.062,-0.100,0.225,0.571,0.114,-85.149,63.339,87.604
1746584547.34,0.101,0.027,0.005,0.208,0.855,0.194,-84.880,62.367,85.793
1746584547.36,-0.017,-0.015,0.038,0.073,0.735,0.217,-84.578,62.937,85.412
1746584547.38,-0.073,-0.008,0.038,-0.033,0.476,0.096,-84.411,64.402,86.202
1746584547.40,-0.029,0.002,0.017,0.022,0.516,-0.021,-84.384,65.217,86.485
1746584547.42,0.038,0.016,-0.003,0.073,0.697,-0.018,-84.386,65.228,85.798
1746584547.44,0.064,0.007,-0.028,0.047,0.807,0.042,-84.344,65.462,85.156
1746584547.46,0.053,-0.010,-0.016,-0.029,0.754,0.122,-84.255,66.646,85.443
1746584547.48,0.011,0.006,0.038,-0.017,0.613,0.121,-84.127,68.403,86.415
1746584547.50,0.002,0.037,0.052,0.166,0.451,0.043,-84.020,68.658,86.074
1746584547.52,-0.010,0.076,0.060,0.450,0.612,0.043,-83.847,66.306,83.127
1746584547.54,-0.062,0.078,0.017,0.739,0.815,0.135,-83.458,62.083,78.047
1746584547.56,-0.161,0.080,-0.088,1.103,0.764,0.139,-82.780,56.238,71.224
1746584547.58,-0.199,0.113,-0.161,1.384,0.607,0.076,-81.804,49.104,63.254
1746584547.60,-0.198,0.164,-0.108,1.455,0.898,-0.090,-80.655,42.338,55.599
1746584547.62,-0.241,0.166,0.016,1.482,1.654,-0.316,-79.510,36.665,48.373
1746584547.64,-0.216,0.110,0.048,1.558,2.237,-0.447,-78.330,32.028,41.350
1746584547.66,-0.117,0.049,0.029,1.637,2.506,-0.359,-76.995,28.648,35.079
1746584547.68,0.026,-0.029,0.018,1.585,2.697,-0.090,-75.469,27.101,30.457
1746584547.70,0.138,-0.147,0.042,1.300,2.975,0.170,-73.962,27.714,27.716
1746584547.72,0.254,-0.229,0.009,0.728,2.814,0.338,-72.776,30.032,26.613
1746584547.74,0.301,-0.277,0.005,0.034,1.885,0.374,-72.206,33.195,27.117
1746584547.76,0.183,-0.153,0.082,-0.299,0.712,0.018,-72.212,35.805,28.201
1746584547.78,-0.082,0.006,0.108,0.047,-0.462,-0.773,-72.621,35.103,27.422
1746584547.80,-0.216,-0.052,0.041,0.257,-0.572,-1.051,-73.031,31.038,23.845
1746584547.82,-0.256,-0.149,0.053,-0.127,-0.631,-0.768,-73.456,27.121,20.445
1746584547.84,-0.183,-0.195,0.080,-0.517,-0.724,-0.412,-74.095,24.853,18.905
1746584547.86,-0.037,-0.174,0.090,-0.727,-0.618,-0.107,-74.876,24.235,19.078
1746584547.88,0.043,-0.136,-0.006,-0.718,-0.433,-0.038,-75.666,24.772,20.242
1746584547.90,0.034,-0.055,-0.120,-0.679,-0.446,-0.179,-76.428,25.215,21.183
1746584547.92,-0.084,0.014,-0.161,-0.791,-0.821,-0.259,-77.294,25.023,21.712
1746584547.94,-0.213,0.029,-0.102,-0.852,-1.086,-0.270,-78.288,24.472,22.290
1746584547.96,-0.280,0.025,-0.158,-0.593,-0.967,-0.227,-79.187,23.660,22.709
1746584547.98,-0.219,0.017,-0.248,-0.366,-0.160,0.015,-79.713,23.320,23.082
1746584548.00,-0.045,0.117,-0.260,-0.663,0.987,0.383,-80.119,26.365,25.665
1746584548.02,0.134,0.344,-0.293,-0.630,1.251,0.409,-80.592,32.641,30.631
1746584548.04,0.279,0.399,-0.249,0.107,0.624,0.091,-80.671,36.336,33.249
1746584548.06,0.207,-0.007,0.134,0.075,0.068,-0.261,-80.568,35.319,31.860
1746584548.08,0.090,-0.339,0.216,-0.324,-0.301,-0.190,-80.891,34.390,31.047
1746584548.10,0.139,-0.309,0.023,-0.267,-0.483,0.074,-81.212,34.803,31.956
1746584548.12,0.339,-0.025,0.090,-0.388,-0.144,0.275,-81.384,36.865,34.444
1746584548.14,0.404,0.159,0.126,-0.241,0.170,0.250,-81.501,40.391,37.966
1746584548.16,0.184,0.113,0.003,0.109,0.098,0.054,-81.429,41.538,38.938
1746584548.18,-0.017,-0.013,-0.102,0.040,-0.380,0.054,-81.309,41.156,38.684
1746584548.20,-0.117,-0.059,-0.094,-0.123,-0.730,0.065,-81.309,41.103,39.319
1746584548.22,-0.040,0.031,0.033,-0.000,-0.468,0.060,-81.328,41.050,40.017
1746584548.24,0.062,0.095,0.169,0.078,0.174,0.090,-81.230,41.080,40.212
1746584548.26,0.110,0.019,0.155,0.132,0.462,0.072,-81.083,41.478,40.195
1746584548.28,0.135,-0.055,0.098,0.221,0.417,0.090,-80.874,41.520,39.724
1746584548.30,0.171,-0.020,0.069,0.147,0.303,0.120,-80.615,41.601,39.377
1746584548.32,0.157,0.003,0.102,-0.011,-0.016,0.051,-80.493,41.910,39.508
1746584548.34,0.096,0.015,0.123,-0.055,-0.190,0.014,-80.513,42.111,39.873
1746584548.36,0.007,0.039,0.094,0.037,-0.043,0.000,-80.517,42.072,39.973
1746584548.38,-0.069,0.047,0.027,0.067,-0.043,-0.062,-80.487,41.621,39.545
1746584548.40,-0.073,0.025,0.030,0.018,-0.060,-0.075,-80.503,40.972,38.959
1746584548.42,-0.059,0.008,0.038,0.009,0.078,-0.042,-80.544,40.706,38.687
1746584548.44,-0.065,-0.009,-0.023,0.145,0.259,-0.056,-80.516,40.351,38.123
1746584548.46,-0.044,0.005,-0.066,0.230,0.292,-0.058,-80.387,39.509,36.937
1746584548.48,-0.058,0.057,-0.030,0.176,0.293,-0.063,-80.246,38.632,35.718
1746584548.50,-0.139,0.069,-0.001,0.235,0.438,-0.091,-80.142,37.904,34.567
1746584548.52,-0.214,0.029,-0.144,0.625,0.432,-0.122,-79.849,36.271,32.357
1746584548.54,-0.197,-0.005,-0.299,0.754,0.201,-0.108,-79.229,33.394,29.088
1746584548.56,-0.170,-0.026,-0.269,0.347,0.234,-0.089,-78.732,31.294,26.713
1746584548.58,-0.123,-0.075,-0.219,-0.091,0.324,-0.013,-78.671,31.045,26.132
1746584548.60,-0.040,-0.142,-0.077,-0.338,0.339,0.087,-78.850,32.287,27.000
1746584548.62,0.027,-0.185,0.088,-0.510,0.192,0.105,-79.206,34.556,28.996
1746584548.64,0.008,-0.137,0.105,-0.254,0.162,-0.028,-79.567,36.488,30.765
1746584548.66,-0.061,-0.002,-0.135,0.264,-0.065,-0.174,-79.626,35.994,30.180
1746584548.68,-0.089,0.125,-0.268,0.291,-0.339,-0.258,-79.457,33.452,27.853
1746584548.70,-0.057,0.138,-0.142,0.000,-0.154,-0.155,-79.470,31.518,26.208
1746584548.72,-0.004,-0.003,0.007,-0.120,0.199,0.034,-79.560,31.460,26.127
1746584548.74,0.047,-0.101,0.150,-0.151,0.546,0.144,-79.652,32.887,27.129
1746584548.76,0.133,-0.114,0.128,0.116,0.651,0.205,-79.570,34.643,28.192
1746584548.78,0.237,-0.016,0.065,0.303,0.568,0.170,-79.222,35.520,28.363
1746584548.80,0.275,0.075,-0.016,0.259,0.346,0.092,-78.874,35.664,27.965
1746584548.82,0.210,0.062,-0.056,0.168,-0.090,0.045,-78.618,35.418,27.544
1746584548.83,0.048,-0.005,0.060,0.031,-0.689,-0.111,-78.556,34.566,27.129
1746584548.85,-0.098,-0.040,0.063,0.175,-1.005,-0.235,-78.593,32.456,26.008
1746584548.88,-0.186,-0.004,0.022,0.418,-0.799,-0.268,-78.450,29.247,23.836
1746584548.89,-0.203,0.027,0.058,0.531,-0.127,-0.170,-78.079,26.348,21.427
1746584548.91,-0.180,0.015,0.064,0.546,0.315,-0.037,-77.575,24.779,19.677
1746584548.93,-0.120,-0.038,0.054,0.540,0.454,0.101,-76.991,24.222,18.641
1746584548.95,-0.047,-0.082,0.019,0.534,0.499,0.229,-76.353,24.459,18.320
1746584548.97,-0.003,-0.014,0.039,0.600,0.579,0.234,-75.661,25.007,18.258
1746584548.99,-0.012,0.078,0.067,0.741,0.520,0.159,-74.871,25.186,17.775
1746584549.01,-0.058,0.067,0.019,0.840,0.319,0.134,-73.979,24.840,16.889
1746584549.03,-0.129,0.018,-0.070,0.816,-0.028,0.112,-73.056,24.082,15.938
1746584549.05,-0.084,-0.006,-0.006,0.764,-0.028,0.147,-72.180,23.283,15.183
1746584549.07,-0.013,0.012,0.016,0.833,0.042,0.202,-71.255,22.783,14.629
1746584549.09,-0.016,0.030,0.009,0.908,0.089,0.204,-70.262,22.401,14.150
1746584549.11,-0.044,0.010,-0.007,0.976,0.270,0.204,-69.167,22.050,13.570
1746584549.13,-0.046,-0.034,0.011,0.782,0.346,0.273,-68.119,22.061,13.196
1746584549.15,0.035,-0.049,0.078,0.587,0.620,0.377,-67.270,22.725,13.327
1746584549.17,0.112,-0.044,-0.051,0.601,0.393,0.514,-66.459,23.839,13.852
1746584549.19,0.184,0.004,-0.011,0.673,0.150,0.547,-65.545,24.733,14.512
1746584549.21,0.124,0.015,-0.007,0.913,-0.207,0.399,-64.514,25.002,14.831
1746584549.23,0.026,-0.038,-0.108,1.083,-0.439,0.290,-63.278,24.295,14.493
1746584549.25,-0.056,-0.101,-0.055,0.751,-0.139,0.315,-62.172,23.660,14.215
1746584549.27,-0.018,-0.141,0.015,0.525,0.154,0.533,-61.326,24.029,14.527
1746584549.29,0.035,-0.065,-0.040,0.654,-0.163,0.602,-60.470,24.650,15.268
1746584549.31,0.044,0.024,-0.036,1.043,-0.155,0.344,-59.369,24.613,15.476
1746584549.33,-0.004,-0.014,-0.069,0.947,-0.281,0.238,-58.140,24.066,15.060
1746584549.35,-0.015,-0.065,0.015,0.649,-0.076,0.370,-57.195,23.691,14.943
1746584549.37,0.059,-0.053,0.053,0.587,0.047,0.594,-56.332,24.094,15.371
1746584549.39,0.030,0.022,0.033,0.605,-0.094,0.563,-55.451,24.561,15.981
1746584549.41,-0.024,0.059,0.016,0.803,-0.167,0.414,-54.497,24.661,16.299
1746584549.43,-0.048,0.025,-0.051,0.897,-0.240,0.281,-53.432,24.351,16.200
1746584549.45,-0.053,-0.015,-0.003,0.714,-0.041,0.275,-52.455,24.049,16.021
1746584549.47,-0.074,-0.025,-0.027,0.619,-0.086,0.413,-51.614,24.045,16.095
1746584549.49,-0.046,0.028,-0.028,0.585,0.011,0.489,-50.774,24.218,16.417
1746584549.51,0.000,0.065,-0.023,0.623,0.094,0.433,-49.931,24.574,16.735
1746584549.53,-0.008,-0.017,-0.041,0.729,0.012,0.364,-49.039,24.715,16.873
1746584549.55,0.016,-0.108,-0.039,0.780,-0.104,0.333,-48.084,24.692,16.872
1746584549.57,0.031,-0.124,-0.051,0.858,-0.268,0.230,-47.093,24.367,16.738
1746584549.59,0.044,-0.068,-0.074,0.766,-0.262,0.141,-46.154,23.834,16.447
1746584549.61,-0.047,-0.004,-0.012,0.628,-0.108,0.195,-45.358,23.486,16.242
1746584549.63,-0.038,-0.013,-0.036,0.629,-0.006,0.286,-44.594,23.383,16.204
1746584549.65,0.030,-0.044,-0.023,0.635,-0.108,0.316,-43.790,23.400,16.259
1746584549.67,0.078,-0.054,0.006,0.635,-0.109,0.228,-42.993,23.219,16.265
1746584549.69,0.036,0.000,-0.053,0.502,-0.045,0.216,-42.292,23.117,16.213
1746584549.71,0.021,0.057,-0.018,0.300,0.124,0.331,-41.748,23.240,16.336
1746584549.73,0.067,0.073,-0.022,0.246,0.094,0.494,-41.289,23.660,16.771
1746584549.75,-0.009,0.028,0.004,0.279,0.087,0.458,-40.790,24.083,17.290
1746584549.77,-0.053,-0.059,0.005,0.263,0.040,0.449,-40.294,24.469,17.729
1746584549.79,-0.022,-0.055,-0.026,0.258,0.198,0.431,-39.809,24.863,18.167
1746584549.81,-0.044,-0.025,-0.071,0.272,0.199,0.363,-39.344,25.363,18.546
1746584549.83,-0.050,-0.002,-0.082,0.380,0.026,0.300,-38.851,25.630,18.797
1746584549.85,-0.068,0.012,-0.038,0.541,-0.098,0.158,-38.258,25.598,18.806
1746584549.87,-0.102,-0.063,-0.010,0.666,-0.201,0.037,-37.582,25.266,18.546
1746584549.89,-0.093,-0.062,-0.044,0.667,-0.213,0.009,-36.878,24.782,18.152
1746584549.91,-0.017,-0.000,-0.010,0.564,-0.017,0.148,-36.212,24.485,17.868
1746584549.93,-0.007,0.038,-0.029,0.506,-0.015,0.217,-35.572,24.459,17.809
1746584549.95,0.052,-0.036,-0.002,0.553,-0.159,0.173,-34.933,24.330,17.760
1746584549.97,0.016,-0.099,0.038,0.661,-0.228,0.078,-34.252,24.003,17.579
1746584549.99,-0.015,-0.075,0.035,0.667,-0.239,0.094,-33.501,23.556,17.297
1746584550.01,-0.041,-0.031,-0.021,0.639,-0.274,0.124,-32.764,23.138,17.080
1746584550.03,-0.031,0.015,-0.005,0.577,-0.086,0.161,-32.064,22.852,16.937
1746584550.05,-0.040,-0.014,0.048,0.528,0.013,0.208,-31.397,22.790,16.875
1746584550.07,0.006,-0.037,0.090,0.515,0.031,0.286,-30.754,22.844,16.912
1746584550.09,0.057,-0.056,0.007,0.479,0.110,0.444,-30.054,22.973,17.077
1746584550.11,0.135,-0.025,-0.030,0.457,-0.018,0.511,-29.357,23.216,17.427
1746584550.13,-0.035,-0.072,0.007,0.443,-0.017,0.495,-28.642,23.331,17.815
1746584550.15,-0.086,-0.090,0.015,0.425,0.201,0.482,-27.987,23.675,18.193
1746584550.17,0.024,0.010,-0.019,0.462,0.070,0.550,-27.287,24.024,18.561
1746584550.19,-0.004,-0.001,-0.036,0.556,-0.147,0.468,-26.511,24.129,18.902
1746584550.21,-0.106,-0.049,-0.025,0.619,-0.113,0.306,-25.721,24.043,19.047
1746584550.23,-0.067,-0.034,-0.046,0.631,0.039,0.291,-24.927,24.003,19.055
1746584550.25,-0.029,0.019,-0.045,0.647,-0.107,0.277,-24.118,23.886,19.005
1746584550.27,-0.041,0.065,-0.027,0.568,-0.007,0.396,-23.334,23.861,19.088
1746584550.29,-0.036,0.071,-0.011,0.579,0.115,0.399,-22.580,24.163,19.342
1746584550.31,0.003,-0.030,-0.026,0.617,0.058,0.327,-21.792,24.281,19.441
1746584550.33,0.110,-0.010,-0.032,0.583,-0.048,0.309,-21.014,24.313,19.484
1746584550.35,0.003,0.023,0.004,0.560,-0.114,0.322,-20.272,24.238,19.547
1746584550.37,-0.026,0.079,-0.016,0.551,0.102,0.366,-19.555,24.329,19.695
1746584550.39,-0.021,0.026,-0.036,0.534,0.094,0.314,-18.833,24.406,19.759
1746584550.41,0.067,0.049,-0.026,0.492,0.104,0.406,-18.128,24.585,19.911
1746584550.43,-0.090,0.006,0.034,0.494,0.087,0.334,-17.440,24.755,20.077
1746584550.45,-0.041,-0.015,0.046,0.526,0.085,0.278,-16.772,24.864,20.138
1746584550.47,0.026,-0.026,-0.069,0.501,0.108,0.342,-16.091,24.992,20.212
1746584550.49,0.105,-0.011,-0.123,0.467,0.165,0.485,-15.396,25.197,20.410
1746584550.51,-0.041,-0.048,-0.018,0.490,0.150,0.470,-14.670,25.465,20.716
1746584550.53,-0.125,-0.019,0.049,0.560,0.104,0.300,-13.933,25.634,20.842
1746584550.55,-0.011,-0.018,-0.004,0.645,0.109,0.258,-13.177,25.754,20.833
1746584550.57,-0.008,0.002,-0.115,0.703,0.003,0.185,-12.374,25.868,20.776
1746584550.59,-0.049,-0.024,-0.030,0.690,0.110,0.190,-11.552,25.909,20.611
1746584550.61,-0.092,0.000,-0.026,0.716,0.130,0.149,-10.752,26.034,20.444
1746584550.63,-0.063,0.082,-0.018,0.749,-0.065,0.017,-9.953,26.023,20.148
1746584550.65,0.039,0.025,-0.034,0.771,-0.152,0.030,-9.166,25.826,19.784
1746584550.67,-0.014,-0.027,0.002,0.756,-0.093,0.070,-8.358,25.615,19.448
1746584550.69,-0.055,-0.054,0.010,0.775,0.071,0.116,-7.523,25.577,19.161
1746584550.71,-0.035,-0.025,0.022,0.695,0.167,0.188,-6.690,25.694,18.946
1746584550.73,-0.043,0.020,0.040,0.662,0.167,0.203,-5.894,25.879,18.817
1746584550.75,-0.024,0.016,0.012,0.656,0.180,0.223,-5.118,26.053,18.711
1746584550.77,0.048,-0.023,-0.046,0.717,0.172,0.291,-4.296,26.261,18.619
1746584550.79,0.066,-0.076,0.000,0.694,0.216,0.350,-3.402,26.458,18.585
1746584550.81,-0.053,-0.070,0.031,0.649,0.359,0.369,-2.530,26.785,18.621
1746584550.83,-0.106,0.041,-0.003,0.677,0.466,0.345,-1.670,27.271,18.647
1746584550.85,-0.006,0.060,-0.034,0.724,0.379,0.282,-0.803,27.761,18.600
1746584550.87,0.125,0.023,-0.076,0.762,0.274,0.263,0.097,28.121,18.463
1746584550.89,0.043,-0.024,-0.055,0.745,0.283,0.279,1.003,28.444,18.332
1746584550.91,-0.050,0.019,-0.045,0.776,0.338,0.249,1.911,28.802,18.190
1746584550.93,-0.001,0.013,-0.058,0.786,0.240,0.210,2.820,29.147,17.986
1746584550.95,0.036,-0.008,-0.034,0.688,0.169,0.201,3.668,29.383,17.772
1746584550.97,-0.043,0.000,-0.041,0.670,0.142,0.143,4.434,29.580,17.577
1746584550.99,0.041,-0.008,-0.086,0.716,0.057,0.092,5.190,29.727,17.294
1746584551.01,0.097,-0.024,-0.109,0.694,-0.036,0.138,5.957,29.758,17.004
1746584551.03,0.002,-0.016,-0.044,0.653,0.046,0.177,6.717,29.773,16.772
1746584551.05,-0.054,0.014,-0.020,0.651,0.178,0.152,7.456,29.961,16.556
1746584551.07,0.046,-0.025,-0.017,0.609,0.184,0.165,8.169,30.199,16.348
1746584551.09,0.081,-0.058,-0.044,0.493,0.141,0.207,8.823,30.402,16.208
1746584551.11,0.051,-0.034,-0.057,0.381,0.154,0.279,9.394,30.575,16.195
1746584551.13,-0.013,0.004,-0.050,0.370,0.211,0.296,9.927,30.771,16.271
1746584551.15,-0.000,0.007,-0.042,0.405,0.222,0.278,10.474,31.009,16.329
1746584551.17,0.002,0.001,-0.038,0.427,0.197,0.256,11.036,31.247,16.340
1746584551.19,-0.028,0.023,-0.040,0.417,0.189,0.245,11.599,31.467,16.328
1746584551.21,-0.014,0.028,-0.060,0.385,0.189,0.218,12.133,31.695,16.313
1746584551.23,-0.044,0.051,-0.068,0.383,0.139,0.183,12.622,31.889,16.277
1746584551.25,-0.026,0.015,-0.043,0.442,0.081,0.125,13.115,32.039,16.175
1746584551.27,0.003,-0.020,-0.036,0.455,0.052,0.109,13.620,32.147,16.009
1746584551.29,-0.010,-0.028,-0.039,0.461,0.097,0.092,14.125,32.273,15.823
1746584551.31,-0.004,-0.014,-0.054,0.497,0.095,0.076,14.638,32.439,15.604
1746584551.33,-0.006,-0.014,-0.023,0.482,0.082,0.063,15.155,32.606,15.358
1746584551.35,0.014,-0.022,-0.044,0.431,0.048,0.072,15.634,32.743,15.130
1746584551.37,0.058,-0.047,-0.074,0.402,0.010,0.135,16.094,32.826,14.959
1746584551.39,0.001,-0.041,-0.003,0.367,0.086,0.146,16.553,32.924,14.848
1746584551.41,0.009,-0.040,-0.021,0.332,0.110,0.145,16.980,33.063,14.765
1746584551.43,0.022,-0.046,-0.041,0.277,0.087,0.139,17.360,33.194,14.708
1746584551.45,0.012,-0.048,-0.038,0.228,0.067,0.122,17.683,33.290,14.674
1746584551.47,0.019,-0.034,-0.044,0.193,0.074,0.118,17.956,33.371,14.657
1746584551.49,-0.016,-0.010,-0.054,0.168,0.075,0.093,18.194,33.461,14.647
1746584551.51,0.002,-0.000,-0.060,0.146,0.080,0.088,18.396,33.551,14.631
1746584551.53,-0.002,-0.001,-0.071,0.144,0.078,0.074,18.587,33.647,14.619
1746584551.55,-0.015,-0.006,-0.059,0.114,0.072,0.053,18.750,33.734,14.596
1746584551.57,-0.023,-0.001,-0.055,0.080,0.081,0.048,18.873,33.823,14.586
1746584551.59,-0.025,0.001,-0.039,0.061,0.104,0.031,18.959,33.926,14.578
1746584551.61,0.002,-0.009,-0.031,0.068,0.104,0.029,19.042,34.047,14.568
1746584551.63,-0.016,-0.013,-0.032,0.080,0.082,0.007,19.119,34.156,14.537
1746584551.64,0.003,0.004,-0.044,0.099,0.052,0.007,19.210,34.246,14.485
1746584551.66,0.004,-0.007,-0.009,0.092,0.061,0.028,19.310,34.315,14.436
1746584551.68,0.004,-0.011,-0.030,0.093,0.050,0.047,19.421,34.389,14.411
1746584551.70,-0.013,-0.013,-0.015,0.074,0.019,0.053,19.532,34.419,14.404
1746584551.72,0.003,-0.018,-0.006,0.076,0.021,0.068,19.633,34.433,14.417
1746584551.74,-0.032,-0.007,-0.000,0.084,0.031,0.070,19.751,34.449,14.432
1746584551.76,-0.031,-0.004,-0.016,0.087,0.042,0.079,19.879,34.484,14.451
1746584551.78,-0.029,-0.000,-0.023,0.078,0.026,0.080,20.009,34.506,14.480
1746584551.80,-0.012,0.005,-0.027,0.090,0.003,0.078,20.142,34.513,14.505
1746584551.82,-0.014,-0.003,-0.023,0.110,0.013,0.072,20.286,34.509,14.518
1746584551.84,-0.032,-0.006,-0.017,0.114,0.034,0.064,20.439,34.521,14.512
1746584551.86,-0.015,-0.004,-0.030,0.117,0.036,0.061,20.577,34.547,14.502
1746584551.88,-0.005,0.012,-0.066,0.150,0.034,0.060,20.734,34.585,14.476
1746584551.90,-0.020,0.010,-0.057,0.163,0.027,0.045,20.913,34.622,14.427
1746584551.92,-0.032,0.010,-0.028,0.154,0.014,0.007,21.079,34.662,14.347
1746584551.94,0.007,0.009,-0.012,0.153,0.015,-0.012,21.215,34.703,14.242
1746584551.96,-0.022,0.011,-0.039,0.176,-0.022,-0.033,21.346,34.733,14.107
1746584551.98,0.002,-0.011,-0.030,0.157,-0.020,-0.040,21.470,34.756,13.955
1746584552.00,0.004,-0.031,-0.050,0.139,-0.059,-0.051,21.575,34.759,13.810
1746584552.02,0.020,-0.032,-0.013,0.105,-0.045,-0.029,21.660,34.740,13.687
1746584552.04,-0.014,-0.026,-0.023,0.079,-0.064,-0.049,21.722,34.718,13.586
1746584552.06,-0.009,-0.036,-0.015,0.043,-0.068,-0.068,21.739,34.678,13.484
1746584552.08,0.020,-0.056,-0.039,-0.060,-0.138,-0.101,21.688,34.592,13.400
1746584552.10,0.028,-0.076,-0.092,-0.121,-0.211,-0.159,21.511,34.427,13.343
1746584552.12,0.059,-0.110,-0.137,-0.156,-0.349,-0.239,21.257,34.142,13.230
1746584552.14,0.072,-0.140,-0.131,-0.220,-0.443,-0.307,20.905,33.734,13.089
1746584552.16,0.097,-0.123,-0.142,-0.333,-0.477,-0.368,20.433,33.257,12.909
1746584552.18,0.114,-0.107,-0.207,-0.518,-0.487,-0.394,19.788,32.767,12.800
1746584552.20,0.136,-0.046,-0.246,-0.712,-0.549,-0.345,18.965,32.146,12.820
1746584552.22,0.081,-0.046,-0.209,-0.900,-0.493,-0.331,17.981,31.501,12.989
1746584552.24,0.100,-0.072,-0.154,-1.113,-0.325,-0.302,16.816,30.945,13.281
1746584552.26,0.070,-0.041,-0.145,-1.327,-0.198,-0.286,15.448,30.525,13.731
1746584552.28,0.080,0.005,-0.249,-1.403,-0.213,-0.305,13.923,30.166,14.252
1746584552.30,0.067,0.002,-0.194,-1.481,-0.233,-0.325,12.321,29.786,14.774
1746584552.32,0.014,0.010,-0.224,-1.520,-0.262,-0.413,10.621,29.407,15.269
1746584552.34,0.002,-0.019,-0.141,-1.582,-0.208,-0.466,8.831,29.054,15.698
1746584552.36,0.017,-0.010,-0.134,-1.571,-0.208,-0.558,6.966,28.783,16.068
1746584552.38,0.026,-0.039,-0.053,-1.568,-0.181,-0.606,5.077,28.516,16.337
1746584552.40,0.007,0.003,-0.090,-1.604,-0.109,-0.589,3.171,28.340,16.595
1746584552.42,-0.002,-0.005,-0.093,-1.646,-0.085,-0.580,1.217,28.238,16.889
1746584552.44,0.077,-0.072,-0.025,-1.689,-0.129,-0.521,-0.755,28.102,17.222
1746584552.46,0.022,-0.110,0.045,-1.749,0.008,-0.472,-2.756,28.039,17.660
1746584552.48,-0.008,-0.123,0.050,-1.783,0.221,-0.462,-4.790,28.192,18.131
1746584552.50,-0.005,-0.049,-0.062,-1.754,0.162,-0.498,-6.831,28.483,18.630
1746584552.52,-0.042,-0.041,-0.059,-1.654,0.078,-0.632,-8.843,28.674,18.991
1746584552.54,-0.009,-0.116,0.037,-1.638,0.156,-0.659,-10.853,28.832,19.241
1746584552.56,-0.025,-0.146,-0.042,-1.522,0.069,-0.635,-12.793,29.035,19.484
1746584552.58,-0.028,-0.079,0.016,-1.427,-0.020,-0.729,-14.640,29.083,19.638
1746584552.60,-0.049,-0.070,0.076,-1.298,-0.142,-0.813,-16.434,29.007,19.623
1746584552.62,-0.052,-0.117,-0.027,-1.199,-0.135,-0.837,-18.134,28.778,19.470
1746584552.64,0.046,-0.123,-0.004,-1.236,0.022,-0.791,-19.794,28.665,19.309
1746584552.66,0.131,-0.176,0.015,-1.137,-0.189,-0.750,-21.405,28.572,19.191
1746584552.68,0.143,-0.249,0.026,-1.145,-0.346,-0.791,-22.957,28.144,19.019
1746584552.70,0.026,-0.198,0.077,-1.197,-0.174,-0.773,-24.554,27.756,18.829
1746584552.72,-0.046,-0.059,0.111,-1.220,0.165,-0.675,-26.168,27.734,18.729
1746584552.74,-0.064,0.008,0.072,-1.094,0.124,-0.614,-27.688,27.906,18.701
1746584552.76,0.016,-0.051,0.010,-1.035,-0.011,-0.525,-29.059,27.969,18.692
1746584552.78,0.104,-0.123,-0.033,-1.111,-0.048,-0.468,-30.381,27.936,18.768
1746584552.80,0.077,-0.152,0.045,-1.191,0.017,-0.461,-31.806,28.050,18.958
1746584552.82,-0.029,-0.092,0.032,-1.144,-0.167,-0.556,-33.255,28.041,19.107
1746584552.84,-0.111,-0.007,0.056,-1.072,-0.081,-0.638,-34.697,27.860,19.082
1746584552.86,-0.112,0.014,-0.017,-0.993,-0.023,-0.572,-36.071,27.768,18.997
1746584552.88,-0.057,-0.001,-0.062,-1.003,-0.085,-0.526,-37.357,27.701,18.975
1746584552.90,-0.034,-0.044,-0.100,-1.008,-0.211,-0.598,-38.670,27.511,18.946
1746584552.92,-0.026,-0.069,-0.004,-1.107,-0.019,-0.692,-40.072,27.235,18.798
1746584552.94,-0.034,-0.098,0.033,-1.171,0.320,-0.641,-41.594,27.370,18.684
1746584552.96,-0.014,-0.085,-0.025,-1.217,0.324,-0.524,-43.106,27.788,18.740
1746584552.98,0.044,-0.052,0.002,-1.293,0.352,-0.496,-44.635,28.336,18.977
1746584553.00,0.072,-0.019,-0.005,-1.339,0.289,-0.587,-46.249,28.912,19.247
1746584553.02,0.070,0.017,-0.004,-1.360,0.095,-0.715,-47.963,29.224,19.384
1746584553.04,0.089,0.002,0.047,-1.409,0.142,-0.721,-49.749,29.394,19.455
1746584553.06,0.099,-0.002,0.012,-1.426,0.140,-0.666,-51.551,29.720,19.641
1746584553.08,0.057,0.021,-0.034,-1.268,-0.163,-0.715,-53.284,29.863,19.807
1746584553.10,0.027,0.008,-0.027,-1.024,-0.486,-0.881,-54.868,29.277,19.563
1746584553.12,0.029,-0.028,-0.020,-0.959,-0.644,-0.972,-56.348,28.011,18.837
1746584553.14,0.011,-0.071,0.048,-1.153,-0.538,-0.940,-57.914,26.646,18.039
1746584553.16,-0.013,-0.098,0.095,-1.322,-0.311,-0.787,-59.638,25.739,17.538
1746584553.18,-0.028,-0.109,0.021,-1.164,-0.195,-0.592,-61.283,25.308,17.353
1746584553.20,0.012,-0.075,-0.016,-1.020,-0.197,-0.395,-62.634,25.111,17.386
1746584553.22,0.035,-0.068,0.015,-1.010,-0.113,-0.253,-63.830,25.250,17.742
1746584553.24,0.028,-0.077,0.041,-1.013,-0.126,-0.146,-64.978,25.743,18.422
1746584553.26,-0.006,-0.068,0.057,-1.030,-0.288,-0.062,-66.075,26.409,19.408
1746584553.28,-0.056,-0.071,-0.014,-0.975,-0.351,-0.055,-67.121,27.089,20.568
1746584553.30,-0.083,-0.090,0.004,-0.961,-0.344,-0.027,-68.130,27.840,21.799
1746584553.32,-0.087,-0.084,-0.066,-0.885,-0.508,0.021,-69.057,28.616,23.140
1746584553.34,-0.068,-0.042,0.022,-0.914,-0.579,0.073,-69.911,29.409,24.688
1746584553.36,-0.044,0.022,0.037,-0.986,-0.369,0.078,-70.817,30.619,26.551
1746584553.38,-0.028,0.031,0.068,-1.105,-0.298,0.104,-71.772,32.325,28.727
1746584553.40,-0.020,0.007,0.116,-1.211,-0.468,0.124,-72.818,34.576,31.547
1746584553.42,-0.044,0.014,-0.023,-0.813,-0.458,-0.054,-73.760,36.519,34.146
1746584553.44,-0.063,0.022,-0.016,-0.503,-0.175,-0.242,-74.430,37.072,35.124
1746584553.46,-0.083,-0.015,0.039,-0.676,0.033,-0.220,-75.116,37.646,35.767
1746584553.48,-0.097,-0.067,0.006,-0.866,-0.137,-0.122,-75.931,39.160,37.370
1746584553.50,-0.035,-0.109,0.036,-1.001,-0.227,0.011,-76.790,41.581,40.094
1746584553.52,-0.007,-0.086,0.023,-0.969,-0.205,0.034,-77.604,44.953,43.818
1746584553.54,0.016,-0.046,-0.047,-0.681,-0.009,-0.112,-78.287,47.885,46.942
1746584553.56,0.054,-0.011,-0.022,-0.508,0.126,-0.173,-78.852,49.837,48.859
1746584553.58,0.042,0.013,-0.047,-0.503,0.102,-0.071,-79.330,51.783,50.687
1746584553.60,-0.003,-0.011,-0.078,-0.501,-0.077,0.067,-79.671,54.335,53.268
1746584553.62,-0.058,-0.050,-0.102,-0.488,-0.057,0.058,-79.922,57.092,56.171
1746584553.64,-0.060,-0.059,-0.143,-0.498,0.092,-0.001,-80.188,59.905,59.000
1746584553.66,0.008,-0.036,-0.102,-0.579,-0.111,0.020,-80.481,63.124,62.234
1746584553.68,0.067,0.022,-0.028,-0.546,-0.522,0.075,-80.711,66.503,66.029
1746584553.70,0.068,0.033,0.010,-0.392,-0.641,0.101,-80.820,69.125,69.397
1746584553.72,0.027,-0.024,0.022,-0.260,-0.255,0.122,-80.827,70.962,71.811
1746584553.74,-0.045,-0.050,-0.064,-0.207,-0.007,0.201,-80.734,72.758,73.734
1746584553.76,-0.069,0.003,-0.070,-0.146,-0.253,0.244,-80.542,74.233,75.357
1746584553.78,-0.075,0.039,0.018,-0.159,-0.344,0.253,-80.313,75.246,76.769
1746584553.80,-0.074,0.030,0.074,-0.183,-0.162,0.251,-80.082,76.504,78.339
1746584553.82,-0.056,-0.003,0.105,-0.119,-0.184,0.220,-79.860,77.640,79.660
1746584553.84,-0.085,0.005,0.044,-0.122,-0.478,0.210,-79.646,78.244,80.647
1746584553.86,-0.149,0.036,-0.036,-0.200,-0.593,0.162,-79.469,78.795,81.865
1746584553.88,-0.191,0.073,-0.085,-0.187,-0.389,0.049,-79.387,79.595,83.264
1746584553.90,-0.157,0.069,-0.051,-0.007,-0.115,-0.071,-79.427,79.922,83.888
1746584553.92,-0.052,0.015,0.070,0.138,0.100,-0.064,-79.499,79.370,83.325
1746584553.94,0.009,-0.023,0.128,0.088,0.126,0.002,-79.506,78.697,82.489
1746584553.96,0.040,-0.027,0.068,-0.091,0.089,0.031,-79.485,78.849,82.515
1746584553.98,0.023,-0.018,-0.060,-0.113,-0.141,0.073,-79.455,79.627,83.314
1746584554.00,-0.039,0.030,-0.107,-0.018,-0.382,0.073,-79.379,79.790,83.809
1746584554.02,-0.085,0.031,-0.006,0.045,-0.297,0.034,-79.315,79.339,83.769
1746584554.04,-0.084,0.006,0.102,0.077,-0.061,0.010,-79.278,78.786,83.417
1746584554.06,-0.070,0.003,0.106,0.067,0.033,0.028,-79.241,78.361,82.973
1746584554.08,-0.074,0.016,0.068,0.019,-0.068,0.018,-79.203,78.100,82.725
1746584554.10,-0.055,-0.007,0.085,-0.001,-0.143,-0.005,-79.197,77.954,82.704
1746584554.12,-0.039,-0.017,0.065,0.035,-0.195,-0.008,-79.207,77.675,82.613
1746584554.14,-0.022,0.021,0.010,0.075,-0.294,0.003,-79.200,77.103,82.312
1746584554.16,-0.025,0.033,0.014,0.116,-0.336,0.007,-79.175,76.201,81.768
1746584554.18,-0.054,-0.002,0.089,0.123,-0.263,0.013,-79.143,75.202,81.110
1746584554.20,-0.088,-0.016,0.102,0.118,-0.100,0.023,-79.098,74.402,80.505
1746584554.22,-0.121,0.005,0.036,0.177,0.017,0.019,-79.035,73.640,79.765
1746584554.24,-0.138,0.021,-0.033,0.316,0.013,-0.031,-78.962,72.285,78.367
1746584554.26,-0.107,0.006,-0.011,0.414,0.108,-0.095,-78.902,70.202,76.192
1746584554.28,-0.061,-0.011,0.017,0.465,0.385,-0.127,-78.841,67.851,73.516
1746584554.30,-0.010,-0.021,0.026,0.514,0.651,-0.142,-78.760,65.552,70.557
1746584554.32,0.018,-0.046,0.053,0.562,0.718,-0.130,-78.642,63.257,67.394
1746584554.34,0.045,-0.030,-0.047,0.669,0.569,-0.072,-78.411,60.655,63.982
1746584554.36,0.008,-0.027,-0.011,0.634,0.502,-0.095,-78.105,57.929,60.583
1746584554.38,-0.012,-0.041,-0.048,0.738,0.431,-0.127,-77.797,55.170,57.216
1746584554.40,-0.019,-0.040,-0.049,0.962,0.598,-0.132,-77.328,51.727,53.123
1746584554.42,-0.010,-0.034,-0.002,1.029,0.853,-0.106,-76.707,48.410,48.846
1746584554.44,-0.005,-0.029,-0.097,1.144,0.699,-0.075,-75.909,45.268,44.680
1746584554.45,-0.057,-0.040,0.037,0.915,0.713,-0.163,-75.167,42.523,41.040
1746584554.47,-0.021,-0.036,-0.026,1.000,0.814,-0.135,-74.463,40.268,37.805
1746584554.49,0.021,0.014,0.045,1.091,0.735,-0.081,-73.619,38.195,34.697
1746584554.52,0.102,0.096,-0.048,1.099,0.336,-0.013,-72.633,36.141,31.916
1746584554.53,0.109,0.092,-0.022,0.937,0.225,0.031,-71.696,34.383,29.758
1746584554.55,0.042,-0.015,-0.035,0.979,0.077,0.072,-70.758,33.008,28.102
1746584554.57,-0.054,-0.058,-0.022,1.059,0.023,-0.080,-69.770,31.297,26.267
1746584554.59,-0.043,-0.059,0.084,0.936,0.523,-0.106,-68.834,29.739,24.295
1746584554.61,-0.019,-0.045,0.104,0.664,0.691,0.038,-68.061,29.243,22.965
1746584554.63,0.038,-0.019,0.078,0.728,0.610,0.246,-67.305,29.408,22.325
1746584554.65,0.030,0.015,-0.068,0.791,0.116,0.410,-66.357,29.632,22.093
1746584554.67,0.004,0.025,-0.059,0.704,0.267,0.402,-65.364,29.696,22.035
1746584554.69,0.057,0.001,0.078,0.625,0.656,0.421,-64.498,30.328,22.105
1746584554.71,0.080,-0.006,0.059,0.903,0.353,0.420,-63.526,30.994,22.102
1746584554.73,0.005,0.016,-0.133,1.153,-0.558,0.362,-62.256,30.365,21.579
1746584554.75,-0.013,0.011,-0.056,0.848,-0.140,0.318,-61.029,29.351,21.032
1746584554.77,-0.023,-0.062,0.022,0.552,0.609,0.379,-60.176,29.638,20.958
1746584554.79,-0.009,-0.080,-0.038,0.717,0.166,0.472,-59.343,30.310,21.120
1746584554.81,0.050,-0.017,0.023,1.181,-0.264,0.476,-58.128,30.047,20.987
1746584554.83,0.056,0.001,-0.075,1.437,-0.290,0.430,-56.537,29.283,20.406
1746584554.85,0.027,-0.040,-0.021,0.994,-0.066,0.382,-55.081,28.585,19.903
1746584554.87,0.047,-0.137,0.027,0.798,0.014,0.613,-53.956,28.659,19.919
1746584554.89,0.067,-0.142,0.047,0.775,-0.253,0.794,-52.778,28.897,20.417
1746584554.91,0.072,-0.097,-0.018,0.998,-0.369,0.720,-51.474,28.889,20.886
1746584554.93,0.087,-0.071,-0.002,1.158,-0.448,0.564,-50.018,28.542,20.954
1746584554.95,-0.002,-0.037,-0.103,1.093,-0.863,0.375,-48.623,27.587,20.725
1746584554.97,-0.023,-0.012,0.024,0.784,-0.356,0.523,-47.430,26.729,20.626
1746584554.99,-0.102,0.047,0.053,0.623,-0.116,0.663,-46.424,26.860,21.033
1746584555.01,-0.167,0.074,0.091,0.900,-0.102,0.592,-45.357,27.004,21.416
1746584555.03,-0.136,0.032,-0.064,1.209,-0.118,0.555,-43.954,26.862,21.442
1746584555.05,-0.045,-0.003,-0.085,0.874,-0.021,0.547,-42.576,26.805,21.456
1746584555.07,-0.004,-0.017,-0.017,0.715,-0.105,0.564,-41.514,26.891,21.683
1746584555.09,-0.040,-0.024,0.015,0.771,-0.078,0.577,-40.473,26.970,21.955
1746584555.11,-0.066,-0.018,-0.055,0.920,-0.039,0.466,-39.345,26.980,22.096
1746584555.13,-0.073,-0.026,-0.034,1.018,-0.008,0.345,-38.139,26.875,21.959
1746584555.15,-0.048,-0.048,-0.013,1.031,-0.148,0.323,-36.922,26.647,21.726
1746584555.17,-0.068,-0.061,0.018,0.934,-0.066,0.299,-35.749,26.347,21.488
1746584555.19,-0.054,-0.059,-0.039,0.870,0.173,0.317,-34.673,26.330,21.316
1746584555.21,-0.036,-0.011,-0.039,0.892,0.163,0.285,-33.630,26.437,21.151
1746584555.23,0.031,-0.069,0.037,0.977,0.163,0.273,-32.532,26.507,20.920
1746584555.25,0.085,-0.130,0.069,1.005,0.090,0.277,-31.368,26.522,20.652
1746584555.27,0.077,-0.070,0.070,0.920,-0.043,0.383,-30.213,26.432,20.448
1746584555.29,0.057,-0.022,0.013,0.740,-0.045,0.583,-29.124,26.423,20.547
1746584555.31,0.028,0.001,-0.055,0.677,-0.071,0.649,-28.081,26.515,20.867
1746584555.33,-0.021,-0.023,0.012,0.691,0.054,0.619,-27.072,26.660,21.213
1746584555.35,-0.100,-0.061,-0.006,0.813,0.001,0.534,-26.008,26.808,21.438
1746584555.37,-0.041,-0.035,0.018,0.831,0.002,0.551,-24.885,26.843,21.557
1746584555.39,-0.013,-0.004,0.040,0.790,-0.002,0.636,-23.745,26.938,21.761
1746584555.41,-0.006,-0.041,0.002,0.841,0.038,0.610,-22.597,27.058,22.013
1746584555.43,-0.043,-0.043,-0.067,0.895,0.007,0.552,-21.403,27.127,22.162
1746584555.45,-0.017,0.021,-0.016,0.900,-0.048,0.449,-20.249,27.126,22.207
1746584555.47,-0.029,0.041,-0.015,1.026,-0.015,0.414,-19.048,27.072,22.138
1746584555.49,-0.091,0.065,0.060,1.061,0.042,0.477,-17.753,27.054,22.032
1746584555.51,-0.078,0.012,0.067,0.992,0.103,0.517,-16.439,27.108,22.005
1746584555.53,0.053,-0.055,-0.051,0.990,0.130,0.444,-15.195,27.254,21.985
1746584555.55,0.098,-0.065,-0.105,1.073,0.064,0.387,-13.933,27.349,21.862
1746584555.57,0.069,-0.026,-0.034,1.071,-0.077,0.442,-12.623,27.309,21.709
1746584555.59,-0.088,-0.028,0.102,1.029,-0.075,0.496,-11.310,27.177,21.640
1746584555.61,-0.030,-0.025,0.051,0.974,0.183,0.530,-10.027,27.354,21.689
1746584555.63,0.148,-0.066,-0.018,0.941,0.161,0.530,-8.780,27.543,21.694
1746584555.65,0.152,-0.056,-0.054,0.857,0.090,0.612,-7.552,27.717,21.795
1746584555.67,0.054,-0.055,0.022,0.748,0.063,0.790,-6.386,27.817,22.082
1746584555.69,-0.043,0.049,-0.080,0.714,0.140,0.845,-5.202,27.975,22.533
1746584555.71,-0.080,0.031,-0.043,0.734,0.258,0.764,-4.036,28.262,22.962
1746584555.73,-0.036,0.003,-0.112,0.753,0.207,0.567,-2.921,28.566,23.223
1746584555.75,0.023,0.041,-0.121,0.811,0.021,0.461,-1.864,28.685,23.310
1746584555.77,-0.032,0.070,-0.117,0.855,-0.094,0.420,-0.793,28.620,23.294
1746584555.79,-0.025,0.083,-0.105,0.971,-0.062,0.360,0.335,28.526,23.191
1746584555.81,-0.087,-0.030,-0.032,1.075,0.020,0.267,1.539,28.523,22.949
1746584555.83,-0.069,-0.001,0.003,1.108,-0.001,0.139,2.754,28.554,22.550
1746584555.85,-0.014,-0.025,0.051,1.041,-0.051,0.032,3.865,28.533,22.048
1746584555.87,0.060,0.003,-0.072,0.987,-0.051,0.088,4.906,28.498,21.543
1746584555.89,0.038,0.024,-0.104,0.957,0.060,0.200,5.959,28.543,21.155
1746584555.91,0.067,-0.053,-0.005,0.907,0.241,0.293,7.032,28.751,20.888
1746584555.93,0.008,-0.073,0.069,0.856,0.414,0.347,8.094,29.154,20.730
1746584555.95,-0.057,-0.022,0.067,0.844,0.467,0.312,9.122,29.679,20.586
1746584555.97,0.035,0.013,-0.031,0.770,0.410,0.293,10.096,30.224,20.413
1746584555.99,0.133,-0.041,-0.059,0.681,0.329,0.346,10.985,30.658,20.307
1746584556.01,0.099,-0.089,-0.078,0.646,0.266,0.415,11.857,30.998,20.295
1746584556.03,0.043,-0.078,-0.035,0.657,0.263,0.476,12.756,31.287,20.352
1746584556.05,-0.054,0.011,0.037,0.669,0.316,0.482,13.686,31.588,20.431
1746584556.07,-0.103,0.010,-0.007,0.721,0.278,0.416,14.633,31.949,20.451
1746584556.09,0.024,-0.021,-0.044,0.677,0.135,0.361,15.570,32.178,20.412
1746584556.11,0.072,-0.038,-0.084,0.642,0.064,0.435,16.452,32.300,20.399
1746584556.13,0.047,-0.034,-0.139,0.642,0.043,0.458,17.337,32.341,20.445
1746584556.15,-0.064,0.013,-0.094,0.628,0.112,0.352,18.246,32.425,20.484
1746584556.17,-0.051,0.041,-0.095,0.663,0.187,0.269,19.064,32.655,20.383
1746584556.19,0.019,0.024,-0.134,0.658,0.120,0.195,19.846,32.908,20.179
1746584556.21,0.046,-0.016,-0.126,0.568,0.023,0.161,20.542,33.056,19.948
1746584556.23,0.060,-0.043,-0.142,0.497,0.027,0.162,21.152,33.149,19.762
1746584556.25,0.018,-0.003,-0.147,0.453,0.071,0.143,21.702,33.262,19.607
1746584556.27,-0.016,0.027,-0.132,0.418,0.073,0.087,22.186,33.417,19.432
1746584556.29,0.026,-0.012,-0.094,0.337,0.075,0.042,22.586,33.579,19.231
1746584556.31,0.030,-0.053,-0.105,0.261,0.021,-0.007,22.882,33.720,19.049
1746584556.33,0.053,-0.065,-0.102,0.178,-0.022,-0.021,23.079,33.773,18.888
1746584556.35,-0.000,-0.040,-0.095,0.122,-0.045,-0.046,23.196,33.794,18.745
1746584556.37,0.022,-0.024,-0.077,0.103,-0.047,-0.040,23.278,33.789,18.623
1746584556.39,-0.023,-0.053,-0.018,0.055,0.004,-0.073,23.318,33.807,18.514
1746584556.41,0.007,-0.039,-0.038,0.029,0.027,-0.076,23.306,33.865,18.402
1746584556.43,0.006,-0.030,-0.037,-0.014,-0.000,-0.055,23.274,33.913,18.330
1746584556.45,0.010,-0.037,-0.037,-0.033,-0.029,-0.043,23.221,33.904,18.300
1746584556.47,-0.004,-0.030,-0.007,-0.054,-0.013,-0.017,23.158,33.871,18.301
1746584556.49,-0.015,-0.006,-0.001,-0.057,-0.025,0.001,23.103,33.839,18.338
1746584556.51,-0.030,0.003,0.035,-0.036,0.013,0.013,23.060,33.817,18.378
1746584556.53,-0.036,0.004,0.024,0.004,0.014,0.004,23.057,33.820,18.399
1746584556.55,-0.021,-0.003,0.015,0.037,0.034,0.018,23.095,33.846,18.400
1746584556.57,-0.021,0.005,0.009,0.063,0.032,0.034,23.160,33.878,18.394
1746584556.59,-0.016,-0.004,0.012,0.090,0.002,0.043,23.268,33.899,18.381
1746584556.61,-0.022,-0.007,0.050,0.086,-0.013,0.035,23.377,33.889,18.366
1746584556.63,-0.016,0.005,0.024,0.069,0.006,0.042,23.477,33.884,18.350
1746584556.65,-0.020,-0.002,-0.022,0.030,-0.002,0.030,23.541,33.899,18.357
1746584556.67,0.055,-0.029,-0.108,0.027,-0.150,-0.012,23.578,33.819,18.350
1746584556.69,0.051,-0.090,-0.084,0.001,-0.258,-0.086,23.565,33.598,18.287
1746584556.71,0.024,-0.122,-0.094,-0.101,-0.249,-0.193,23.432,33.344,18.174
1746584556.73,0.019,-0.091,-0.179,-0.242,-0.130,-0.242,23.138,33.172,18.060
1746584556.75,0.093,-0.130,-0.247,-0.441,-0.109,-0.311,22.642,33.065,18.003
1746584556.77,0.178,-0.128,-0.316,-0.657,-0.126,-0.333,21.912,32.917,18.032
1746584556.79,0.138,-0.143,-0.246,-0.926,-0.063,-0.314,20.953,32.738,18.222
1746584556.81,0.165,-0.106,-0.208,-1.184,-0.074,-0.309,19.746,32.534,18.594
1746584556.83,0.166,-0.059,-0.185,-1.396,-0.038,-0.265,18.317,32.277,19.142
1746584556.85,0.040,-0.020,-0.201,-1.484,0.065,-0.335,16.739,32.111,19.776
1746584556.87,0.115,-0.022,-0.224,-1.588,-0.043,-0.425,15.026,31.983,20.346
1746584556.89,0.128,0.004,-0.247,-1.648,-0.150,-0.445,13.181,31.727,20.924
1746584556.91,-0.043,0.035,-0.221,-1.616,-0.142,-0.559,11.299,31.434,21.440
1746584556.93,-0.053,0.038,-0.193,-1.576,-0.111,-0.758,9.347,31.241,21.741
1746584556.95,-0.008,0.023,-0.082,-1.615,-0.114,-0.865,7.307,31.097,21.885
1746584556.97,0.013,0.039,-0.119,-1.637,-0.123,-0.874,5.201,30.950,21.992
1746584556.99,-0.007,0.016,-0.084,-1.689,-0.088,-0.909,3.047,30.824,22.096
1746584557.01,0.065,-0.090,-0.080,-1.691,-0.147,-0.956,0.846,30.691,22.156
1746584557.03,0.029,-0.114,-0.002,-1.705,-0.114,-0.914,-1.364,30.535,22.225
1746584557.05,-0.024,-0.071,-0.035,-1.743,-0.071,-0.868,-3.575,30.433,22.339
1746584557.07,0.039,-0.020,0.020,-1.787,0.000,-0.776,-5.791,30.404,22.555
1746584557.09,0.045,-0.064,0.038,-1.720,0.049,-0.717,-7.947,30.464,22.850
1746584557.11,-0.035,-0.194,0.090,-1.634,0.075,-0.751,-10.023,30.591,23.104
1746584557.13,-0.025,-0.249,0.000,-1.578,-0.032,-0.751,-12.039,30.649,23.296
1746584557.15,-0.008,-0.149,0.012,-1.520,-0.004,-0.710,-13.992,30.670,23.495
1746584557.17,-0.046,-0.075,0.054,-1.463,-0.062,-0.728,-15.875,30.662,23.662
1746584557.19,-0.067,-0.149,0.069,-1.392,-0.064,-0.747,-17.715,30.632,23.781
1746584557.21,-0.057,-0.216,0.042,-1.270,-0.013,-0.753,-19.451,30.591,23.812
1746584557.23,-0.001,-0.193,0.011,-1.219,0.032,-0.743,-21.103,30.588,23.801
1746584557.24,0.093,-0.152,0.049,-1.275,0.118,-0.751,-22.751,30.678,23.781
1746584557.26,0.106,-0.146,0.042,-1.259,-0.113,-0.688,-24.435,30.716,23.820
1746584557.28,0.055,-0.119,0.018,-1.141,-0.178,-0.644,-25.992,30.544,23.881
1746584557.30,-0.014,-0.093,0.064,-1.204,-0.072,-0.694,-27.521,30.399,23.898
1746584557.33,-0.041,-0.093,-0.013,-1.174,0.023,-0.685,-29.079,30.383,23.888
1746584557.34,-0.007,-0.031,0.083,-1.315,0.182,-0.623,-30.690,30.537,23.974
1746584557.36,0.021,-0.017,0.092,-1.306,0.191,-0.542,-32.328,30.902,24.215
1746584557.38,0.035,-0.020,-0.025,-1.231,0.057,-0.503,-33.862,31.182,24.484
1746584557.40,0.078,-0.058,-0.039,-1.223,0.079,-0.487,-35.356,31.420,24.785
1746584557.42,0.076,-0.106,-0.039,-1.279,0.188,-0.522,-36.862,31.753,25.094
1746584557.44,0.053,-0.123,0.008,-1.449,0.251,-0.545,-38.503,32.240,25.478
1746584557.46,-0.013,-0.095,0.075,-1.510,0.300,-0.587,-40.291,32.877,25.975
1746584557.48,-0.102,-0.019,-0.030,-1.247,0.056,-0.727,-42.038,33.329,26.308
1746584557.50,-0.099,0.044,-0.031,-1.069,0.005,-0.800,-43.601,33.277,26.267
1746584557.52,-0.025,0.032,0.042,-1.229,0.312,-0.716,-45.161,33.436,26.230
1746584557.54,0.080,-0.031,0.088,-1.429,0.470,-0.519,-46.832,34.172,26.612
1746584557.56,0.110,-0.056,0.037,-1.361,0.415,-0.379,-48.435,35.268,27.373
1746584557.58,0.033,-0.008,-0.060,-1.202,0.091,-0.532,-49.906,36.089,28.060
1746584557.60,-0.043,0.026,-0.079,-1.169,-0.236,-0.871,-51.466,36.184,28.300
1746584557.62,-0.056,0.015,-0.065,-1.115,-0.422,-1.097,-53.190,35.578,28.035
1746584557.64,-0.060,-0.017,-0.016,-1.076,-0.458,-1.147,-54.957,34.602,27.454
1746584557.66,-0.028,-0.081,0.049,-1.116,-0.340,-0.978,-56.683,33.652,26.886
1746584557.68,0.045,-0.112,0.021,-1.123,-0.051,-0.659,-58.264,33.294,26.725
1746584557.70,0.049,-0.104,0.048,-1.222,0.095,-0.348,-59.686,33.771,27.242
1746584557.72,0.016,-0.069,0.062,-1.310,0.074,-0.203,-61.064,34.903,28.405
1746584557.74,-0.015,-0.027,-0.031,-1.144,-0.158,-0.167,-62.335,36.075,29.788
1746584557.76,-0.016,-0.023,-0.013,-0.951,-0.290,-0.135,-63.394,36.904,31.029
1746584557.78,-0.014,-0.068,0.089,-0.984,-0.272,-0.108,-64.342,37.706,32.276
1746584557.80,0.011,-0.097,-0.021,-1.045,-0.386,-0.103,-65.321,38.676,33.740
1746584557.82,-0.006,-0.084,0.004,-1.276,-0.720,-0.100,-66.411,39.703,35.541
1746584557.84,-0.041,-0.027,-0.012,-1.385,-0.995,-0.120,-67.674,40.859,37.882
1746584557.86,-0.073,-0.019,0.007,-1.265,-1.014,-0.177,-68.923,41.876,40.242
1746584557.88,-0.093,-0.033,0.073,-1.078,-0.763,-0.244,-70.082,42.802,42.325
1746584557.90,-0.122,-0.004,0.053,-0.825,-0.452,-0.343,-71.099,43.512,43.812
1746584557.92,-0.108,0.037,0.032,-0.786,-0.347,-0.354,-72.036,44.041,44.835
1746584557.94,-0.041,0.022,0.043,-0.880,-0.244,-0.207,-72.941,45.069,46.278
1746584557.96,-0.019,-0.047,0.038,-0.915,-0.218,-0.108,-73.780,46.928,48.477
1746584557.98,-0.035,-0.104,0.027,-0.918,-0.305,-0.153,-74.584,49.056,50.998
1746584558.00,-0.046,-0.102,-0.019,-0.841,-0.327,-0.216,-75.400,51.054,53.440
1746584558.02,-0.031,-0.064,-0.040,-0.784,-0.358,-0.150,-76.147,53.015,55.863
1746584558.04,-0.028,-0.018,-0.010,-0.806,-0.289,0.004,-76.742,55.429,58.741
1746584558.06,-0.020,0.002,-0.011,-0.833,-0.098,0.105,-77.191,58.844,62.473
1746584558.08,-0.042,-0.015,-0.051,-0.736,-0.066,0.000,-77.570,62.418,66.208
1746584558.10,-0.022,-0.031,-0.070,-0.696,-0.166,-0.066,-77.966,65.540,69.527
1746584558.12,0.011,-0.059,0.007,-0.708,-0.265,-0.017,-78.330,68.717,73.039
1746584558.14,0.019,-0.087,0.077,-0.678,-0.149,0.122,-78.547,72.196,76.859
1746584558.16,-0.027,-0.044,0.033,-0.628,0.104,0.240,-78.543,76.016,80.781
1746584558.18,-0.085,0.009,-0.059,-0.578,0.271,0.187,-78.429,79.821,84.418
1746584558.20,-0.085,0.026,-0.119,-0.599,0.197,0.066,-78.387,83.372,87.773
1746584558.22,-0.021,0.013,-0.061,-0.617,0.120,0.016,-78.410,87.054,91.316
1746584558.24,0.012,-0.042,0.010,-0.363,-0.439,0.032,-78.404,89.662,94.160
1746584558.26,0.006,-0.017,0.030,-0.205,-0.626,0.076,-78.348,90.443,95.645
1746584558.28,-0.015,0.071,-0.061,-0.282,-0.088,0.189,-78.192,91.357,96.998
1746584558.30,-0.094,0.121,-0.146,-0.087,-0.325,0.193,-77.949,92.313,98.145
1746584558.32,-0.077,0.043,0.040,0.186,-0.513,0.148,-77.766,91.378,97.751
1746584558.34,-0.076,-0.010,0.180,0.129,0.006,0.163,-77.593,90.087,96.761
1746584558.36,-0.124,-0.009,0.126,-0.063,0.281,0.188,-77.384,90.194,96.630
1746584558.38,-0.162,0.037,0.006,-0.043,-0.038,0.099,-77.217,90.699,96.989
1746584558.40,-0.113,0.072,0.004,0.040,-0.102,0.040,-77.143,90.545,96.963
1746584558.42,-0.071,0.044,0.061,0.081,0.077,0.018,-77.111,90.245,96.661
1746584558.44,-0.058,-0.005,0.079,0.110,0.139,-0.022,-77.114,89.883,96.151
1746584558.46,-0.039,-0.001,0.048,0.056,0.125,-0.013,-77.147,89.603,95.707
1746584558.48,-0.034,0.050,-0.050,-0.000,0.109,-0.002,-77.156,89.627,95.596
1746584558.50,-0.034,0.031,-0.068,0.172,-0.107,-0.043,-77.180,89.326,95.266
1746584558.52,-0.023,-0.056,0.104,0.317,-0.148,-0.058,-77.247,87.861,93.945
1746584558.54,0.012,-0.054,0.119,0.247,0.014,0.034,-77.248,86.293,92.431
1746584558.56,-0.003,0.014,-0.026,0.122,0.003,0.070,-77.168,85.489,91.541
1746584558.58,-0.072,0.036,-0.120,0.132,-0.416,0.004,-77.108,84.677,90.948
1746584558.60,-0.090,-0.011,0.036,0.200,-0.554,-0.085,-77.143,83.249,90.094
1746584558.62,-0.060,-0.035,0.160,0.265,-0.318,-0.094,-77.215,81.492,88.816
1746584558.64,-0.050,0.026,0.076,0.268,-0.201,-0.072,-77.255,79.830,87.382
1746584558.66,-0.076,0.047,-0.065,0.341,-0.437,-0.114,-77.284,77.883,85.747
1746584558.68,-0.084,0.010,0.026,0.362,-0.478,-0.179,-77.351,75.365,83.743
1746584558.70,-0.088,-0.035,0.157,0.332,-0.170,-0.221,-77.467,72.988,81.703
1746584558.72,-0.083,-0.027,0.159,0.401,0.149,-0.184,-77.569,70.933,79.593
1746584558.74,-0.074,0.017,-0.029,0.769,0.129,-0.115,-77.508,68.164,76.552
1746584558.76,-0.099,0.025,-0.098,1.082,-0.077,-0.171,-77.179,63.368,71.636
1746584558.78,-0.147,-0.024,0.073,0.906,0.119,-0.361,-76.896,58.396,66.537
1746584558.80,-0.104,-0.028,0.010,0.996,0.553,-0.351,-76.647,53.960,61.619
1746584558.82,-0.111,0.002,0.089,1.026,1.238,-0.262,-76.216,50.285,56.781
1746584558.84,-0.089,0.022,0.027,1.019,1.343,-0.181,-75.634,47.661,52.489
1746584558.86,-0.074,0.021,0.007,0.923,1.089,-0.222,-75.022,45.365,48.686
1746584558.88,-0.047,-0.016,0.060,0.830,1.018,-0.301,-74.531,43.237,45.247
1746584558.90,0.049,-0.022,-0.063,0.970,0.861,-0.273,-73.990,40.978,41.773
1746584558.92,0.134,-0.022,-0.034,0.940,0.627,-0.201,-73.328,38.718,38.528
1746584558.94,0.200,-0.038,0.005,0.998,0.609,-0.004,-72.552,36.865,35.895
1746584558.96,0.162,-0.030,-0.027,1.041,0.478,0.173,-71.517,35.625,33.907
1746584558.98,0.102,-0.041,-0.056,1.087,0.364,0.216,-70.410,34.647,32.386
1746584559.00,0.032,-0.029,0.003,1.012,0.526,0.216,-69.259,33.819,30.969
1746584559.02,0.048,-0.032,-0.015,0.857,0.494,0.306,-68.216,33.536,30.016
1746584559.04,0.069,-0.024,0.032,0.976,0.408,0.309,-67.155,33.439,29.326
1746584559.06,-0.039,-0.017,-0.128,1.152,-0.259,0.156,-65.984,32.546,28.212
1746584559.08,-0.046,-0.050,-0.081,1.023,-0.152,0.143,-64.816,30.933,26.897
1746584559.10,0.060,-0.082,0.147,0.669,0.738,0.380,-63.849,30.844,26.319
1746584559.12,0.120,-0.034,-0.017,0.593,0.289,0.641,-62.965,31.805,26.670
1746584559.14,0.171,0.016,0.087,1.000,-0.038,0.648,-61.840,32.279,27.114
1746584559.16,0.050,0.024,-0.124,1.679,-0.731,0.387,-60.168,31.348,26.428
1746584559.18,-0.006,-0.026,-0.179,1.245,-0.713,0.204,-58.493,29.247,25.221
1746584559.20,0.022,-0.125,0.176,0.733,0.589,0.345,-57.421,28.846,24.706
1746584559.22,0.025,-0.130,0.059,0.744,0.105,0.629,-56.428,29.495,24.874
1746584559.24,0.031,-0.019,0.077,1.036,-0.398,0.739,-55.158,29.568,25.233
1746584559.26,-0.054,0.041,-0.219,1.231,-0.596,0.547,-53.613,28.954,25.240
1746584559.28,-0.006,-0.028,0.009,0.885,0.352,0.371,-52.302,28.597,24.990
1746584559.30,-0.008,-0.082,0.014,0.734,0.228,0.467,-51.292,29.006,24.962
1746584559.32,-0.013,-0.004,0.049,0.911,-0.196,0.548,-50.203,29.062,25.062
1746584559.34,-0.058,0.052,0.083,1.269,-0.239,0.460,-48.832,28.771,24.926
1746584559.36,-0.097,0.018,-0.201,1.202,-0.402,0.424,-47.314,28.018,24.534
1746584559.38,-0.003,-0.031,0.070,0.821,0.470,0.511,-46.070,28.023,24.432
1746584559.40,-0.054,-0.048,0.028,0.767,0.266,0.572,-44.982,28.638,24.626
1746584559.42,-0.023,0.035,0.077,0.875,0.074,0.544,-43.857,28.890,24.776
1746584559.44,-0.034,0.060,0.081,1.079,-0.027,0.491,-42.615,28.964,24.777
1746584559.46,-0.078,-0.010,-0.049,1.214,-0.086,0.459,-41.178,28.682,24.526
1746584559.48,0.015,-0.077,-0.102,0.964,0.116,0.562,-39.786,28.569,24.392
1746584559.50,0.029,-0.063,0.011,0.825,0.078,0.612,-38.601,28.836,24.555
1746584559.52,-0.057,-0.043,0.002,0.919,-0.099,0.608,-37.390,28.886,24.725
1746584559.54,-0.060,-0.060,0.142,0.932,0.084,0.555,-36.148,28.909,24.822
1746584559.56,-0.037,-0.112,-0.095,1.045,-0.165,0.516,-34.846,28.865,24.794
1746584559.58,-0.017,-0.042,-0.084,0.830,0.426,0.540,-33.614,28.982,24.785
1746584559.60,-0.033,0.055,-0.034,0.780,0.248,0.657,-32.499,29.539,24.975
1746584559.62,-0.003,0.081,0.079,0.907,-0.046,0.625,-31.296,29.751,25.182
1746584559.64,-0.056,-0.084,0.116,0.980,-0.205,0.572,-30.018,29.619,25.227
1746584559.66,-0.028,-0.143,-0.034,0.898,-0.145,0.622,-28.734,29.414,25.292
1746584559.68,-0.017,0.041,-0.105,0.762,0.125,0.728,-27.537,29.519,25.524
1746584559.70,-0.132,0.067,0.008,0.786,0.105,0.740,-26.366,29.824,25.875
1746584559.72,-0.050,-0.081,0.024,0.927,0.026,0.648,-25.122,29.994,26.101
1746584559.74,0.050,-0.120,0.144,0.980,-0.045,0.531,-23.830,29.996,26.143
1746584559.76,-0.003,-0.056,-0.032,1.038,-0.182,0.459,-22.540,29.813,26.032
1746584559.78,-0.106,0.121,-0.074,1.024,0.050,0.451,-21.262,29.673,25.884
1746584559.80,-0.064,0.116,-0.018,1.000,0.209,0.518,-19.994,29.814,25.791
1746584559.82,0.001,0.017,0.030,0.990,0.036,0.465,-18.719,29.951,25.710
1746584559.84,0.067,-0.084,0.050,0.952,-0.118,0.426,-17.506,29.855,25.588
1746584559.86,-0.004,-0.005,-0.039,1.004,-0.282,0.526,-16.272,29.593,25.503
1746584559.88,-0.122,0.074,-0.044,0.997,-0.054,0.527,-14.982,29.378,25.468
1746584559.90,-0.035,0.010,-0.006,1.062,0.151,0.575,-13.648,29.444,25.431
1746584559.92,0.076,-0.089,0.105,1.103,0.157,0.584,-12.236,29.619,25.411
1746584559.94,0.118,-0.202,0.074,1.077,0.036,0.566,-10.814,29.738,25.353
1746584559.96,0.031,-0.031,0.063,0.970,-0.041,0.728,-9.440,29.734,25.412
1746584559.98,-0.065,0.106,-0.002,0.947,0.127,0.942,-8.035,29.784,25.712
1746584560.00,-0.093,0.055,0.010,1.052,0.024,0.846,-6.524,29.895,26.010
1746584560.02,-0.026,-0.110,0.050,1.112,0.068,0.686,-5.010,29.952,26.166
1746584560.04,0.023,-0.139,-0.067,1.186,0.190,0.578,-3.511,30.101,26.109
1746584560.06,0.030,0.029,-0.145,1.145,0.106,0.580,-2.024,30.279,25.997
1746584560.08,-0.064,0.153,-0.046,1.145,0.045,0.602,-0.562,30.343,25.942
1746584560.10,-0.076,0.136,-0.058,1.143,-0.003,0.574,0.903,30.356,25.870
1746584560.11,-0.001,0.055,-0.016,1.145,-0.007,0.542,2.356,30.366,25.743
1746584560.13,0.088,-0.047,-0.065,1.133,0.152,0.616,3.807,30.458,25.650
1746584560.15,-0.054,0.028,-0.045,1.148,0.187,0.620,5.295,30.655,25.606
1746584560.17,-0.071,0.085,-0.078,1.176,0.161,0.572,6.768,30.857,25.530
1746584560.19,0.034,0.076,-0.118,1.245,0.066,0.518,8.295,31.039,25.384
1746584560.21,0.033,-0.061,-0.075,1.308,-0.039,0.342,9.793,31.120,25.028
1746584560.23,0.037,-0.148,-0.021,1.209,-0.097,0.241,11.196,31.099,24.550
1746584560.25,0.096,-0.082,-0.104,1.103,0.010,0.309,12.477,31.137,24.127
1746584560.27,-0.060,0.075,-0.059,1.071,0.060,0.326,13.729,31.255,23.789
1746584560.29,-0.038,0.107,-0.100,1.122,0.035,0.239,14.972,31.426,23.405
1746584560.31,0.187,-0.105,-0.076,1.083,-0.037,0.215,16.178,31.541,22.934
1746584560.33,0.137,-0.182,-0.028,1.001,0.028,0.315,17.348,31.641,22.556
1746584560.35,0.037,-0.170,-0.048,0.966,0.212,0.347,18.508,31.850,22.275
1746584560.37,-0.017,-0.089,-0.004,0.871,0.283,0.345,19.602,32.220,22.050
1746584560.39,0.019,-0.020,0.012,0.794,0.227,0.352,20.616,32.593,21.847
1746584560.41,0.029,-0.009,0.014,0.764,0.200,0.373,21.588,32.887,21.721
1746584560.43,0.024,-0.048,-0.018,0.709,0.109,0.354,22.521,33.105,21.592
1746584560.45,0.061,-0.056,-0.036,0.614,0.107,0.444,23.395,33.232,21.551
1746584560.47,-0.030,0.008,-0.083,0.574,0.094,0.445,24.250,33.324,21.622
1746584560.49,-0.012,-0.003,-0.101,0.574,0.080,0.408,25.062,33.391,21.677
1746584560.51,0.005,-0.031,-0.107,0.594,0.066,0.329,25.849,33.486,21.416
1746584560.53,0.000,-0.083,-0.069,0.550,0.028,0.241,26.573,33.582,20.812
1746584560.55,0.023,-0.081,-0.090,0.469,-0.060,0.174,27.194,33.643,20.181
1746584560.57,0.056,-0.071,-0.104,0.421,-0.061,0.142,27.707,33.626,19.549
1746584560.59,-0.004,-0.033,-0.087,0.360,-0.026,0.100,28.160,33.640,18.933
1746584560.61,0.026,-0.039,-0.103,0.326,0.006,0.052,28.537,33.717,18.532
1746584560.63,0.081,-0.022,-0.089,0.261,-0.004,0.060,28.850,33.792,17.915
1746584560.65,0.058,-0.029,-0.063,0.184,-0.021,0.045,29.093,33.825,17.347
1746584560.67,0.065,-0.044,-0.076,0.096,-0.030,0.042,29.259,33.829,16.845
1746584560.69,0.046,-0.028,-0.068,0.015,-0.013,0.032,29.326,33.790,16.410
1746584560.71,0.026,-0.008,-0.078,-0.013,-0.024,-0.001,29.336,33.755,16.007
1746584560.73,0.019,-0.017,-0.052,-0.019,-0.006,-0.033,29.308,33.741,15.575
1746584560.75,-0.009,0.004,-0.056,-0.042,-0.009,-0.062,29.250,33.759,15.132
1746584560.77,0.009,-0.004,-0.083,-0.072,-0.065,-0.087,29.142,33.741,14.682
1746584560.79,0.030,0.002,-0.076,-0.087,-0.115,-0.069,29.014,33.659,14.271
1746584560.81,-0.031,0.007,-0.020,-0.073,-0.120,-0.078,28.889,33.525,13.867
1746584560.83,-0.059,0.023,-0.005,-0.045,-0.099,-0.100,28.779,33.426,13.442
1746584560.85,-0.029,0.013,0.010,-0.026,-0.059,-0.092,28.678,33.376,13.361
1746584560.87,-0.008,0.000,-0.008,-0.010,-0.085,-0.068,28.603,33.330,13.290
1746584560.89,-0.017,-0.010,0.000,0.011,-0.120,-0.062,28.561,33.234,13.225
1746584560.91,-0.024,-0.002,0.032,0.030,-0.114,-0.046,28.545,33.121,13.155
1746584560.93,-0.021,-0.017,0.028,0.039,-0.093,-0.021,28.559,33.027,13.096
1746584560.95,-0.039,0.002,0.016,0.007,-0.113,-0.017,28.568,32.927,13.056
1746584560.97,-0.007,0.001,-0.020,-0.021,-0.157,-0.006,28.557,32.787,13.054
1746584560.99,0.017,-0.039,-0.038,-0.041,-0.260,-0.062,28.514,32.547,13.047
1746584561.01,-0.009,-0.125,-0.046,-0.083,-0.312,-0.168,28.408,32.261,12.962
1746584561.03,0.010,-0.164,-0.101,-0.200,-0.285,-0.265,28.132,31.991,12.822
1746584561.05,0.073,-0.178,-0.170,-0.362,-0.327,-0.330,27.695,31.697,12.677
1746584561.07,0.074,-0.182,-0.147,-0.615,-0.135,-0.339,27.020,31.449,12.639
1746584561.09,0.072,-0.130,-0.229,-0.817,-0.066,-0.370,26.108,31.310,12.730
1746584561.11,0.128,-0.101,-0.239,-1.015,-0.015,-0.371,24.997,31.173,12.930
1746584561.13,0.129,-0.073,-0.312,-1.197,-0.003,-0.381,23.691,31.027,13.253
1746584561.15,0.088,-0.082,-0.225,-1.397,0.050,-0.441,22.182,30.900,13.638
1746584561.17,0.087,-0.034,-0.217,-1.541,0.031,-0.467,20.477,30.788,14.096
1746584561.19,0.096,-0.042,-0.251,-1.632,-0.017,-0.548,18.620,30.643,14.551
1746584561.21,0.041,-0.049,-0.127,-1.849,-0.022,-0.690,16.566,30.469,14.971
1746584561.23,0.037,0.023,-0.194,-1.936,0.025,-0.785,14.255,30.394,15.361
1746584561.25,0.134,0.055,-0.237,-1.910,-0.082,-0.769,11.895,30.300,15.702
1746584561.27,0.041,0.053,-0.188,-1.809,-0.151,-0.700,9.643,30.102,16.060
1746584561.29,-0.098,0.095,-0.077,-1.722,-0.131,-0.768,7.484,29.875,16.356
1746584561.31,-0.141,0.000,-0.022,-1.698,0.014,-0.773,5.352,29.807,16.558
1746584561.33,-0.094,-0.020,-0.009,-1.691,-0.011,-0.856,3.209,29.782,16.716
1746584561.35,0.016,-0.073,-0.010,-1.625,0.027,-0.863,1.079,29.793,16.810
1746584561.37,0.008,-0.108,-0.029,-1.575,0.017,-0.888,-1.001,29.801,16.843
1746584561.39,0.010,-0.090,-0.012,-1.583,0.041,-0.890,-3.063,29.846,16.853
1746584561.41,0.030,-0.100,0.013,-1.669,0.075,-0.799,-5.166,29.930,16.933
1746584561.43,0.114,-0.083,0.039,-1.667,0.049,-0.621,-7.222,30.022,17.185
1746584561.45,0.002,-0.138,0.061,-1.685,0.134,-0.478,-9.189,30.182,17.610
1746584561.47,-0.101,-0.072,0.033,-1.628,0.311,-0.434,-11.086,30.543,18.139
1746584561.49,-0.079,-0.031,0.026,-1.619,0.358,-0.488,-12.956,31.041,18.646
1746584561.51,0.045,-0.056,0.036,-1.468,0.257,-0.531,-14.761,31.527,19.086
1746584561.53,0.005,-0.121,0.038,-1.390,-0.085,-0.627,-16.497,31.699,19.390
1746584561.55,-0.108,-0.155,0.002,-1.324,-0.085,-0.672,-18.203,31.629,19.578
1746584561.57,-0.155,-0.110,0.016,-1.306,0.156,-0.729,-19.895,31.700,19.686
1746584561.59,-0.035,-0.096,0.026,-1.347,0.280,-0.690,-21.601,32.005,19.785
1746584561.61,0.102,-0.100,0.072,-1.429,0.221,-0.636,-23.353,32.403,20.017
1746584561.63,0.112,-0.113,0.061,-1.290,-0.037,-0.662,-25.062,32.614,20.264
1746584561.65,0.050,-0.120,0.007,-1.156,-0.212,-0.742,-26.666,32.476,20.339
1746584561.67,0.000,-0.118,-0.066,-1.271,-0.054,-0.748,-28.281,32.308,20.345
1746584561.69,0.001,-0.116,0.061,-1.440,0.141,-0.595,-30.018,32.467,20.550
1746584561.71,-0.016,-0.107,0.074,-1.289,0.082,-0.435,-31.657,32.837,20.975
1746584561.73,0.007,-0.082,0.065,-1.198,-0.045,-0.444,-33.103,33.077,21.401
1746584561.75,0.028,-0.093,0.015,-1.164,-0.001,-0.577,-34.557,33.206,21.717
1746584561.77,-0.027,-0.079,-0.098,-1.162,-0.013,-0.741,-36.054,33.280,21.817
1746584561.79,-0.104,-0.045,0.012,-1.330,0.040,-0.789,-37.737,33.287,21.859
1746584561.81,-0.090,-0.025,0.078,-1.261,0.313,-0.649,-39.459,33.617,22.045
1746584561.83,-0.054,-0.009,-0.041,-0.979,0.258,-0.563,-40.892,34.086,22.230
1746584561.85,0.052,-0.034,-0.042,-0.952,0.222,-0.593,-42.146,34.410,22.328
1746584561.87,0.078,-0.076,0.012,-1.109,0.275,-0.744,-43.539,34.734,22.382
1746584561.89,0.007,-0.076,-0.016,-1.137,0.233,-0.859,-45.135,35.017,22.359
1746584561.91,-0.024,-0.044,-0.013,-1.105,0.137,-0.825,-46.748,35.170,22.277
1746584561.93,0.015,-0.020,-0.058,-0.974,0.124,-0.745,-48.232,35.258,22.213
1746584561.95,0.079,-0.041,0.004,-0.904,0.177,-0.736,-49.587,35.356,22.115
1746584561.97,0.099,-0.072,-0.009,-0.954,0.156,-0.803,-50.948,35.423,21.935
1746584561.99,0.067,-0.075,0.025,-1.202,0.081,-0.841,-52.478,35.477,21.836
1746584562.01,0.026,-0.050,0.013,-1.401,0.007,-0.861,-54.271,35.631,21.969
1746584562.03,0.014,-0.019,0.018,-1.397,0.022,-0.817,-56.143,35.871,22.255
1746584562.05,0.010,0.018,-0.012,-1.245,0.143,-0.716,-57.887,36.248,22.597
1746584562.07,-0.017,0.026,-0.056,-1.043,0.119,-0.624,-59.389,36.688,22.896
1746584562.09,-0.041,-0.016,-0.061,-0.936,-0.160,-0.558,-60.684,36.883,23.157
1746584562.11,-0.010,-0.080,-0.077,-0.998,-0.258,-0.476,-61.909,36.939,23.526
1746584562.13,0.040,-0.145,0.023,-1.276,-0.168,-0.240,-63.189,37.545,24.477
1746584562.15,0.011,-0.182,0.052,-1.459,-0.415,0.057,-64.497,39.107,26.532
1746584562.17,-0.027,-0.148,-0.073,-1.375,-0.761,0.165,-65.642,40.909,29.304
1746584562.19,-0.041,-0.106,0.011,-1.467,-0.549,0.039,-66.754,42.765,32.190
1746584562.21,-0.053,-0.080,0.027,-1.492,-0.426,-0.138,-68.028,44.990,35.146
1746584562.23,-0.021,-0.044,0.024,-1.253,-0.685,-0.173,-69.276,46.955,37.941
1746584562.25,0.016,0.022,0.054,-0.945,-0.401,-0.169,-70.247,48.395,40.192
1746584562.27,-0.039,0.022,0.041,-0.890,-0.072,-0.156,-71.070,50.058,42.208
1746584562.29,-0.106,-0.018,-0.048,-0.893,-0.154,-0.096,-71.817,51.996,44.345
1746584562.31,-0.136,-0.056,-0.070,-1.056,-0.513,-0.064,-72.544,54.215,47.060
1746584562.33,-0.106,-0.070,0.030,-1.225,-0.799,-0.084,-73.357,56.848,50.632
1746584562.35,-0.097,-0.039,0.007,-1.081,-0.651,-0.169,-74.191,59.649,54.438
1746584562.37,-0.085,-0.007,-0.049,-0.672,-0.455,-0.164,-74.861,61.814,57.350
1746584562.39,-0.034,-0.018,-0.018,-0.461,-0.186,-0.012,-75.234,63.301,59.273
1746584562.41,-0.003,-0.015,0.040,-0.494,0.151,0.057,-75.432,65.189,61.247
1746584562.43,0.042,-0.021,0.073,-0.570,0.353,0.070,-75.608,67.766,63.589
1746584562.45,0.076,-0.022,0.091,-0.643,0.292,0.088,-75.767,70.831,66.352
1746584562.47,0.074,-0.022,0.102,-0.717,0.143,0.153,-75.875,74.142,69.524
1746584562.49,0.036,-0.011,0.046,-0.717,0.073,0.260,-75.848,77.745,73.102
1746584562.51,-0.100,-0.023,-0.091,-0.459,-0.330,0.182,-75.709,80.482,76.064
1746584562.53,-0.134,-0.036,-0.043,-0.304,-0.650,0.102,-75.628,81.581,77.799
1746584562.55,-0.079,-0.045,0.118,-0.263,-0.690,0.144,-75.536,82.128,79.184
1746584562.57,-0.036,-0.004,0.190,-0.193,-0.449,0.223,-75.368,82.530,80.301
1746584562.59,-0.047,0.097,0.146,-0.251,0.049,0.302,-75.094,83.383,81.410
1746584562.61,-0.129,0.123,0.029,-0.223,-0.029,0.231,-74.804,84.641,82.629
1746584562.63,-0.204,0.060,0.033,-0.098,-0.340,0.066,-74.655,85.115,83.366
1746584562.65,-0.218,0.016,0.084,-0.069,-0.155,0.005,-74.634,85.119,83.708
1746584562.67,-0.165,0.106,-0.008,-0.007,0.218,0.006,-74.631,85.380,83.928
1746584562.69,-0.089,0.108,-0.115,0.227,0.311,-0.029,-74.631,85.288,83.488
1746584562.71,-0.006,0.014,-0.007,0.390,0.350,-0.073,-74.656,84.282,82.063
1746584562.73,0.084,-0.055,0.027,0.311,0.351,-0.068,-74.700,83.149,80.455
1746584562.75,0.109,-0.042,-0.014,0.132,0.060,0.002,-74.706,82.471,79.479
1746584562.77,0.047,-0.019,-0.012,-0.025,-0.305,0.009,-74.686,82.120,79.280
1746584562.79,0.017,-0.026,0.049,-0.071,-0.296,-0.009,-74.695,81.983,79.533
1746584562.81,-0.005,-0.007,0.057,-0.027,-0.175,0.006,-74.708,81.921,79.728
1746584562.83,-0.045,0.035,-0.030,-0.045,-0.233,0.016,-74.696,81.849,79.883
1746584562.85,-0.080,0.045,-0.021,0.001,-0.319,-0.048,-74.717,81.659,80.021
1746584562.87,-0.061,-0.014,0.095,0.085,-0.220,-0.051,-74.775,81.100,79.776
1746584562.89,-0.060,-0.011,0.087,0.055,-0.138,-0.034,-74.805,80.577,79.429
1746584562.91,-0.076,-0.004,0.059,0.003,-0.246,-0.054,-74.851,80.229,79.282
1746584562.93,-0.067,0.014,0.054,0.008,-0.366,-0.060,-74.929,79.794,79.203
1746584562.94,-0.091,0.021,0.067,0.058,-0.446,-0.034,-74.987,79.201,79.069
1746584562.96,-0.154,0.033,0.049,0.103,-0.520,-0.038,-75.002,78.277,78.688
1746584562.98,-0.200,0.052,0.026,0.140,-0.527,-0.118,-75.056,77.090,78.091
1746584563.00,-0.172,0.071,0.017,0.215,-0.351,-0.184,-75.181,75.694,77.186
1746584563.02,-0.095,0.066,-0.003,0.357,-0.027,-0.185,-75.302,74.078,75.742
1746584563.04,-0.036,0.023,-0.010,0.502,0.316,-0.169,-75.351,72.204,73.629
1746584563.06,-0.014,-0.017,0.020,0.548,0.537,-0.172,-75.341,70.276,71.112
1746584563.08,-0.022,-0.055,0.034,0.548,0.516,-0.172,-75.305,68.395,68.537
1746584563.10,-0.025,-0.054,0.029,0.590,0.472,-0.150,-75.227,66.426,65.923
1746584563.12,-0.046,-0.030,0.063,0.632,0.503,-0.160,-75.089,64.287,63.143
1746584563.14,-0.053,0.000,0.062,0.683,0.509,-0.187,-74.937,62.063,60.232
1746584563.16,-0.022,0.034,-0.055,0.889,0.477,-0.169,-74.678,59.376,56.874
1746584563.18,-0.050,0.029,-0.019,0.849,0.595,-0.238,-74.317,56.402,53.168
1746584563.20,-0.055,0.009,0.005,0.718,0.748,-0.311,-74.083,53.989,49.853
1746584563.22,-0.041,-0.017,0.034,0.810,0.836,-0.279,-73.841,51.799,46.630
1746584563.24,-0.009,-0.005,0.018,1.052,0.872,-0.204,-73.381,49.415,43.119
1746584563.26,0.001,0.014,-0.023,1.121,0.643,-0.233,-72.713,46.709,39.347
1746584563.28,0.063,-0.005,-0.103,1.072,0.352,-0.222,-72.015,43.827,35.763
1746584563.30,0.096,-0.051,0.008,0.995,0.520,-0.123,-71.302,41.449,32.771
1746584563.32,0.120,-0.055,0.034,1.069,0.726,0.049,-70.427,39.892,30.335
1746584563.34,0.057,-0.006,-0.123,1.047,0.305,0.079,-69.425,38.597,28.263
1746584563.36,-0.006,-0.011,-0.114,0.754,-0.062,0.041,-68.546,37.118,26.602
1746584563.38,0.017,-0.044,-0.043,0.581,0.189,0.050,-67.936,36.168,25.516
1746584563.40,0.044,-0.066,0.059,0.673,0.514,0.041,-67.343,35.690,24.601
1746584563.42,0.052,-0.084,0.032,1.176,0.507,0.063,-66.467,35.045,23.143
1746584563.44,-0.010,-0.058,-0.182,1.192,-0.454,0.168,-65.202,33.541,21.440
1746584563.46,0.013,-0.062,0.002,0.780,-0.006,0.258,-64.151,32.208,20.496
1746584563.48,0.068,-0.086,0.126,0.684,1.099,0.479,-63.219,32.723,20.264
1746584563.50,0.108,-0.065,0.181,0.572,0.835,0.654,-62.299,34.280,20.662
1746584563.52,0.124,-0.010,-0.082,1.134,-0.335,0.730,-61.058,34.774,20.892
1746584563.54,0.111,0.028,-0.059,1.214,-0.529,0.673,-59.428,33.963,20.640
1746584563.56,0.024,-0.015,-0.119,0.656,-0.495,0.486,-58.182,33.293,20.567
1746584563.58,-0.012,-0.021,0.106,0.656,-0.088,0.417,-57.313,33.009,20.644
1746584563.60,-0.066,-0.009,0.055,0.901,-0.247,0.437,-56.312,32.766,20.503
1746584563.62,-0.119,0.009,-0.044,1.295,-0.585,0.526,-54.962,31.956,20.126
1746584563.64,-0.151,0.023,-0.122,1.321,-0.492,0.516,-53.349,30.962,19.676
1746584563.66,-0.077,-0.017,0.007,0.984,0.481,0.405,-51.930,30.536,19.273
1746584563.68,-0.028,-0.110,-0.008,0.753,0.559,0.595,-50.816,31.222,19.237
1746584563.70,0.096,-0.104,0.092,0.646,0.256,0.833,-49.713,32.062,19.695
1746584563.72,0.150,-0.060,0.025,0.827,-0.233,0.817,-48.513,32.500,20.295
1746584563.74,0.096,-0.022,-0.035,1.101,-0.480,0.513,-47.146,32.150,20.359
1746584563.76,-0.012,0.026,-0.129,0.984,-0.477,0.427,-45.845,31.337,20.046
1746584563.78,-0.095,0.010,-0.003,0.724,-0.031,0.560,-44.728,31.024,20.023
1746584563.80,-0.151,-0.024,0.030,0.713,0.040,0.607,-43.695,31.230,20.257
1746584563.82,-0.145,-0.021,0.034,0.912,-0.171,0.571,-42.559,31.252,20.376
1746584563.84,-0.039,-0.013,-0.044,0.977,-0.112,0.595,-41.281,31.078,20.387
1746584563.86,-0.018,0.029,-0.113,0.905,0.085,0.532,-40.013,31.023,20.395
1746584563.88,-0.092,0.008,0.021,0.831,0.267,0.464,-38.873,31.258,20.352
1746584563.90,-0.056,-0.006,0.009,0.909,0.141,0.470,-37.762,31.442,20.276
1746584563.92,0.026,0.029,0.074,0.953,0.021,0.463,-36.566,31.487,20.144
1746584563.94,0.044,0.026,0.068,0.964,-0.393,0.447,-35.375,31.158,19.997
1746584563.96,0.031,-0.007,-0.083,0.910,-0.225,0.526,-34.142,30.667,19.885
1746584563.98,-0.035,-0.023,0.007,0.819,0.178,0.522,-33.010,30.726,19.929
1746584564.00,-0.091,-0.048,-0.010,0.931,0.014,0.511,-31.847,30.822,19.920
1746584564.02,-0.020,-0.054,0.116,1.036,-0.127,0.451,-30.601,30.738,19.809
1746584564.04,0.019,-0.113,0.107,1.079,-0.462,0.371,-29.312,30.240,19.556
1746584564.06,0.025,-0.114,-0.043,0.959,-0.064,0.314,-28.096,29.723,19.264
1746584564.08,0.033,0.042,-0.029,0.670,0.359,0.561,-27.059,29.916,19.201
1746584564.10,0.080,0.122,-0.025,0.617,0.136,0.806,-26.037,30.372,19.591
1746584564.12,0.093,0.053,0.068,0.623,-0.006,0.703,-24.978,30.646,20.019
1746584564.14,-0.042,-0.083,0.088,0.652,-0.327,0.697,-23.951,30.591,20.357
1746584564.16,-0.082,-0.076,-0.041,0.653,-0.090,0.714,-22.902,30.447,20.707
1746584564.18,-0.116,0.053,-0.113,0.730,0.101,0.661,-21.823,30.579,21.009
1746584564.20,-0.072,0.018,-0.008,0.848,0.077,0.535,-20.701,30.762,21.165
1746584564.22,-0.032,-0.127,0.025,0.980,-0.179,0.336,-19.546,30.662,21.044
1746584564.24,-0.056,-0.106,0.002,0.956,-0.280,0.219,-18.426,30.287,20.718
1746584564.26,-0.015,0.089,-0.077,0.836,-0.227,0.311,-17.405,29.891,20.442
1746584564.28,-0.027,0.158,-0.068,0.838,-0.112,0.366,-16.368,29.679,20.304
1746584564.30,-0.007,0.018,0.032,0.845,-0.007,0.441,-15.318,29.581,20.228
1746584564.32,0.062,-0.054,0.042,0.905,-0.008,0.462,-14.183,29.583,20.185
1746584564.34,0.071,-0.130,0.008,0.817,-0.141,0.438,-13.057,29.476,20.132
1746584564.36,0.063,-0.079,-0.007,0.675,-0.186,0.554,-12.077,29.303,20.209
1746584564.38,-0.098,0.138,0.029,0.724,0.021,0.734,-11.022,29.225,20.474
1746584564.40,-0.137,0.131,-0.000,0.835,0.158,0.702,-9.842,29.375,20.765
1746584564.42,0.024,0.036,-0.044,0.966,0.149,0.642,-8.560,29.609,20.944
1746584564.44,0.126,-0.054,-0.005,1.013,-0.127,0.489,-7.256,29.621,20.924
1746584564.46,0.047,-0.026,0.107,0.976,-0.214,0.563,-5.965,29.402,20.878
1746584564.48,-0.144,0.043,0.013,0.975,-0.040,0.662,-4.668,29.231,20.959
1746584564.50,-0.169,0.138,-0.045,1.104,0.224,0.665,-3.268,29.348,21.051
1746584564.52,-0.035,0.060,-0.059,1.186,0.147,0.491,-1.809,29.561,20.972
1746584564.54,0.029,-0.063,-0.028,1.234,-0.010,0.395,-0.345,29.644,20.725
1746584564.56,0.023,-0.056,-0.049,1.207,-0.275,0.279,1.051,29.470,20.358
1746584564.58,0.001,0.048,-0.078,1.122,-0.307,0.405,2.395,29.128,20.031
1746584564.60,-0.010,0.014,-0.089,1.124,-0.182,0.381,3.726,28.835,19.793
1746584564.62,-0.050,0.036,0.018,1.161,0.093,0.395,5.084,28.818,19.557
1746584564.64,0.009,-0.027,0.015,1.210,0.210,0.327,6.474,29.047,19.276
1746584564.66,0.155,-0.080,-0.015,1.129,0.032,0.279,7.819,29.247,18.896
1746584564.68,0.159,-0.009,-0.000,1.028,-0.098,0.434,9.084,29.218,18.639
1746584564.70,0.016,-0.022,0.036,0.937,0.037,0.585,10.350,29.162,18.612
1746584564.72,-0.130,0.015,0.007,0.896,0.345,0.606,11.587,29.348,18.710
1746584564.74,-0.070,0.008,-0.050,0.947,0.609,0.502,12.821,29.935,18.750
1746584564.76,0.051,-0.011,-0.099,0.945,0.432,0.396,14.020,30.575,18.630
1746584564.78,0.118,-0.002,-0.179,0.907,0.075,0.401,15.154,30.923,18.472
1746584564.80,0.048,0.014,-0.149,0.848,-0.140,0.462,16.263,30.875,18.367
1746584564.82,-0.114,-0.026,-0.035,0.876,0.043,0.455,17.381,30.834,18.330
1746584564.84,-0.157,-0.042,0.024,0.922,0.359,0.281,18.472,31.134,18.144
1746584564.86,0.029,-0.134,-0.070,0.934,0.318,0.193,19.520,31.662,17.787
1746584564.88,0.107,-0.074,-0.097,0.885,0.055,0.212,20.529,32.014,17.253
1746584564.90,0.055,-0.021,-0.080,0.823,-0.116,0.239,21.495,32.069,16.925
1746584564.92,-0.007,-0.037,-0.039,0.756,-0.023,0.298,22.412,32.072,16.352
1746584564.94,-0.044,-0.017,-0.021,0.751,0.076,0.282,23.317,32.174,16.164
1746584564.96,-0.002,-0.040,-0.051,0.747,0.078,0.226,24.200,32.379,15.760
1746584564.98,0.050,-0.073,-0.056,0.707,0.002,0.175,25.023,32.540,15.482
1746584565.00,0.084,-0.091,-0.110,0.611,-0.125,0.214,25.778,32.578,14.899
1746584565.02,0.041,-0.051,-0.124,0.534,-0.116,0.218,26.463,32.516,14.387
1746584565.04,-0.004,-0.034,-0.070,0.472,-0.059,0.192,27.080,32.459,13.934
1746584565.06,0.009,-0.053,-0.018,0.435,0.041,0.169,27.622,32.498,13.485
1746584565.08,-0.005,-0.032,-0.019,0.369,0.067,0.123,28.107,32.619,13.031
1746584565.10,0.051,-0.033,-0.080,0.294,0.049,0.121,28.498,32.740,12.748
1746584565.12,0.043,-0.033,-0.101,0.213,0.032,0.142,28.825,32.804,12.548
1746584565.14,0.033,-0.018,-0.102,0.166,-0.002,0.140,29.095,32.807,12.248
1746584565.16,-0.002,0.004,-0.043,0.142,0.063,0.128,29.326,32.821,11.974
1746584565.18,-0.027,0.011,-0.061,0.157,0.068,0.061,29.531,32.906,11.651
1746584565.20,0.009,-0.011,-0.049,0.134,0.005,0.017,29.693,32.983,11.283
1746584565.22,0.022,-0.024,-0.045,0.100,-0.042,-0.014,29.808,32.994,10.889
1746584565.24,0.021,-0.016,-0.045,0.087,-0.041,-0.028,29.878,32.995,10.501
1746584565.26,-0.013,-0.007,-0.061,0.073,-0.069,-0.050,29.933,32.978,10.105
1746584565.28,0.006,-0.011,-0.048,0.023,-0.074,-0.046,29.944,32.942,9.728
1746584565.30,0.015,-0.028,-0.019,-0.063,-0.093,-0.077,29.893,32.865,9.386
1746584565.32,0.006,-0.029,-0.059,-0.156,-0.033,-0.106,29.730,32.811,9.104
1746584565.34,0.047,-0.054,-0.142,-0.169,-0.015,-0.136,29.501,32.794,8.816
1746584565.36,0.069,-0.092,-0.102,-0.251,-0.059,-0.169,29.206,32.768,8.541
1746584565.38,0.048,-0.041,-0.117,-0.358,-0.075,-0.209,28.809,32.680,8.298
1746584565.40,0.052,-0.046,-0.114,-0.503,0.024,-0.245,28.246,32.622,8.106
1746584565.42,0.002,-0.057,-0.171,-0.547,-0.019,-0.331,27.576,32.599,7.934
1746584565.44,0.103,-0.123,-0.182,-0.663,-0.095,-0.401,26.765,32.529,7.721
1746584565.46,0.095,-0.132,-0.150,-0.824,-0.121,-0.433,25.795,32.380,7.778
1746584565.48,0.079,-0.081,-0.201,-0.955,-0.110,-0.451,24.666,32.197,7.910
1746584565.50,0.046,-0.091,-0.152,-1.094,-0.100,-0.514,23.382,31.999,8.085
1746584565.52,0.118,-0.134,-0.161,-1.214,-0.096,-0.531,21.952,31.806,8.285
1746584565.54,0.038,-0.060,-0.164,-1.290,-0.065,-0.568,20.408,31.633,8.525
1746584565.56,-0.000,-0.005,-0.181,-1.370,-0.098,-0.651,18.752,31.473,8.739
1746584565.58,0.095,-0.013,-0.172,-1.444,-0.161,-0.601,16.997,31.261,8.974
1746584565.60,-0.005,-0.017,-0.100,-1.474,-0.198,-0.653,15.199,30.958,9.238
1746584565.62,-0.007,0.004,-0.096,-1.439,-0.201,-0.672,13.376,30.671,9.452
1746584565.64,-0.076,0.013,-0.048,-1.411,-0.144,-0.763,11.566,30.440,9.580
1746584565.66,-0.002,0.003,-0.065,-1.417,-0.115,-0.702,9.750,30.286,9.659
1746584565.68,-0.094,-0.006,-0.046,-1.435,0.026,-0.713,7.935,30.211,9.793
1746584565.70,0.002,-0.036,-0.042,-1.416,0.045,-0.743,6.109,30.244,9.900
1746584565.72,0.044,-0.134,0.021,-1.389,-0.082,-0.776,4.291,30.220,9.951
1746584565.73,-0.038,-0.173,0.082,-1.400,0.046,-0.678,2.493,30.166,10.014
1746584565.76,-0.023,-0.031,-0.103,-1.438,0.109,-0.622,0.735,30.271,10.206
1746584565.77,0.062,-0.026,-0.054,-1.466,0.117,-0.611,-1.060,30.419,10.429
1746584565.79,0.073,-0.042,0.054,-1.471,0.028,-0.562,-2.846,30.514,10.705
1746584565.81,-0.006,-0.081,0.110,-1.461,0.089,-0.520,-4.607,30.586,11.025
1746584565.83,-0.026,-0.057,-0.011,-1.420,0.153,-0.517,-6.317,30.750,11.361
1746584565.85,-0.040,-0.023,0.045,-1.464,0.218,-0.523,-8.036,31.011,11.691
1746584565.87,0.032,-0.009,0.046,-1.431,0.188,-0.495,-9.752,31.298,12.068
1746584565.89,0.041,-0.058,-0.027,-1.369,0.085,-0.528,-11.419,31.517,12.399
1746584565.91,-0.004,-0.079,-0.002,-1.317,0.054,-0.552,-13.053,31.665,12.693
1746584565.93,-0.022,-0.086,-0.036,-1.343,0.015,-0.582,-14.681,31.754,12.939
1746584565.95,-0.015,-0.089,0.036,-1.277,-0.039,-0.593,-16.326,31.829,13.184
1746584565.97,-0.085,-0.095,0.037,-1.185,0.066,-0.693,-17.894,31.835,13.302
1746584565.99,-0.107,-0.090,-0.002,-1.136,0.288,-0.711,-19.451,32.054,13.317
1746584566.01,-0.020,-0.030,0.007,-1.109,0.339,-0.720,-20.957,32.444,13.315
1746584566.03,0.037,-0.045,-0.023,-1.003,0.175,-0.823,-22.458,32.683,13.220
1746584566.05,0.069,-0.100,-0.020,-0.953,0.143,-0.855,-23.901,32.785,12.977
1746584566.07,0.014,-0.138,0.038,-1.035,0.033,-0.776,-25.365,32.795,12.786
1746584566.09,0.003,-0.129,0.033,-1.076,0.009,-0.624,-26.819,32.796,12.768
1746584566.11,0.040,-0.070,0.063,-1.140,0.313,-0.484,-28.227,33.028,12.951
1746584566.13,0.051,-0.063,0.002,-1.207,0.422,-0.455,-29.631,33.684,13.287
1746584566.15,0.039,-0.109,-0.038,-1.230,0.140,-0.495,-31.090,34.191,13.679
1746584566.17,0.046,-0.133,-0.019,-1.206,0.076,-0.547,-32.575,34.472,14.022
1746584566.19,0.040,-0.084,0.024,-1.310,0.181,-0.584,-34.117,34.800,14.354
1746584566.21,-0.027,-0.025,-0.032,-1.320,0.087,-0.621,-35.752,35.174,14.732
1746584566.23,-0.063,0.001,0.009,-1.209,0.175,-0.643,-37.362,35.500,15.043
1746584566.25,-0.031,-0.039,-0.067,-1.058,0.206,-0.590,-38.811,35.860,15.255
1746584566.27,0.005,-0.088,0.039,-1.199,0.256,-0.534,-40.217,36.300,15.560
1746584566.29,0.010,-0.124,0.017,-1.292,0.255,-0.495,-41.717,36.943,16.075
1746584566.31,-0.007,-0.083,0.011,-1.341,0.297,-0.549,-43.265,37.656,16.677
1746584566.33,0.024,-0.021,-0.033,-1.280,0.411,-0.635,-44.874,38.451,17.236
1746584566.35,0.065,0.012,-0.020,-1.213,0.303,-0.687,-46.447,39.182,17.662
1746584566.37,0.043,0.016,0.038,-1.255,0.123,-0.754,-48.047,39.705,18.037
1746584566.39,0.010,0.013,0.024,-1.252,0.033,-0.804,-49.731,40.054,18.404
1746584566.41,-0.013,0.011,-0.006,-1.136,0.044,-0.852,-51.383,40.313,18.665
1746584566.43,-0.033,0.017,-0.041,-1.020,-0.132,-0.917,-52.965,40.297,18.693
1746584566.45,-0.033,0.008,-0.040,-1.002,-0.274,-0.981,-54.542,39.924,18.543
1746584566.47,-0.007,-0.027,-0.011,-1.052,-0.176,-0.980,-56.156,39.468,18.323
1746584566.49,0.003,-0.072,0.085,-1.185,-0.048,-0.864,-57.821,39.342,18.307
1746584566.51,0.011,-0.112,0.022,-1.050,-0.053,-0.628,-59.376,39.553,18.623
1746584566.53,0.036,-0.107,-0.035,-0.798,0.001,-0.359,-60.535,39.916,19.085
1746584566.55,0.044,-0.075,0.011,-0.874,0.038,-0.165,-61.427,40.630,19.855
1746584566.57,0.018,-0.059,0.044,-1.167,-0.152,-0.088,-62.390,41.830,21.268
1746584566.59,-0.017,-0.056,-0.040,-1.282,-0.509,-0.118,-63.512,43.195,23.207
1746584566.61,-0.042,-0.061,-0.031,-1.276,-0.878,-0.186,-64.682,44.206,25.227
1746584566.63,-0.060,-0.071,0.094,-1.353,-0.960,-0.219,-65.916,45.036,27.340
1746584566.65,-0.048,-0.051,0.060,-1.276,-0.596,-0.250,-67.175,46.225,29.632
1746584566.67,-0.071,0.010,-0.091,-0.929,-0.339,-0.374,-68.293,47.374,31.416
1746584566.69,-0.046,0.009,0.003,-0.875,-0.180,-0.409,-69.308,48.182,32.606
1746584566.71,-0.010,-0.018,-0.053,-0.916,-0.119,-0.306,-70.292,49.360,34.033
1746584566.73,-0.001,-0.060,0.001,-1.100,-0.349,-0.139,-71.222,51.199,36.212
1746584566.75,-0.053,-0.070,-0.055,-1.159,-0.823,-0.050,-72.090,53.424,39.290
1746584566.77,-0.049,-0.065,0.000,-1.258,-0.878,-0.040,-72.931,55.887,42.906
1746584566.79,-0.077,-0.026,0.009,-1.240,-0.882,-0.098,-73.771,58.845,47.050
1746584566.81,-0.073,0.015,-0.008,-0.995,-0.719,-0.139,-74.535,61.563,50.835
1746584566.83,-0.014,-0.003,0.069,-0.948,-0.479,-0.006,-75.112,64.289,54.369
1746584566.85,-0.018,-0.072,0.069,-0.944,-0.280,0.080,-75.511,67.721,58.369
1746584566.87,-0.068,-0.084,-0.018,-0.848,-0.016,0.085,-75.781,71.472,62.405
1746584566.89,-0.099,-0.060,-0.051,-0.735,0.084,0.124,-75.931,75.079,66.071
1746584566.91,-0.117,-0.015,-0.080,-0.656,0.095,0.175,-75.946,78.426,69.415
1746584566.93,-0.104,0.033,-0.040,-0.498,0.045,0.147,-75.879,81.266,72.263
1746584566.95,-0.031,0.060,0.021,-0.293,0.108,0.146,-75.775,83.185,74.162
1746584566.97,-0.024,0.070,-0.009,-0.243,0.159,0.097,-75.661,84.558,75.408
1746584566.99,-0.007,0.015,-0.013,-0.275,0.034,0.012,-75.622,85.842,76.606
1746584567.01,0.041,-0.053,0.057,-0.324,-0.045,-0.045,-75.667,87.150,77.977
1746584567.03,0.060,-0.076,0.063,-0.351,-0.162,-0.004,-75.721,88.562,79.542
1746584567.05,0.015,-0.022,-0.074,-0.352,-0.425,0.134,-75.658,89.830,81.179
1746584567.07,-0.060,0.069,-0.123,-0.259,-0.739,0.221,-75.442,90.540,82.619
1746584567.09,-0.091,0.095,-0.023,-0.075,-0.588,0.188,-75.202,90.468,83.376
1746584567.11,-0.070,0.063,0.123,0.100,-0.071,0.177,-74.997,89.993,83.287
1746584567.13,-0.132,0.031,0.124,0.159,0.271,0.144,-74.806,89.567,82.686
1746584567.15,-0.186,0.021,0.064,0.127,0.205,0.031,-74.699,89.260,82.055
1746584567.17,-0.145,0.015,0.086,0.068,0.165,-0.053,-74.716,89.026,81.623
1746584567.19,-0.026,0.002,0.116,0.027,0.267,-0.060,-74.786,89.084,81.415
1746584567.21,0.070,-0.008,0.056,-0.019,0.094,-0.017,-74.833,89.282,81.386
1746584567.23,0.058,0.004,-0.017,-0.117,-0.123,0.053,-74.812,89.534,81.668
1746584567.25,-0.039,0.008,-0.057,-0.130,-0.324,0.033,-74.759,89.850,82.272
1746584567.27,-0.082,-0.013,0.023,0.005,-0.271,-0.008,-74.750,89.782,82.583
1746584567.29,-0.053,0.003,0.099,0.115,-0.112,0.009,-74.750,89.290,82.284
1746584567.31,-0.050,0.021,0.123,0.096,-0.198,0.047,-74.715,88.662,81.797
1746584567.33,-0.068,0.043,0.114,-0.011,-0.270,0.044,-74.658,88.179,81.589
1746584567.35,-0.119,0.021,0.119,-0.083,-0.199,0.045,-74.618,88.138,81.835
1746584567.37,-0.165,0.020,0.109,-0.044,-0.115,0.052,-74.568,88.291,82.173
1746584567.39,-0.181,0.056,0.063,0.061,-0.090,0.016,-74.525,88.200,82.193
1746584567.41,-0.142,0.067,0.050,0.167,0.056,-0.076,-74.563,87.723,81.736
1746584567.43,-0.053,0.022,0.061,0.256,0.217,-0.107,-74.682,87.057,80.861
1746584567.45,0.006,-0.005,0.052,0.327,0.167,-0.045,-74.770,86.080,79.606
1746584567.47,0.017,-0.003,0.053,0.335,0.096,0.020,-74.765,84.840,78.165
1746584567.49,-0.023,-0.002,0.061,0.322,0.035,0.024,-74.707,83.574,76.772
1746584567.51,-0.076,-0.006,0.051,0.331,-0.054,-0.013,-74.659,82.244,75.402
1746584567.53,-0.110,-0.003,0.032,0.394,-0.125,-0.059,-74.639,80.651,73.858
1746584567.55,-0.116,0.018,0.013,0.467,-0.115,-0.121,-74.650,78.679,71.967
1746584567.57,-0.103,0.018,0.037,0.541,-0.000,-0.205,-74.706,76.413,69.692
1746584567.59,-0.091,0.011,0.037,0.644,0.155,-0.262,-74.797,73.865,66.963
1746584567.61,-0.092,-0.006,0.042,0.810,0.405,-0.298,-74.851,70.933,63.599
1746584567.63,-0.079,-0.000,-0.022,0.966,0.549,-0.359,-74.834,67.461,59.411
1746584567.65,-0.048,0.012,-0.080,0.920,0.466,-0.424,-74.794,63.698,54.899
1746584567.67,-0.024,-0.002,-0.059,0.819,0.534,-0.412,-74.757,60.194,50.708
1746584567.69,0.007,-0.065,-0.037,0.782,0.746,-0.306,-74.634,57.306,46.939
1746584567.71,0.059,-0.083,-0.080,0.754,0.670,-0.215,-74.382,54.901,43.595
1746584567.73,0.096,-0.060,-0.105,0.778,0.445,-0.216,-74.072,52.576,40.503
1746584567.75,0.140,-0.050,-0.097,0.904,0.322,-0.170,-73.648,49.915,37.302
1746584567.77,0.143,-0.029,-0.023,0.872,0.329,-0.079,-73.085,47.399,34.276
1746584567.79,0.139,0.002,-0.054,0.973,0.071,0.092,-72.371,45.233,31.783
1746584567.81,0.074,0.013,0.044,1.023,0.491,0.218,-71.399,43.428,29.580
1746584567.83,-0.024,-0.013,0.010,0.867,0.431,0.175,-70.440,42.395,27.863
1746584567.85,-0.045,-0.049,0.030,0.936,0.343,0.044,-69.604,41.205,26.168
1746584567.87,-0.030,-0.061,0.093,0.999,0.619,0.028,-68.748,39.941,24.204
1746584567.89,-0.061,-0.043,-0.072,0.923,0.274,0.085,-67.846,38.809,22.416
1746584567.91,-0.054,-0.016,-0.032,0.869,0.380,0.102,-66.992,37.851,21.033
1746584567.93,-0.005,0.012,0.094,1.091,0.865,0.092,-66.064,37.233,19.560
1746584567.95,-0.025,0.042,-0.059,1.028,0.377,0.184,-64.955,36.607,18.018
1746584567.97,-0.030,0.004,0.007,0.730,0.128,0.339,-63.987,36.075,17.213
1746584567.99,0.011,-0.050,0.115,0.765,0.646,0.504,-63.043,36.314,17.003
1746584568.01,0.056,-0.060,0.027,0.924,0.519,0.630,-61.872,37.010,16.921
1746584568.03,0.048,-0.012,-0.044,1.198,-0.289,0.554,-60.485,36.811,16.528
1746584568.05,0.030,0.057,-0.053,0.910,-0.568,0.425,-59.128,35.715,15.941
1746584568.07,0.010,0.077,0.063,0.569,0.093,0.323,-58.232,35.191,15.696
1746584568.09,-0.016,0.011,0.065,0.590,0.388,0.409,-57.472,35.499,15.608
1746584568.11,-0.016,-0.022,-0.000,0.771,-0.173,0.579,-56.525,35.657,15.640
1746584568.13,0.015,0.043,-0.076,1.100,-0.314,0.613,-55.236,35.255,15.550
1746584568.15,-0.040,0.060,-0.018,0.956,-0.083,0.396,-53.909,34.723,15.178
1746584568.17,-0.083,-0.066,-0.045,0.788,0.081,0.412,-52.863,34.434,14.824
1746584568.19,-0.015,-0.154,-0.005,0.689,0.069,0.662,-51.820,34.593,14.888
1746584568.21,0.001,-0.120,0.015,0.779,0.035,0.647,-50.711,34.876,15.169
1746584568.23,-0.028,-0.029,-0.048,1.195,-0.148,0.389,-49.439,34.658,14.922
1746584568.25,-0.013,0.005,-0.045,1.072,-0.047,0.278,-48.122,33.934,14.219
1746584568.27,0.021,-0.035,-0.037,0.829,0.201,0.455,-47.013,33.784,13.828
1746584568.29,0.089,-0.017,0.044,0.724,0.042,0.597,-45.943,33.967,13.869
1746584568.31,0.053,0.003,0.080,0.816,-0.161,0.512,-44.866,33.922,13.946
1746584568.33,-0.003,-0.031,0.072,1.034,-0.127,0.448,-43.704,33.657,13.752
1746584568.35,0.011,-0.043,-0.048,1.007,-0.058,0.555,-42.370,33.310,13.484
1746584568.37,0.085,0.007,0.015,0.670,0.169,0.618,-41.205,33.432,13.541
1746584568.39,0.031,0.024,0.072,0.538,0.173,0.689,-40.231,33.863,13.875
1746584568.41,-0.023,0.037,0.065,0.645,0.136,0.724,-39.224,34.289,14.272
1746584568.43,-0.061,0.015,0.021,0.870,0.025,0.645,-38.079,34.513,14.490
1746584568.45,-0.066,-0.010,-0.069,0.975,-0.090,0.609,-36.779,34.430,14.449
1746584568.47,-0.063,0.007,-0.103,0.828,-0.025,0.586,-35.539,34.334,14.427
1746584568.49,-0.088,0.031,-0.064,0.759,0.085,0.500,-34.449,34.385,14.442
1746584568.51,-0.106,0.022,-0.009,0.849,0.047,0.392,-33.415,34.413,14.330
1746584568.53,-0.075,-0.027,0.070,0.916,-0.025,0.370,-32.345,34.281,14.075
1746584568.54,-0.071,-0.038,-0.095,1.021,-0.091,0.388,-31.171,34.010,13.749
1746584568.56,0.012,-0.002,-0.051,0.827,0.233,0.407,-30.035,33.970,13.485
1746584568.58,0.060,-0.021,-0.021,0.728,0.048,0.464,-29.039,34.107,13.402
1746584568.60,0.054,-0.085,0.026,0.807,-0.070,0.468,-28.014,34.070,13.359
1746584568.62,0.052,-0.154,0.053,0.774,-0.138,0.467,-26.961,33.902,13.266
1746584568.64,0.055,-0.118,0.012,0.663,-0.223,0.569,-25.957,33.713,13.315
1746584568.66,-0.021,-0.013,-0.094,0.641,-0.157,0.615,-24.954,33.547,13.483
1746584568.68,0.016,-0.003,-0.033,0.582,-0.031,0.617,-23.992,33.577,13.712
1746584568.70,-0.002,-0.085,0.019,0.693,-0.236,0.528,-23.020,33.483,13.880
1746584568.72,-0.061,-0.098,0.078,0.782,-0.226,0.379,-22.032,33.192,13.841
1746584568.74,-0.126,-0.010,-0.067,0.833,-0.260,0.345,-21.030,32.836,13.662
1746584568.76,-0.014,0.134,-0.127,0.743,0.151,0.440,-20.023,32.701,13.517
1746584568.78,0.061,0.108,-0.017,0.617,0.072,0.573,-19.066,32.942,13.614
1746584568.80,0.015,-0.018,-0.010,0.714,-0.156,0.436,-18.115,32.882,13.701
1746584568.82,0.002,-0.086,0.080,0.736,-0.121,0.360,-17.171,32.690,13.617
1746584568.84,-0.015,-0.033,0.011,0.706,-0.113,0.387,-16.251,32.511,13.521
1746584568.86,-0.085,0.070,-0.037,0.694,-0.117,0.422,-15.332,32.395,13.501
1746584568.88,-0.083,0.013,-0.037,0.821,-0.018,0.302,-14.387,32.279,13.389
1746584568.90,-0.008,-0.081,-0.016,0.955,-0.157,0.219,-13.361,32.135,13.091
1746584568.92,0.027,-0.079,0.070,0.978,-0.506,0.151,-12.301,31.659,12.661
1746584568.94,-0.122,-0.047,0.090,1.018,-0.432,0.108,-11.270,31.011,12.188
1746584568.96,-0.096,0.029,-0.096,1.146,-0.259,0.095,-10.160,30.492,11.648
1746584568.98,-0.069,0.118,-0.049,1.163,-0.210,0.100,-8.951,30.169,11.062
1746584569.00,0.084,-0.017,0.014,1.059,-0.229,0.192,-7.770,29.832,10.541
1746584569.02,0.143,-0.084,0.057,0.918,-0.273,0.354,-6.630,29.513,10.260
1746584569.04,0.072,-0.081,0.046,0.853,-0.103,0.487,-5.520,29.275,10.188
1746584569.06,-0.051,-0.074,0.080,0.745,0.008,0.611,-4.415,29.258,10.286
1746584569.08,-0.001,-0.003,0.032,0.689,0.135,0.667,-3.342,29.357,10.559
1746584569.10,0.014,-0.047,-0.049,0.762,0.030,0.654,-2.260,29.477,10.799
1746584569.12,0.038,-0.017,-0.064,0.803,0.088,0.789,-1.086,29.522,11.064
1746584569.14,-0.122,0.013,-0.030,0.883,0.072,0.725,0.180,29.576,11.324
1746584569.16,-0.193,-0.023,0.013,0.843,0.303,0.636,1.436,29.786,11.524
1746584569.18,-0.081,-0.023,-0.090,0.809,0.268,0.565,2.592,30.148,11.647
1746584569.20,0.010,0.040,-0.139,0.936,0.135,0.484,3.760,30.409,11.689
1746584569.22,-0.045,0.095,-0.064,1.041,-0.076,0.337,4.979,30.449,11.503
1746584569.24,-0.022,0.094,-0.016,1.121,-0.105,0.352,6.239,30.369,11.200
1746584569.26,-0.049,0.020,-0.027,1.141,0.016,0.336,7.558,30.328,10.889
1746584569.28,-0.113,-0.044,-0.015,1.147,0.223,0.291,8.882,30.527,10.538
1746584569.30,0.053,-0.072,-0.006,1.105,0.247,0.318,10.153,30.869,10.172
1746584569.32,0.010,-0.007,-0.007,1.093,0.049,0.283,11.413,31.119,9.825
1746584569.34,0.105,-0.033,-0.052,1.060,0.018,0.344,12.645,31.221,9.469
1746584569.36,0.066,-0.045,-0.093,0.997,0.037,0.420,13.909,31.313,9.262
1746584569.38,0.051,-0.106,-0.057,0.890,0.164,0.472,15.100,31.455,9.136
1746584569.40,0.050,-0.096,-0.039,0.798,0.205,0.475,16.212,31.694,9.095
1746584569.42,0.090,-0.051,-0.041,0.696,0.228,0.498,17.216,31.934,9.115
1746584569.44,0.036,0.017,-0.074,0.684,0.162,0.443,18.177,32.158,9.159
1746584569.46,0.081,-0.022,-0.051,0.689,0.118,0.429,19.100,32.309,9.167
1746584569.48,0.044,-0.059,-0.041,0.682,0.046,0.402,20.010,32.415,9.139
1746584569.50,-0.014,-0.037,0.001,0.593,0.121,0.369,20.865,32.530,9.117
1746584569.52,0.001,0.008,-0.098,0.590,0.144,0.336,21.649,32.693,9.089
1746584569.54,0.003,0.034,-0.070,0.597,0.082,0.282,22.414,32.855,9.015
1746584569.56,0.082,0.009,-0.079,0.588,0.069,0.268,23.148,32.987,8.778
1746584569.58,0.061,-0.015,-0.087,0.555,0.062,0.278,23.872,33.098,8.672
1746584569.60,0.063,-0.023,-0.082,0.503,0.135,0.308,24.562,33.235,8.616
1746584569.62,0.000,-0.003,-0.065,0.394,0.095,0.328,25.189,33.363,8.639
1746584569.64,0.009,0.011,-0.035,0.356,0.093,0.315,25.744,33.420,8.723
1746584569.66,0.018,-0.054,-0.066,0.368,0.074,0.296,26.280,33.492,8.797
1746584569.68,0.012,0.001,-0.080,0.378,0.025,0.242,26.805,33.539,8.580
1746584569.70,0.052,0.018,-0.110,0.378,-0.068,0.218,27.306,33.523,8.320
1746584569.72,0.043,0.038,-0.094,0.361,-0.046,0.213,27.814,33.478,8.055
1746584569.74,-0.078,0.024,-0.060,0.278,-0.102,0.181,28.232,33.382,8.049
1746584569.76,0.015,-0.034,-0.079,0.274,-0.067,0.134,28.588,33.329,7.912
1746584569.78,0.023,-0.026,-0.060,0.266,-0.147,0.072,28.912,33.243,7.605
1746584569.80,0.032,-0.030,-0.074,0.223,-0.137,0.031,29.183,33.132,7.258
1746584569.82,0.041,-0.032,-0.086,0.168,-0.084,0.047,29.390,33.057,6.945
1746584569.84,0.043,-0.024,-0.077,0.108,-0.062,0.060,29.556,33.001,6.685
1746584569.86,0.002,-0.032,-0.061,0.054,-0.081,0.020,29.656,32.928,6.568
1746584569.88,0.044,-0.038,-0.053,0.023,-0.066,-0.005,29.700,32.850,6.349
1746584569.90,0.023,-0.025,-0.049,-0.033,-0.071,-0.028,29.685,32.778,6.125
1746584569.92,0.020,-0.002,-0.044,-0.083,-0.050,-0.040,29.601,32.704,6.131
1746584569.94,0.010,0.014,-0.082,-0.087,-0.089,-0.063,29.491,32.625,6.037
1746584569.96,-0.006,-0.018,-0.015,-0.124,-0.112,-0.111,29.342,32.522,5.914
1746584569.98,0.002,-0.015,-0.022,-0.201,-0.107,-0.123,29.108,32.389,5.801
1746584570.00,-0.024,0.030,-0.094,-0.194,-0.119,-0.166,28.828,32.274,5.784
1746584570.02,-0.040,0.004,-0.096,-0.158,-0.151,-0.226,28.543,32.169,5.691
1746584570.04,0.064,-0.081,-0.100,-0.168,-0.240,-0.322,28.215,32.033,5.501
1746584570.06,0.020,-0.114,-0.098,-0.278,-0.307,-0.427,27.792,31.838,5.229
1746584570.08,0.078,-0.118,-0.131,-0.437,-0.251,-0.525,27.153,31.603,4.907
1746584570.10,0.091,-0.121,-0.181,-0.624,-0.102,-0.473,26.348,31.504,4.724
1746584570.12,0.082,-0.138,-0.208,-0.836,-0.010,-0.458,25.359,31.452,4.703
1746584570.14,0.129,-0.101,-0.233,-1.034,-0.017,-0.427,24.174,31.409,4.855
1746584570.16,0.071,-0.084,-0.216,-1.230,0.021,-0.462,22.801,31.312,5.116
1746584570.18,0.033,-0.027,-0.222,-1.383,0.084,-0.502,21.232,31.248,5.450
1746584570.20,0.082,-0.023,-0.266,-1.475,0.099,-0.544,19.535,31.209,5.793
1746584570.22,0.060,-0.017,-0.240,-1.525,-0.101,-0.588,17.741,31.084,6.153
1746584570.24,0.001,0.008,-0.179,-1.573,-0.086,-0.696,15.849,30.880,6.447
1746584570.26,0.019,0.017,-0.137,-1.590,0.035,-0.714,13.876,30.803,6.679
1746584570.28,-0.012,0.042,-0.100,-1.608,0.088,-0.717,11.878,30.809,6.929
1746584570.30,0.035,0.049,-0.127,-1.604,0.026,-0.685,9.902,30.837,7.180
1746584570.32,-0.009,-0.013,-0.042,-1.648,0.084,-0.728,7.894,30.840,7.443
1746584570.34,0.030,-0.100,0.009,-1.724,0.150,-0.719,5.827,30.948,7.718
1746584570.36,-0.019,-0.089,0.016,-1.751,0.204,-0.605,3.727,31.103,8.101
1746584570.38,-0.133,0.025,-0.027,-1.677,0.332,-0.661,1.686,31.383,8.519
1746584570.40,-0.130,-0.074,0.016,-1.631,0.521,-0.774,-0.340,31.861,8.804
1746584570.42,0.053,-0.159,-0.003,-1.721,0.544,-0.651,-2.400,32.530,9.114
1746584570.44,0.137,-0.075,0.074,-1.703,0.465,-0.540,-4.418,33.118,9.618
1746584570.46,0.007,-0.014,0.155,-1.586,0.389,-0.494,-6.306,33.644,10.173
1746584570.48,-0.114,-0.066,-0.007,-1.464,0.319,-0.626,-8.101,34.110,10.611
1746584570.50,-0.029,-0.067,0.039,-1.420,0.314,-0.633,-9.870,34.513,10.934
1746584570.52,0.067,-0.054,0.051,-1.381,0.173,-0.562,-11.572,34.882,11.292
1746584570.54,0.046,-0.081,0.065,-1.281,-0.055,-0.593,-13.178,34.996,11.634
1746584570.56,-0.047,-0.138,0.047,-1.173,-0.007,-0.650,-14.744,35.015,11.865
1746584570.58,-0.102,-0.112,0.029,-1.083,0.079,-0.677,-16.227,35.085,11.985
1746584570.60,-0.052,-0.082,0.018,-1.112,0.075,-0.679,-17.698,35.213,12.074
1746584570.62,-0.002,-0.064,-0.012,-1.074,-0.037,-0.618,-19.158,35.273,12.192
1746584570.64,0.032,-0.070,0.021,-1.092,0.043,-0.534,-20.530,35.306,12.375
1746584570.66,0.006,-0.085,0.091,-1.083,0.146,-0.508,-21.898,35.530,12.638
1746584570.68,-0.042,-0.102,0.092,-1.049,0.144,-0.528,-23.212,35.786,12.879
1746584570.70,0.018,-0.100,-0.041,-1.011,0.149,-0.516,-24.509,36.042,13.092
1746584570.72,0.045,-0.048,-0.089,-1.045,0.116,-0.499,-25.810,36.309,13.344
1746584570.74,0.014,-0.016,0.019,-1.076,0.100,-0.490,-27.126,36.560,13.650
1746584570.76,-0.064,-0.000,0.011,-0.991,0.149,-0.579,-28.431,36.816,13.895
1746584570.78,-0.057,-0.014,-0.048,-0.896,0.174,-0.629,-29.714,37.061,13.998
1746584570.80,-0.039,-0.036,0.008,-0.948,0.115,-0.618,-30.982,37.252,14.064
1746584570.82,0.010,-0.069,0.042,-0.996,0.249,-0.530,-32.263,37.544,14.243
1746584570.84,0.034,-0.110,0.051,-1.073,0.411,-0.431,-33.544,38.099,14.601
1746584570.86,0.068,-0.143,-0.030,-0.986,0.549,-0.367,-34.749,38.933,15.068
1746584570.88,0.020,-0.118,-0.065,-0.944,0.356,-0.439,-35.876,39.720,15.494
1746584570.90,-0.076,-0.067,-0.096,-0.933,-0.016,-0.624,-37.088,40.074,15.777
1746584570.92,-0.109,-0.031,-0.091,-0.801,0.036,-0.773,-38.378,40.065,15.815
1746584570.94,-0.027,-0.043,-0.012,-0.858,0.388,-0.723,-39.632,40.224,15.710
1746584570.96,0.057,-0.071,0.092,-1.164,0.591,-0.578,-40.997,40.982,15.960
1746584570.98,0.062,-0.067,0.001,-1.109,0.487,-0.462,-42.388,42.013,16.569
1746584571.00,0.041,-0.025,-0.046,-0.922,0.380,-0.497,-43.586,42.844,17.072
1746584571.02,0.046,-0.025,0.005,-0.973,0.356,-0.598,-44.798,43.533,17.470
1746584571.04,0.040,-0.061,-0.057,-0.984,0.348,-0.752,-46.134,44.169,17.782
1746584571.06,0.031,-0.074,-0.032,-1.032,0.184,-0.841,-47.607,44.646,18.003
1746584571.08,-0.004,-0.036,-0.069,-0.976,-0.074,-0.852,-49.111,44.851,18.190
1746584571.10,-0.009,-0.012,-0.046,-0.918,-0.181,-0.812,-50.547,44.776,18.321
1746584571.12,-0.002,-0.023,-0.032,-0.833,-0.072,-0.797,-51.900,44.694,18.410
1746584571.14,-0.013,-0.043,0.003,-0.856,-0.099,-0.796,-53.221,44.633,18.440
1746584571.16,-0.008,-0.067,0.111,-0.982,-0.045,-0.673,-54.560,44.706,18.656
1746584571.18,0.037,-0.060,0.032,-0.958,0.212,-0.425,-55.808,45.297,19.269
1746584571.20,0.033,-0.035,-0.057,-0.792,0.340,-0.186,-56.746,46.363,20.132
1746584571.22,0.006,-0.037,-0.053,-0.764,0.128,-0.076,-57.439,47.477,21.120
1746584571.24,-0.011,-0.076,0.007,-0.880,-0.178,-0.072,-58.123,48.481,22.336
1746584571.26,-0.003,-0.092,-0.037,-0.934,-0.410,-0.163,-58.906,49.279,23.681
1746584571.28,-0.007,-0.064,-0.046,-0.978,-0.568,-0.266,-59.798,49.837,24.988
1746584571.30,0.001,-0.028,0.034,-1.160,-0.560,-0.279,-60.822,50.437,26.444
1746584571.32,0.018,0.031,0.029,-1.272,-0.427,-0.213,-61.931,51.563,28.358
1746584571.34,-0.032,0.070,-0.018,-1.133,-0.639,-0.220,-62.970,52.814,30.432
1746584571.35,-0.088,0.037,-0.012,-0.929,-0.700,-0.399,-63.948,53.481,32.073
1746584571.37,-0.109,-0.031,-0.036,-0.774,-0.377,-0.597,-64.990,53.780,33.088
1746584571.39,-0.093,-0.052,-0.075,-0.739,-0.237,-0.617,-66.061,54.016,33.710
1746584571.41,-0.058,-0.050,0.040,-1.011,-0.267,-0.440,-67.132,54.751,34.812
1746584571.43,-0.044,-0.037,-0.038,-1.114,-0.476,-0.287,-68.169,56.255,36.899
1746584571.45,-0.004,-0.047,0.005,-1.110,-0.637,-0.217,-69.091,57.950,39.401
1746584571.47,0.003,-0.024,0.076,-1.094,-0.734,-0.227,-69.955,59.725,42.141
1746584571.49,-0.027,0.014,0.003,-0.915,-0.504,-0.319,-70.792,61.357,44.662
1746584571.51,-0.008,-0.020,0.035,-0.899,-0.184,-0.281,-71.580,63.136,46.939
1746584571.53,0.015,-0.051,0.058,-0.913,-0.043,-0.189,-72.270,65.545,49.602
1746584571.55,0.026,-0.054,0.025,-0.897,0.089,-0.132,-72.842,68.352,52.510
1746584571.57,0.027,-0.073,0.004,-0.872,0.121,-0.086,-73.305,71.482,55.650
1746584571.59,0.012,-0.084,-0.031,-0.818,-0.070,-0.008,-73.640,74.590,58.838
1746584571.61,-0.044,-0.055,-0.038,-0.741,-0.288,0.045,-73.830,77.355,61.946
1746584571.63,-0.088,-0.032,-0.022,-0.636,-0.345,0.044,-73.939,79.689,64.759
1746584571.65,-0.103,-0.010,-0.015,-0.530,-0.244,0.059,-73.990,81.655,67.178
1746584571.67,-0.093,0.045,-0.023,-0.402,0.040,0.105,-73.969,83.405,69.134
1746584571.69,-0.039,0.077,0.037,-0.274,0.235,0.160,-73.856,84.969,70.572
1746584571.71,-0.006,0.042,0.124,-0.224,0.317,0.207,-73.672,86.270,71.602
1746584571.73,-0.076,-0.002,0.058,-0.294,0.298,0.177,-73.459,87.674,72.675
1746584571.75,-0.108,-0.016,-0.046,-0.331,0.003,0.083,-73.320,89.081,73.949
1746584571.77,-0.084,-0.005,-0.064,-0.298,-0.220,0.073,-73.243,90.144,75.215
1746584571.79,-0.083,0.045,-0.044,-0.136,-0.265,0.112,-73.132,90.706,76.103
1746584571.81,-0.079,0.106,-0.027,0.034,-0.155,0.047,-73.031,90.627,76.278
1746584571.83,-0.047,0.072,0.058,0.103,0.008,-0.035,-73.032,90.254,75.979
1746584571.85,-0.035,-0.011,0.120,0.071,0.056,0.001,-73.061,89.956,75.602
1746584571.87,-0.057,-0.015,0.080,-0.048,-0.101,0.028,-73.033,89.879,75.544
1746584571.89,-0.050,0.010,0.033,-0.182,-0.183,0.005,-73.026,90.129,75.994
1746584571.91,-0.026,0.044,-0.005,-0.220,-0.199,-0.003,-73.035,90.713,76.827
1746584571.93,-0.055,0.040,-0.037,-0.180,-0.216,0.004,-73.032,91.261,77.649
1746584571.95,-0.076,0.015,-0.018,-0.166,-0.115,0.010,-73.029,91.739,78.351
1746584571.97,-0.067,-0.011,-0.020,-0.082,-0.118,0.034,-73.005,92.123,78.877
1746584571.99,-0.027,0.004,-0.006,0.011,-0.150,0.076,-72.951,92.062,78.976
1746584572.01,-0.008,0.042,-0.009,-0.026,-0.088,0.108,-72.855,91.882,78.940
1746584572.03,-0.026,0.026,-0.011,-0.055,-0.058,0.080,-72.793,91.918,79.065
1746584572.05,-0.035,-0.031,0.050,-0.018,-0.110,0.064,-72.762,91.925,79.162
1746584572.07,-0.025,-0.031,0.110,-0.012,-0.249,0.077,-72.697,91.720,79.177
1746584572.09,-0.014,0.027,0.084,-0.109,-0.102,0.078,-72.607,91.696,79.377
1746584572.11,-0.064,0.026,-0.035,-0.099,-0.225,0.019,-72.550,91.971,79.820
1746584572.13,-0.072,-0.015,0.025,0.017,-0.419,-0.012,-72.559,91.717,79.972
1746584572.15,-0.026,-0.013,0.150,0.022,-0.234,0.053,-72.544,91.288,79.915
1746584572.17,-0.044,0.030,0.129,0.000,-0.136,0.077,-72.461,91.087,79.895
1746584572.19,-0.101,0.013,0.085,-0.002,-0.306,0.049,-72.399,90.858,79.908
1746584572.21,-0.106,0.016,0.090,0.037,-0.402,0.068,-72.346,90.366,79.843
1746584572.23,-0.099,0.073,0.067,0.106,-0.273,0.095,-72.250,89.732,79.590
1746584572.25,-0.117,0.104,0.037,0.246,-0.178,0.045,-72.163,88.874,78.947
1746584572.27,-0.130,0.063,0.047,0.418,-0.194,-0.013,-72.136,87.487,77.710
1746584572.29,-0.118,0.031,0.061,0.520,-0.134,-0.034,-72.131,85.615,75.948
1746584572.31,-0.088,0.022,0.052,0.592,-0.014,-0.052,-72.118,83.558,73.877
1746584572.33,-0.061,-0.005,0.055,0.677,0.097,-0.072,-72.096,81.351,71.505
1746584572.35,-0.039,-0.048,0.072,0.744,0.193,-0.070,-72.037,78.993,68.853
1746584572.37,-0.029,-0.056,0.056,0.773,0.244,-0.070,-71.932,76.600,66.063
1746584572.39,-0.030,-0.040,0.011,0.852,0.137,-0.100,-71.790,74.032,63.117
1746584572.41,-0.038,-0.035,-0.011,0.943,0.140,-0.168,-71.623,71.039,59.837
1746584572.43,-0.049,-0.073,0.097,0.924,0.541,-0.253,-71.477,68.116,56.376
1746584572.45,-0.047,-0.100,0.142,0.840,0.854,-0.229,-71.346,65.861,53.103
1746584572.47,-0.021,-0.056,-0.016,0.938,0.444,-0.146,-71.122,63.782,50.061
1746584572.49,-0.039,-0.007,-0.033,1.163,-0.006,-0.211,-70.714,60.608,46.496
1746584572.51,-0.045,0.040,-0.052,1.402,-0.023,-0.340,-70.249,56.667,42.326
1746584572.53,0.011,0.072,-0.188,1.345,0.111,-0.455,-69.631,52.210,37.619
1746584572.55,0.013,-0.010,0.068,0.953,0.720,-0.428,-69.262,49.222,33.897
1746584572.57,0.091,-0.086,-0.020,1.254,0.814,-0.085,-68.664,47.214,30.745
1746584572.59,0.109,-0.054,-0.087,1.511,0.169,0.274,-67.488,45.170,27.908
1746584572.61,0.060,-0.023,0.011,1.370,0.319,0.384,-65.988,43.263,25.667
1746584572.63,-0.017,-0.052,-0.055,1.153,0.446,0.247,-64.686,42.226,23.983
1746584572.65,-0.050,-0.070,0.111,1.213,0.948,0.160,-63.564,41.526,22.329
1746584572.67,0.016,-0.062,0.046,1.108,0.538,0.348,-62.363,41.107,20.820
1746584572.69,0.023,0.026,-0.021,0.967,0.120,0.460,-61.166,40.647,19.962
1746584572.71,-0.014,0.077,-0.045,0.994,-0.029,0.327,-60.018,40.082,19.240
1746584572.73,-0.019,0.078,0.040,1.122,0.201,0.183,-58.914,39.176,18.125
1746584572.75,-0.026,-0.013,-0.058,1.031,0.091,0.362,-57.755,38.490,17.049
1746584572.77,0.021,-0.081,0.068,0.918,0.229,0.668,-56.540,38.286,16.667
1746584572.79,-0.016,-0.068,-0.022,1.200,0.166,0.731,-55.096,38.451,16.504
1746584572.81,0.012,-0.063,-0.041,1.272,0.035,0.639,-53.478,38.114,16.034
1746584572.83,0.114,-0.103,0.034,1.040,0.443,0.581,-52.003,38.037,15.572
1746584572.85,0.157,-0.118,-0.078,0.905,0.104,0.610,-50.715,38.237,15.345
1746584572.87,0.093,-0.061,-0.052,0.820,-0.414,0.581,-49.519,37.931,15.232
1746584572.89,0.041,-0.008,0.005,0.788,-0.362,0.561,-48.399,37.416,15.167
1746584572.91,-0.073,0.071,-0.035,1.053,-0.478,0.427,-47.250,36.807,14.947
1746584572.93,-0.130,0.042,-0.047,1.202,-0.506,0.384,-45.918,35.747,14.324
1746584572.95,-0.078,-0.033,-0.103,1.088,-0.250,0.463,-44.558,34.924,13.795
1746584572.97,0.011,-0.034,-0.026,0.817,0.092,0.522,-43.335,34.689,13.592
1746584572.99,-0.006,0.016,0.017,0.801,0.139,0.456,-42.261,34.812,13.520
1746584573.01,-0.010,0.022,0.087,0.817,0.023,0.421,-41.238,34.814,13.361
1746584573.03,0.033,0.028,-0.094,0.851,-0.370,0.555,-40.110,34.491,13.219
1746584573.05,0.059,0.014,0.007,0.772,-0.096,0.535,-39.003,34.239,13.238
1746584573.07,-0.008,-0.033,-0.024,0.847,-0.148,0.419,-37.932,34.040,13.155
1746584573.09,-0.028,-0.020,0.023,0.878,-0.183,0.370,-36.867,33.721,12.920
1746584573.11,-0.015,-0.037,-0.017,0.849,-0.369,0.455,-35.781,33.284,12.710
1746584573.13,0.042,-0.068,-0.006,0.788,-0.192,0.551,-34.693,32.926,12.690
1746584573.15,0.017,-0.073,-0.023,0.863,-0.194,0.449,-33.574,32.705,12.678
1746584573.17,-0.087,-0.061,0.040,0.860,-0.102,0.342,-32.518,32.406,12.472
1746584573.19,-0.050,-0.063,0.059,0.860,-0.086,0.473,-31.434,32.227,12.319
1746584573.21,0.013,0.011,0.104,0.822,-0.278,0.480,-30.323,32.028,12.257
1746584573.23,0.024,-0.002,-0.034,0.793,-0.292,0.485,-29.254,31.643,12.248
1746584573.25,-0.054,-0.005,-0.055,0.774,0.046,0.475,-28.203,31.520,12.248
1746584573.27,-0.088,-0.023,-0.035,0.744,-0.072,0.483,-27.174,31.522,12.249
1746584573.29,-0.018,-0.045,0.004,0.699,-0.010,0.549,-26.166,31.501,12.345
1746584573.31,0.008,-0.076,0.034,0.855,-0.124,0.424,-25.113,31.453,12.365
1746584573.33,-0.003,-0.141,0.012,0.865,-0.182,0.324,-24.053,31.179,12.188
1746584573.35,-0.015,-0.051,-0.025,0.781,-0.109,0.398,-23.037,30.947,12.031
1746584573.37,-0.079,0.039,0.005,0.815,-0.121,0.463,-22.012,30.821,11.993
1746584573.39,-0.005,0.034,0.065,0.843,-0.072,0.536,-20.892,30.705,11.995
1746584573.41,-0.051,-0.042,0.066,0.835,-0.126,0.497,-19.771,30.597,12.023
1746584573.43,-0.086,-0.081,-0.032,0.879,0.107,0.455,-18.660,30.550,11.997
1746584573.45,0.009,0.017,-0.019,0.846,0.096,0.529,-17.520,30.682,11.963
1746584573.47,0.027,0.039,0.043,0.818,-0.059,0.639,-16.366,30.739,12.067
1746584573.49,-0.048,-0.038,0.093,0.951,-0.051,0.576,-15.148,30.692,12.173
1746584573.51,-0.062,-0.150,0.066,1.036,-0.138,0.510,-13.839,30.564,12.115
1746584573.53,0.035,-0.114,-0.021,1.039,-0.188,0.472,-12.531,30.340,11.988
1746584573.55,0.023,0.051,-0.094,1.007,-0.190,0.502,-11.255,30.097,11.890
1746584573.57,-0.040,0.077,0.016,0.982,-0.023,0.646,-9.952,29.937,11.868
1746584573.59,-0.028,0.088,0.060,1.004,0.044,0.758,-8.571,29.978,12.009
1746584573.61,-0.032,-0.017,0.087,1.054,0.063,0.731,-7.109,30.081,12.183
1746584573.63,-0.018,-0.071,0.050,1.023,0.018,0.666,-5.684,30.127,12.260
1746584573.65,-0.016,0.056,0.002,1.031,0.031,0.671,-4.286,30.162,12.334
1746584573.67,0.040,0.073,-0.133,1.091,-0.000,0.711,-2.852,30.196,12.421
1746584573.69,0.007,0.043,-0.069,1.174,-0.083,0.684,-1.323,30.173,12.447
1746584573.71,-0.025,0.051,0.044,1.187,-0.038,0.727,0.244,30.093,12.464
1746584573.73,-0.125,0.058,-0.076,1.200,0.053,0.605,1.821,30.131,12.474
1746584573.75,0.003,0.031,-0.092,1.160,0.111,0.587,3.322,30.274,12.379
1746584573.77,-0.012,0.090,-0.129,1.184,-0.033,0.475,4.790,30.321,12.228
1746584573.79,0.056,0.044,-0.093,1.218,-0.131,0.493,6.237,30.230,11.993
1746584573.81,0.023,-0.033,-0.040,1.162,-0.239,0.425,7.668,30.017,11.752
1746584573.83,-0.011,-0.035,-0.034,1.124,-0.046,0.446,9.044,29.872,11.523
1746584573.85,-0.013,0.027,-0.050,1.108,0.107,0.489,10.422,29.960,11.356
1746584573.87,0.013,0.094,-0.040,1.110,0.169,0.507,11.807,30.151,11.207
1746584573.89,0.028,0.045,-0.005,1.151,0.159,0.511,13.223,30.371,11.066
1746584573.91,0.094,-0.094,-0.042,1.087,0.093,0.496,14.598,30.548,10.889
1746584573.93,0.081,-0.075,-0.027,1.034,0.179,0.585,15.943,30.705,10.804
1746584573.95,-0.020,0.005,-0.103,0.994,0.271,0.543,17.244,30.959,10.762
1746584573.97,-0.008,0.049,-0.079,0.987,0.284,0.489,18.511,31.310,10.687
1746584573.99,0.057,-0.022,-0.129,1.023,0.188,0.358,19.751,31.650,10.495
1746584574.01,0.113,-0.127,-0.089,1.006,0.079,0.303,20.935,31.911,10.085
1746584574.03,0.068,-0.112,-0.075,0.925,0.059,0.304,22.054,32.102,9.775
1746584574.05,-0.015,-0.036,-0.060,0.793,0.020,0.243,23.049,32.252,9.498
1746584574.07,0.044,-0.045,-0.040,0.760,0.029,0.206,23.936,32.411,9.209
1746584574.09,0.089,-0.104,-0.014,0.664,-0.012,0.252,24.761,32.513,8.966
1746584574.11,0.082,-0.097,-0.036,0.555,0.012,0.291,25.515,32.559,8.669
1746584574.13,0.092,-0.079,-0.069,0.448,0.079,0.363,26.201,32.618,8.494
1746584574.15,0.056,-0.027,-0.057,0.347,0.129,0.420,26.824,32.667,8.552
1746584574.17,0.025,-0.027,-0.012,0.278,0.150,0.420,27.387,32.732,8.622
1746584574.19,0.037,-0.018,-0.036,0.259,0.176,0.417,27.906,32.796,8.710
1746584574.20,-0.016,-0.004,-0.042,0.172,0.132,0.373,28.366,32.838,8.798
1746584574.22,-0.008,0.003,-0.066,0.119,0.137,0.338,28.710,32.849,8.901
1746584574.24,0.031,0.038,-0.126,0.167,0.070,0.298,29.041,32.852,8.985
1746584574.26,-0.015,0.021,-0.081,0.232,0.020,0.228,29.396,32.819,8.956
1746584574.28,-0.047,0.019,-0.064,0.259,-0.015,0.132,29.749,32.821,8.806
1746584574.30,-0.010,0.025,-0.054,0.272,-0.048,0.079,30.061,32.821,8.556
1746584574.32,0.017,0.004,-0.088,0.306,-0.090,0.067,30.390,32.812,8.267
1746584574.34,0.000,-0.029,-0.062,0.312,-0.100,0.036,30.716,32.782,7.943
1746584574.36,0.015,-0.031,-0.042,0.237,-0.152,-0.005,30.992,32.736,7.597
1746584574.38,0.039,0.007,-0.034,0.204,-0.104,0.032,31.209,32.662,7.303
1746584574.40,0.006,0.003,-0.048,0.204,-0.078,0.046,31.431,32.611,7.050
1746584574.42,-0.004,-0.010,-0.023,0.174,-0.063,0.026,31.638,32.577,6.795
1746584574.44,0.012,-0.019,-0.032,0.134,-0.046,0.024,31.803,32.563,6.561
1746584574.46,0.008,-0.013,-0.039,0.115,-0.053,0.013,31.929,32.555,6.341
1746584574.48,0.023,-0.011,-0.057,0.101,-0.051,0.033,32.041,32.523,6.142
1746584574.50,-0.034,-0.012,-0.037,0.073,-0.065,0.012,32.140,32.467,5.965
1746584574.52,-0.024,-0.021,-0.031,0.034,-0.073,-0.022,32.187,32.415,5.787
1746584574.54,0.018,-0.017,-0.044,-0.003,-0.090,-0.034,32.184,32.345,5.609
1746584574.56,-0.039,-0.029,-0.024,-0.059,-0.086,-0.070,32.115,32.254,5.444
1746584574.58,-0.018,-0.029,-0.102,-0.130,-0.134,-0.154,31.975,32.145,5.358
1746584574.60,0.027,-0.085,-0.115,-0.193,-0.159,-0.181,31.719,32.030,5.141
1746584574.62,0.004,-0.129,-0.107,-0.313,-0.142,-0.335,31.303,31.884,5.000
1746584574.64,-0.055,-0.074,-0.181,-0.378,0.076,-0.344,30.768,31.917,4.862
1746584574.66,-0.040,-0.122,-0.264,-0.457,0.139,-0.476,30.128,32.151,4.697
1746584574.68,0.148,-0.193,-0.245,-0.670,0.020,-0.593,29.258,32.337,4.480
1746584574.70,0.139,-0.215,-0.212,-0.905,-0.104,-0.653,28.111,32.357,4.347
1746584574.72,0.105,-0.114,-0.194,-1.115,-0.090,-0.660,26.741,32.246,4.318
1746584574.74,0.120,-0.099,-0.159,-1.325,0.102,-0.623,25.161,32.191,4.448
1746584574.76,0.140,-0.073,-0.120,-1.495,0.222,-0.525,23.447,32.242,4.794
1746584574.78,0.112,-0.098,-0.044,-1.625,0.257,-0.498,21.623,32.337,5.282
1746584574.80,0.158,-0.072,-0.065,-1.733,0.266,-0.413,19.722,32.431,5.905
1746584574.82,0.061,0.018,-0.121,-1.729,0.263,-0.383,17.808,32.495,6.637
1746584574.84,0.001,0.037,-0.122,-1.687,0.280,-0.431,15.920,32.603,7.334
1746584574.86,-0.050,-0.031,-0.044,-1.654,0.311,-0.583,14.001,32.798,7.896
1746584574.88,0.037,-0.071,-0.046,-1.634,0.231,-0.671,12.038,33.038,8.313
1746584574.90,-0.017,-0.049,-0.055,-1.579,0.175,-0.718,10.059,33.172,8.663
1746584574.92,-0.028,-0.004,-0.039,-1.563,0.191,-0.731,8.106,33.352,8.954
1746584574.94,-0.030,-0.005,0.015,-1.487,0.398,-0.758,6.189,33.642,9.201
1746584574.96,0.048,-0.074,0.031,-1.541,0.340,-0.772,4.268,34.072,9.449
1746584574.98,0.069,-0.114,-0.023,-1.573,0.207,-0.835,2.275,34.353,9.681
1746584575.00,0.026,-0.049,-0.028,-1.510,0.095,-0.764,0.302,34.543,9.927
1746584575.02,-0.117,0.032,0.025,-1.496,0.126,-0.739,-1.604,34.623,10.196
1746584575.04,-0.056,0.042,0.062,-1.381,0.429,-0.679,-3.410,34.977,10.462
1746584575.06,-0.066,0.014,0.029,-1.295,0.346,-0.686,-5.100,35.460,10.713
1746584575.08,-0.094,-0.005,0.007,-1.250,0.317,-0.743,-6.755,35.838,10.898
1746584575.10,-0.053,-0.024,-0.003,-1.196,0.480,-0.768,-8.389,36.291,11.016
1746584575.12,0.035,-0.042,-0.024,-1.172,0.375,-0.779,-9.991,36.836,11.109
1746584575.14,0.013,-0.017,-0.005,-1.125,0.049,-0.854,-11.614,37.096,11.175
1746584575.16,-0.070,-0.014,0.001,-1.087,-0.025,-0.907,-13.223,37.065,11.114
1746584575.18,-0.094,-0.071,0.002,-1.042,0.103,-0.884,-14.812,37.076,11.028
1746584575.20,-0.016,-0.158,-0.012,-1.075,0.224,-0.803,-16.351,37.259,10.978
1746584575.22,0.057,-0.169,0.046,-1.137,0.313,-0.696,-17.881,37.603,11.069
1746584575.24,0.011,-0.127,0.054,-1.071,0.316,-0.684,-19.356,38.020,11.247
1746584575.26,-0.034,-0.086,-0.059,-0.994,0.197,-0.748,-20.787,38.353,11.326
1746584575.28,-0.013,-0.060,-0.005,-1.087,0.276,-0.699,-22.228,38.627,11.407
1746584575.30,0.034,-0.111,0.034,-1.102,0.258,-0.538,-23.654,39.049,11.672
1746584575.32,0.033,-0.098,0.040,-1.007,0.250,-0.522,-24.961,39.474,12.017
1746584575.34,-0.051,-0.017,-0.018,-0.894,0.265,-0.756,-26.254,39.849,12.168
1746584575.36,-0.090,0.016,-0.006,-0.931,0.232,-0.830,-27.654,40.087,12.110
1746584575.38,0.017,-0.040,0.064,-1.026,0.431,-0.621,-29.036,40.491,12.189
1746584575.40,0.098,-0.095,0.056,-1.031,0.533,-0.386,-30.327,41.269,12.608
1746584575.42,0.054,-0.066,-0.075,-0.986,0.569,-0.443,-31.437,42.132,13.080
1746584575.44,-0.029,-0.069,-0.007,-1.138,0.484,-0.611,-32.772,42.999,13.539
1746584575.46,-0.036,-0.057,-0.038,-1.085,0.411,-0.647,-34.185,43.715,13.941
1746584575.48,-0.016,-0.039,0.110,-1.193,0.542,-0.581,-35.620,44.509,14.415
1746584575.50,0.065,-0.048,0.001,-1.058,0.854,-0.330,-36.916,45.717,15.106
1746584575.52,0.044,-0.019,-0.021,-1.042,0.941,-0.284,-37.956,47.244,15.897
1746584575.54,0.015,-0.047,-0.017,-1.156,0.810,-0.420,-39.094,48.812,16.760
1746584575.56,0.047,-0.101,-0.080,-1.177,0.550,-0.547,-40.370,50.103,17.594
1746584575.58,-0.003,-0.086,0.144,-1.565,0.404,-0.639,-41.887,51.318,18.612
1746584575.60,0.027,-0.066,0.054,-1.656,0.398,-0.523,-43.590,52.749,20.073
1746584575.62,0.077,-0.031,-0.080,-1.257,0.447,-0.339,-44.976,54.290,21.563
1746584575.64,0.027,-0.026,-0.125,-0.714,0.141,-0.401,-45.944,55.358,22.551
1746584575.66,-0.028,-0.073,-0.155,-0.381,-0.080,-0.738,-46.806,55.475,22.728
1746584575.68,-0.074,-0.118,-0.030,-0.867,0.167,-0.995,-47.990,55.448,22.644
1746584575.70,-0.111,-0.133,0.033,-1.544,0.406,-1.026,-49.769,56.400,23.444
1746584575.72,-0.083,-0.094,-0.244,-1.132,0.213,-0.867,-51.560,57.749,24.659
1746584575.74,-0.106,0.014,-0.205,-0.505,-0.447,-0.847,-52.848,57.937,25.081
1746584575.76,-0.137,0.108,-0.068,-0.262,-0.560,-1.039,-53.969,56.982,24.677
1746584575.78,-0.128,0.102,-0.007,-0.437,-0.274,-1.101,-55.208,55.954,24.021
1746584575.80,-0.136,0.072,-0.002,-0.763,-0.232,-0.966,-56.586,55.587,23.856
1746584575.82,-0.113,-0.003,0.011,-0.842,-0.483,-0.758,-57.932,55.484,24.238
1746584575.84,-0.030,-0.076,0.138,-0.965,-0.323,-0.452,-59.081,55.701,25.088
1746584575.86,0.022,-0.119,0.237,-1.193,-0.164,-0.180,-60.055,56.890,26.733
1746584575.88,0.048,-0.044,0.124,-1.084,-0.218,-0.134,-60.905,58.518,28.882
1746584575.90,0.034,-0.006,0.093,-0.929,-0.088,-0.373,-61.718,59.832,30.603
1746584575.92,-0.001,-0.051,0.013,-0.893,0.135,-0.574,-62.720,61.051,31.951
1746584575.94,-0.011,-0.095,-0.073,-0.958,0.225,-0.508,-63.774,62.520,33.316
1746584575.96,-0.034,-0.081,-0.086,-0.956,-0.135,-0.385,-64.730,64.207,35.115
1746584575.98,-0.071,-0.004,-0.153,-0.748,-0.433,-0.343,-65.509,65.349,36.752
1746584576.00,-0.104,0.023,-0.034,-0.797,-0.640,-0.332,-66.218,66.155,38.327
1746584576.02,-0.095,0.019,-0.034,-0.936,-0.426,-0.343,-66.957,67.203,40.177
1746584576.04,0.008,-0.038,0.027,-1.133,-0.188,-0.249,-67.722,69.268,42.750
1746584576.06,0.078,-0.071,0.013,-0.986,-0.343,-0.150,-68.348,71.744,45.700
1746584576.08,0.086,-0.044,-0.034,-0.530,-0.777,-0.185,-68.777,73.077,47.799
1746584576.10,0.073,-0.038,0.091,-0.439,-0.820,-0.149,-69.127,73.190,49.008
1746584576.12,0.005,-0.051,0.088,-0.619,-0.062,-0.009,-69.378,74.103,50.527
1746584576.14,-0.035,-0.083,0.086,-0.836,-0.043,0.103,-69.538,76.341,52.877
1746584576.16,-0.019,-0.067,0.114,-0.930,-0.504,0.149,-69.607,78.803,55.841
1746584576.18,-0.061,0.017,0.007,-0.732,-0.611,0.043,-69.654,80.799,58.685
1746584576.20,-0.142,0.065,-0.131,-0.271,-0.606,-0.171,-69.819,81.607,60.303
1746584576.22,-0.153,0.089,-0.151,-0.094,-0.364,-0.138,-70.039,81.385,60.672
1746584576.24,-0.089,0.092,-0.034,-0.218,-0.279,-0.058,-70.170,81.494,61.142
1746584576.26,-0.006,0.023,0.073,-0.220,-0.365,-0.066,-70.278,81.822,61.893
1746584576.28,0.029,-0.032,0.085,-0.070,-0.159,-0.027,-70.363,81.953,62.378
1746584576.30,-0.013,-0.006,-0.020,0.052,0.083,0.068,-70.339,81.948,62.389
1746584576.32,-0.076,0.078,-0.087,0.094,0.005,0.084,-70.235,81.804,62.169
1746584576.34,-0.029,0.094,0.018,0.101,-0.116,0.052,-70.136,81.450,61.861
1746584576.36,0.011,0.035,0.161,0.079,-0.156,0.012,-70.092,80.976,61.544
1746584576.38,-0.022,0.002,0.169,-0.056,0.062,0.051,-70.050,80.867,61.498
1746584576.40,-0.118,-0.005,0.053,-0.163,0.136,-0.018,-70.045,81.408,61.912
1746584576.42,-0.110,-0.008,0.010,-0.119,-0.116,-0.107,-70.151,81.836,62.357
1746584576.44,-0.009,-0.036,0.062,-0.095,-0.097,-0.084,-70.285,81.975,62.664
1746584576.46,0.038,-0.055,0.050,-0.105,0.017,-0.015,-70.358,82.275,63.008
1746584576.48,0.010,-0.012,-0.027,-0.070,-0.144,0.033,-70.368,82.532,63.335
1746584576.50,-0.039,0.064,-0.049,-0.003,-0.373,0.050,-70.337,82.363,63.480
1746584576.52,-0.079,0.107,0.013,0.087,-0.318,0.108,-70.249,81.841,63.385
1746584576.54,-0.101,0.090,0.084,0.160,-0.025,0.141,-70.075,81.337,63.060
1746584576.56,-0.148,0.040,0.138,0.169,0.240,0.098,-69.907,81.011,62.572
1746584576.58,-0.183,0.002,0.153,0.171,0.302,0.050,-69.797,80.863,62.051
1746584576.60,-0.174,0.026,0.161,0.194,0.138,0.032,-69.725,80.579,61.474
1746584576.62,-0.166,0.077,0.119,0.202,-0.031,0.008,-69.661,80.030,60.832
1746584576.64,-0.150,0.087,0.083,0.172,-0.065,-0.050,-69.645,79.379,60.212
1746584576.66,-0.139,0.036,0.089,0.184,0.008,-0.106,-69.697,78.781,59.613
1746584576.68,-0.138,0.006,0.079,0.257,0.100,-0.142,-69.817,78.154,58.879
1746584576.70,-0.124,0.015,0.046,0.351,0.214,-0.151,-69.935,77.368,57.843
1746584576.72,-0.078,0.018,-0.009,0.478,0.312,-0.147,-69.991,76.298,56.388
1746584576.74,-0.018,0.001,-0.022,0.611,0.507,-0.145,-69.999,74.974,54.495
1746584576.76,0.010,-0.053,0.026,0.701,0.733,-0.111,-69.941,73.589,52.256
1746584576.78,0.024,-0.098,0.036,0.786,0.789,-0.018,-69.769,72.202,49.836
1746584576.80,0.021,-0.060,-0.030,0.922,0.664,0.097,-69.413,70.603,47.237
