Time,AccX,AccY,AccZ,GyroX,GyroY,GyroZ,Pitch,Roll,Yaw
1747065328.35,0.016,0.001,0.143,0.680,-0.227,-0.451,18.714,-0.184,23.355
1747065328.36,0.004,-0.001,0.214,0.229,-0.416,-0.061,19.237,-0.445,23.071
1747065328.38,-0.056,-0.035,0.191,-0.098,-0.399,0.032,19.292,-0.936,23.075
1747065328.40,-0.121,-0.054,0.028,-0.019,-0.241,0.009,19.180,-1.325,23.103
1747065328.42,-0.119,-0.014,0.014,0.325,0.053,0.046,19.357,-1.446,23.113
1747065328.44,-0.060,-0.050,0.135,0.470,0.523,0.492,19.851,-1.141,23.439
1747065328.46,-0.147,-0.056,0.065,0.207,0.517,0.775,20.240,-0.906,24.233
1747065328.48,-0.212,-0.037,0.094,-0.156,1.267,0.933,20.261,-0.273,25.269
1747065328.50,-0.170,-0.038,0.068,-0.594,1.545,1.049,19.850,1.009,26.498
1747065328.52,-0.123,-0.082,0.173,-1.063,1.106,1.114,18.938,2.111,27.824
1747065328.54,0.010,-0.123,0.267,-1.548,2.109,1.031,17.502,3.093,29.224
1747065328.56,0.146,-0.124,0.184,-1.462,3.088,1.039,15.800,6.206,30.526
1747065328.58,-0.148,-0.022,-0.255,-1.348,0.698,1.383,14.440,7.619,32.121
1747065328.60,0.014,0.085,0.163,-1.637,2.264,1.849,13.045,8.747,34.099
1747065328.62,0.030,0.097,-0.045,-2.182,3.478,2.055,11.316,11.400,36.786
1747065328.64,-0.169,-0.016,0.027,-2.737,4.462,1.025,9.043,15.711,39.206
1747065328.66,-0.529,0.017,-0.209,-1.866,-2.666,0.437,6.468,16.520,40.759
1747065328.68,-0.364,0.244,0.903,-2.734,-0.196,0.044,4.219,15.003,41.491
1747065328.70,0.027,0.148,0.403,-3.467,-0.674,0.826,0.867,14.297,42.788
1747065328.72,-0.085,0.332,0.279,-3.193,-0.880,1.272,-2.606,13.461,44.810
1747065328.74,-0.209,0.431,0.445,-3.683,0.056,1.252,-5.970,13.071,47.039
1747065328.76,-0.404,0.389,0.548,-4.422,1.040,0.668,-10.261,14.042,49.125
1747065328.78,-0.373,0.465,0.306,-4.397,1.244,0.300,-15.082,15.825,50.856
1747065328.80,-0.258,0.485,0.024,-3.678,0.721,0.272,-19.429,17.497,52.389
1747065328.82,-0.283,0.351,-0.060,-3.050,0.636,-0.076,-22.995,18.711,53.646
1747065328.84,-0.420,0.370,-0.037,-2.871,1.302,-1.056,-26.370,20.024,54.002
1747065328.86,-0.041,0.381,-0.119,-2.775,2.370,-1.385,-29.926,22.050,53.539
1747065328.88,0.351,0.387,-0.246,-2.517,2.987,-1.039,-33.248,25.069,53.180
1747065328.90,0.443,0.377,-0.156,-2.593,3.320,-0.681,-36.265,29.031,53.447
1747065328.92,0.456,0.303,-0.168,-2.894,3.384,-0.632,-39.291,33.626,54.433
1747065328.93,0.477,0.392,-0.267,-2.799,2.737,-0.237,-42.173,38.393,56.119
1747065328.95,0.748,0.164,-0.367,-2.609,2.559,0.327,-44.523,43.396,58.660
1747065328.97,0.739,0.148,-0.369,-2.493,2.710,0.750,-46.039,48.925,61.922
1747065328.99,0.526,0.128,-0.361,-2.511,3.015,0.746,-47.170,55.006,65.574
1747065329.01,0.751,-0.170,-0.390,-2.701,2.852,1.145,-47.808,61.829,69.950
1747065329.03,0.648,-0.081,-0.568,-2.041,1.682,1.607,-47.522,67.772,74.323
1747065329.05,0.605,-0.285,-0.416,-1.852,1.312,1.869,-46.388,72.403,78.028
1747065329.07,0.473,-0.342,-0.366,-1.861,0.996,2.041,-44.799,76.430,81.601
1747065329.09,0.334,-0.408,-0.458,-1.390,0.954,2.055,-42.855,79.768,84.630
1747065329.11,-0.314,-0.434,-0.798,0.271,1.526,0.830,-41.263,82.171,85.756
1747065329.13,-0.515,-0.486,-0.838,1.216,1.654,0.252,-40.694,83.176,84.358
1747065329.15,-0.092,-0.415,-0.350,0.836,1.534,0.341,-40.218,83.993,82.623
1747065329.17,-0.099,-0.179,-0.181,0.441,1.115,0.101,-39.914,84.968,81.581
1747065329.19,-0.096,-0.251,-0.218,0.345,0.618,0.004,-39.840,85.552,80.991
1747065329.21,-0.088,-0.161,-0.111,0.262,0.435,-0.117,-39.866,85.832,80.540
1747065329.23,-0.056,-0.172,0.059,0.139,0.243,-0.370,-40.113,86.020,80.197
1747065329.25,-0.073,-0.134,0.170,0.090,-0.194,-0.669,-40.681,85.961,80.007
1747065329.27,-0.231,-0.223,0.138,0.059,-0.837,-1.474,-41.893,85.193,79.749
1747065329.29,-0.382,-0.001,0.147,0.062,-1.723,-1.914,-43.858,83.538,79.372
1747065329.31,-0.193,0.022,0.042,0.337,-2.860,-1.790,-45.975,80.377,78.679
1747065329.33,-0.171,0.388,-0.088,0.682,-3.348,-1.503,-47.704,75.606,77.157
1747065329.35,0.058,0.368,-0.114,-0.135,-2.644,-1.453,-49.150,71.206,75.921
1747065329.37,-0.001,0.284,0.130,-0.945,-1.551,-1.831,-51.097,68.872,75.873
1747065329.39,0.115,0.284,0.213,-0.826,-0.560,-1.509,-53.421,67.868,76.376
1747065329.41,0.451,0.071,0.214,-0.680,0.019,-0.143,-54.548,68.236,77.140
1747065329.43,0.156,0.087,0.061,-0.593,1.736,-0.288,-55.056,69.906,78.088
1747065329.45,0.025,0.011,-0.217,-0.618,1.311,-0.676,-55.754,72.493,78.954
1747065329.47,0.016,-0.034,-0.128,-0.810,0.452,-0.889,-56.893,74.246,79.856
1747065329.49,-0.083,-0.211,-0.028,-0.920,-0.457,-0.717,-58.029,75.378,81.217
1747065329.51,-0.059,-0.169,-0.091,-0.950,-0.709,-1.244,-59.302,75.882,82.698
1747065329.53,-0.036,-0.105,0.046,-1.060,-0.013,-2.500,-61.606,76.500,83.928
1747065329.55,-0.108,-0.236,0.118,-1.051,-0.044,-3.420,-65.292,77.456,84.888
1747065329.57,-0.167,-0.492,-0.313,0.106,-1.675,-3.364,-69.268,75.842,84.161
1747065329.59,-0.149,-0.523,-0.146,0.572,-0.694,-2.766,-72.476,69.338,79.157
1747065329.61,-0.080,-0.531,0.440,-0.658,0.356,-2.192,-75.019,66.125,75.497
1747065329.63,0.007,-0.164,0.139,-1.187,0.228,-2.325,-77.765,66.367,75.550
1747065329.65,0.088,1.316,0.368,-1.817,0.902,-3.439,-81.348,69.169,77.796
1747065329.67,0.066,1.893,-0.062,-0.633,-0.700,-3.240,-85.841,71.158,79.322
1747065329.69,0.211,0.809,-0.663,1.729,-2.410,-0.736,-87.281,37.280,47.490
1747065329.71,0.128,-0.064,0.080,1.608,-0.256,0.125,-85.319,17.093,29.097
1747065329.73,0.010,-0.522,0.164,-0.397,1.828,-0.044,-84.756,17.105,27.905
1747065329.75,0.132,-0.330,0.031,-0.492,1.119,-0.028,-85.392,20.729,29.729
1747065329.77,0.067,0.021,0.034,0.040,-0.225,-0.100,-85.633,21.642,30.129
1747065329.79,0.122,0.201,0.032,-0.028,-0.900,-0.172,-85.620,18.492,27.721
1747065329.81,0.041,0.101,-0.026,-0.193,-0.601,-0.017,-85.819,16.731,26.880
1747065329.83,-0.130,0.001,-0.019,0.054,0.194,-0.048,-85.912,16.733,27.123
1747065329.85,-0.158,-0.087,-0.014,-0.016,0.383,-0.318,-85.895,14.468,24.408
1747065329.87,-0.009,0.021,-0.060,-0.090,-0.003,-0.385,-86.062,8.803,18.523
1747065329.89,0.099,0.016,-0.052,0.019,-0.246,-0.381,-86.149,2.441,12.281
1747065329.91,0.205,-0.017,-0.081,0.071,-0.460,-0.277,-86.088,-3.699,6.534
1747065329.93,0.243,-0.014,-0.074,0.190,-0.671,-0.291,-85.920,-8.493,2.334
1747065329.95,0.261,0.018,-0.069,0.561,-1.022,-0.393,-85.439,-13.358,-1.576
1747065329.97,0.195,0.064,-0.080,0.505,-1.540,-0.224,-84.698,-17.161,-3.935
1747065329.99,0.024,-0.039,-0.130,0.351,-2.019,0.041,-84.228,-18.588,-3.279
1747065330.01,-0.101,-0.073,-0.037,0.565,-1.418,0.167,-83.803,-17.931,-0.563
1747065330.03,0.001,0.009,-0.020,0.910,-0.771,0.162,-83.042,-15.555,3.064
1747065330.05,-0.075,0.074,0.039,1.016,-0.281,0.096,-81.999,-12.596,6.597
1747065330.07,-0.236,0.354,-0.023,0.687,-0.211,-0.623,-80.981,-13.085,6.419
1747065330.09,-0.190,0.018,-0.106,0.386,0.340,-0.819,-80.179,-17.420,1.979
1747065330.11,-0.082,-0.075,-0.184,0.648,0.860,-0.512,-79.414,-19.917,-1.255
1747065330.13,0.108,-0.103,-0.069,1.302,0.858,0.275,-78.292,-18.057,-0.444
1747065330.15,0.118,0.228,0.057,1.255,-0.246,0.144,-76.905,-13.821,3.519
1747065330.17,0.190,0.170,0.284,0.496,-0.995,-0.931,-75.794,-15.749,2.372
1747065330.19,-0.022,0.096,0.357,0.264,-1.275,-1.104,-75.043,-21.202,-1.921
1747065330.21,-0.199,-0.142,0.254,0.204,-1.631,-0.556,-74.419,-25.521,-4.682
1747065330.23,-0.188,-0.355,0.221,-0.016,-1.112,0.474,-74.279,-27.277,-4.788
1747065330.25,-0.355,-0.343,0.230,-0.330,-0.442,0.331,-74.765,-26.254,-2.832
1747065330.27,-0.379,-0.252,0.168,-0.616,-0.201,-0.210,-75.227,-27.611,-3.939
1747065330.29,-0.097,-0.175,0.006,-0.946,-0.807,-0.272,-75.864,-30.822,-6.716
1747065330.31,-0.018,-0.195,-0.097,-1.170,-1.394,-0.115,-76.758,-35.681,-10.356
1747065330.33,-0.114,-0.110,-0.041,-1.104,-1.010,-0.201,-77.719,-41.405,-14.723
1747065330.35,-0.227,-0.119,-0.107,-0.690,-0.057,-0.301,-78.262,-46.384,-19.080
1747065330.37,-0.263,0.008,-0.057,-0.599,1.394,-0.338,-78.427,-49.231,-22.975
1747065330.39,-0.252,0.084,-0.403,-0.609,1.212,-0.244,-78.633,-51.518,-26.780
1747065330.41,-0.311,0.266,-0.209,-0.398,1.470,-0.436,-78.700,-53.456,-30.375
1747065330.43,-0.155,0.466,-0.176,-0.043,1.220,-0.830,-78.291,-54.983,-33.569
1747065330.45,0.135,0.529,-0.172,0.289,0.218,-0.834,-77.373,-56.186,-35.647
1747065330.47,0.818,0.147,0.043,0.486,0.237,0.292,-76.784,-55.128,-34.845
1747065330.49,0.657,0.214,0.012,0.410,0.209,0.673,-77.148,-51.044,-30.881
1747065330.51,0.208,-0.036,0.102,0.521,0.491,0.088,-76.996,-48.197,-28.370
1747065330.53,-0.140,-0.385,0.022,0.798,-0.493,0.326,-76.714,-44.803,-24.996
1747065330.55,-0.216,-0.117,-0.040,0.739,-2.352,-0.243,-76.079,-43.585,-22.086
1747065330.57,-0.066,-0.267,0.220,0.313,-2.358,0.021,-75.489,-45.125,-20.756
1747065330.59,-0.259,-0.197,0.150,-0.390,-1.866,0.219,-75.625,-47.501,-20.687
1747065330.61,-0.235,-0.117,-0.082,-0.575,-0.897,0.296,-76.241,-50.095,-21.684
1747065330.63,-0.158,0.051,-0.108,-0.391,0.115,0.186,-76.824,-51.494,-22.755
1747065330.65,-0.129,0.135,-0.094,-0.272,0.195,0.095,-77.148,-52.085,-23.621
1747065330.67,-0.137,0.090,-0.029,-0.176,0.104,0.087,-77.423,-52.549,-24.252
1747065330.69,-0.147,-0.010,-0.027,0.081,0.427,0.017,-77.497,-52.329,-24.291
1747065330.71,-0.120,0.064,-0.052,0.136,0.604,-0.452,-77.305,-51.429,-24.127
1747065330.73,-0.265,0.372,-0.234,0.354,0.423,-1.171,-76.190,-53.144,-26.320
1747065330.75,0.156,-0.250,-0.005,0.138,0.454,-0.310,-75.296,-53.658,-27.401
1747065330.77,-0.033,-0.221,0.110,-0.326,0.575,0.639,-75.534,-52.838,-27.192
1747065330.79,-0.086,0.007,0.029,-0.369,0.729,0.253,-76.291,-52.043,-27.141
1747065330.81,0.110,0.045,-0.026,-0.046,0.631,-0.385,-76.357,-52.309,-28.252
1747065330.83,0.136,0.005,0.018,0.140,0.251,-0.463,-75.874,-52.896,-29.383
1747065330.85,0.167,-0.049,0.071,0.100,-0.043,-0.157,-75.496,-53.157,-29.748
1747065330.87,0.147,-0.048,0.087,-0.007,0.084,-0.038,-75.401,-53.198,-29.781
1747065330.89,0.128,0.040,0.033,-0.032,0.324,-0.103,-75.355,-53.232,-30.071
1747065330.91,0.110,0.111,-0.020,0.100,0.398,-0.074,-75.257,-52.975,-30.250
1747065330.93,0.096,0.104,-0.025,0.315,0.181,-0.126,-75.023,-52.152,-29.764
1747065330.95,0.104,0.010,-0.035,0.399,-0.125,-0.119,-74.636,-51.230,-28.838
1747065330.97,0.025,-0.026,-0.014,0.174,-0.174,0.013,-74.369,-50.612,-27.966
1747065330.99,-0.067,0.027,0.089,0.035,0.392,0.040,-74.346,-50.194,-27.619
1747065331.01,-0.028,0.022,0.083,0.185,0.864,-0.022,-74.283,-49.083,-27.259
1747065331.03,0.028,-0.012,0.036,0.272,0.864,-0.088,-74.054,-47.502,-26.666
1747065331.05,0.066,-0.023,0.059,0.305,0.923,-0.085,-73.751,-45.925,-26.058
1747065331.07,0.111,0.015,0.044,0.267,0.821,0.050,-73.492,-44.123,-25.272
1747065331.09,-0.009,0.050,-0.047,0.188,0.414,-0.016,-73.339,-42.773,-24.565
1747065331.11,-0.005,0.008,0.066,0.242,0.539,-0.062,-73.123,-41.862,-24.169
1747065331.13,-0.025,-0.004,0.103,0.320,0.470,-0.059,-72.836,-40.736,-23.615
1747065331.15,-0.053,0.033,0.074,0.361,0.490,-0.034,-72.499,-39.526,-22.904
1747065331.17,-0.099,0.023,0.019,0.359,0.591,-0.009,-72.172,-38.144,-22.098
1747065331.19,-0.164,-0.008,0.002,0.336,0.825,-0.097,-71.809,-36.715,-21.421
1747065331.21,-0.160,-0.024,0.042,0.204,1.175,-0.194,-71.465,-35.453,-21.290
1747065331.23,-0.072,0.004,0.073,0.222,1.422,-0.267,-71.127,-34.201,-21.561
1747065331.25,0.006,0.043,0.078,0.321,1.266,-0.283,-70.690,-32.905,-21.863
1747065331.27,0.041,0.037,0.016,0.390,0.962,-0.199,-70.192,-31.709,-21.908
1747065331.29,0.027,0.003,0.053,0.370,0.931,-0.149,-69.709,-30.464,-21.741
1747065331.31,0.028,-0.047,0.024,0.325,0.918,-0.120,-69.295,-29.254,-21.553
1747065331.33,0.026,-0.038,0.049,0.364,0.911,-0.125,-68.890,-28.024,-21.378
1747065331.35,-0.001,0.002,0.018,0.560,0.801,-0.124,-68.368,-26.769,-21.082
1747065331.37,-0.024,0.020,-0.051,0.629,0.431,-0.110,-67.678,-25.596,-20.594
1747065331.39,-0.055,0.007,-0.040,0.619,0.502,-0.098,-66.980,-24.625,-20.057
1747065331.41,-0.077,-0.049,-0.015,0.406,0.680,-0.098,-66.396,-23.610,-19.709
1747065331.43,-0.026,-0.058,-0.009,0.443,0.889,-0.135,-65.929,-22.578,-19.563
1747065331.45,0.035,0.032,-0.007,0.614,0.734,-0.188,-65.300,-21.515,-19.441
1747065331.47,0.086,0.052,-0.005,0.719,0.683,-0.146,-64.509,-20.534,-19.222
1747065331.49,0.077,-0.031,-0.052,0.759,0.492,-0.051,-63.678,-19.492,-18.819
1747065331.51,0.003,-0.114,-0.106,0.696,0.446,-0.004,-62.854,-18.461,-18.237
1747065331.53,-0.016,-0.086,-0.037,0.471,0.795,-0.031,-62.231,-17.423,-17.847
1747065331.55,0.071,0.022,0.042,0.525,0.789,-0.001,-61.697,-16.203,-17.554
1747065331.57,0.117,0.058,0.018,0.746,0.517,0.049,-60.999,-15.045,-17.086
1747065331.59,0.081,-0.005,-0.014,0.771,0.328,0.107,-60.188,-14.055,-16.482
1747065331.61,0.019,-0.077,-0.095,0.676,0.362,0.141,-59.394,-13.082,-15.794
1747065331.63,-0.058,-0.071,-0.041,0.731,0.431,0.098,-58.669,-12.087,-15.205
1747065331.65,-0.065,-0.045,-0.086,0.850,0.341,0.034,-57.783,-11.263,-14.704
1747065331.67,-0.074,-0.020,-0.039,0.867,0.282,-0.015,-56.825,-10.596,-14.357
1747065331.69,-0.079,-0.041,-0.017,0.792,0.276,0.003,-55.861,-10.028,-14.069
1747065331.71,-0.077,-0.066,0.005,0.541,0.446,0.031,-55.127,-9.454,-13.799
1747065331.73,-0.012,-0.034,0.029,0.368,0.754,0.095,-54.632,-8.520,-13.545
1747065331.75,0.044,0.063,0.044,0.470,0.569,0.112,-54.209,-7.464,-13.221
1747065331.77,0.036,0.101,-0.022,0.666,0.353,0.093,-53.556,-6.715,-12.904
1747065331.79,0.017,0.047,-0.058,0.654,0.419,0.095,-52.807,-6.021,-12.571
1747065331.81,-0.022,-0.010,0.013,0.652,0.363,0.079,-52.081,-5.332,-12.307
1747065331.83,-0.051,-0.080,0.031,0.627,0.426,0.129,-51.357,-4.672,-12.016
1747065331.84,-0.019,-0.101,0.001,0.543,0.468,0.190,-50.702,-3.864,-11.635
1747065331.86,0.045,-0.050,-0.038,0.507,0.537,0.160,-50.133,-2.992,-11.262
1747065331.88,0.028,0.017,-0.015,0.596,0.349,0.150,-49.513,-2.235,-10.955
1747065331.91,0.008,0.026,-0.004,0.611,0.329,0.202,-48.821,-1.629,-10.621
1747065331.93,0.032,-0.000,0.016,0.598,0.430,0.300,-48.145,-0.828,-10.163
1747065331.94,-0.041,0.127,0.021,0.622,0.175,0.166,-47.489,-0.294,-9.826
1747065331.96,0.139,-0.136,-0.016,0.709,0.294,0.363,-46.692,0.366,-9.339
1747065331.98,0.062,-0.023,-0.009,0.628,0.227,0.328,-45.931,1.045,-8.792
1747065332.00,0.043,0.049,0.034,0.616,0.194,0.353,-45.216,1.650,-8.265
1747065332.02,-0.007,0.064,0.037,0.646,0.277,0.386,-44.479,2.310,-7.701
1747065332.04,-0.044,0.000,-0.022,0.590,0.283,0.434,-43.742,3.050,-7.090
1747065332.06,-0.059,-0.035,-0.016,0.464,0.400,0.395,-43.111,3.853,-6.480
1747065332.08,-0.007,-0.074,0.018,0.409,0.506,0.365,-42.592,4.752,-5.942
1747065332.10,0.022,-0.020,0.006,0.440,0.380,0.335,-42.073,5.606,-5.465
1747065332.12,0.028,0.050,-0.019,0.443,0.279,0.364,-41.523,6.245,-5.010
1747065332.14,0.000,0.044,0.024,0.406,0.310,0.398,-40.996,6.916,-4.519
1747065332.16,-0.006,-0.063,-0.038,0.409,0.304,0.437,-40.467,7.622,-3.954
1747065332.18,0.004,-0.037,-0.071,0.366,0.315,0.370,-39.967,8.311,-3.436
1747065332.20,-0.011,0.018,-0.030,0.381,0.325,0.345,-39.490,8.954,-3.006
1747065332.22,-0.022,0.011,-0.003,0.383,0.311,0.359,-38.986,9.580,-2.585
1747065332.24,-0.011,-0.030,-0.008,0.478,0.210,0.373,-38.444,10.156,-2.158
1747065332.26,-0.105,0.024,-0.068,0.554,0.099,0.119,-37.807,10.440,-1.939
1747065332.28,0.077,-0.137,-0.047,0.601,0.340,0.244,-37.087,10.829,-1.799
1747065332.30,-0.045,-0.052,-0.029,0.628,0.235,0.202,-36.360,11.218,-1.674
1747065332.32,-0.006,-0.041,-0.036,0.594,0.238,0.245,-35.614,11.563,-1.537
1747065332.34,0.000,-0.026,-0.054,0.530,0.273,0.261,-34.933,11.973,-1.343
1747065332.36,-0.020,-0.036,-0.005,0.573,0.262,0.213,-34.272,12.378,-1.183
1747065332.38,-0.075,0.052,-0.026,0.628,0.270,0.131,-33.613,12.566,-1.212
1747065332.40,0.033,-0.107,-0.070,0.613,0.343,0.093,-32.871,12.945,-1.229
1747065332.42,0.011,0.036,-0.025,0.579,0.196,0.121,-32.181,13.210,-1.290
1747065332.44,-0.004,0.030,-0.040,0.514,0.172,0.203,-31.532,13.431,-1.238
1747065332.46,-0.035,-0.012,-0.029,0.471,0.287,0.182,-30.932,13.750,-1.139
1747065332.48,0.010,-0.033,0.022,0.465,0.288,0.182,-30.366,14.141,-1.055
1747065332.50,0.044,-0.015,0.030,0.410,0.249,0.202,-29.830,14.492,-0.965
1747065332.52,0.050,-0.017,0.034,0.445,0.227,0.258,-29.301,14.851,-0.805
1747065332.54,0.048,-0.004,-0.003,0.516,0.154,0.263,-28.685,15.143,-0.639
1747065332.56,-0.036,0.118,-0.006,0.495,0.078,0.233,-28.096,15.238,-0.546
1747065332.58,0.063,-0.104,-0.019,0.495,0.165,0.275,-27.450,15.528,-0.343
1747065332.60,0.038,-0.032,-0.004,0.477,0.143,0.275,-26.830,15.780,-0.192
1747065332.62,0.030,0.023,0.020,0.494,0.088,0.292,-26.214,16.005,-0.009
1747065332.64,-0.007,-0.009,-0.003,0.522,0.131,0.314,-25.562,16.185,0.181
1747065332.66,-0.021,-0.038,-0.003,0.526,0.080,0.293,-24.888,16.403,0.367
1747065332.68,0.006,-0.036,-0.033,0.495,0.075,0.232,-24.244,16.537,0.498
1747065332.70,-0.007,-0.037,-0.069,0.446,0.103,0.191,-23.672,16.665,0.592
1747065332.72,-0.074,0.004,-0.044,0.408,0.189,0.162,-23.143,16.860,0.638
1747065332.74,-0.066,0.021,0.006,0.396,0.226,0.187,-22.644,17.130,0.703
1747065332.76,-0.033,0.019,-0.053,0.361,0.237,0.171,-22.177,17.415,0.771
1747065332.78,0.069,-0.030,-0.041,0.413,0.186,0.150,-21.701,17.695,0.826
1747065332.80,0.079,-0.023,-0.038,0.479,0.128,0.117,-21.179,17.881,0.812
1747065332.82,0.032,-0.035,-0.057,0.439,0.102,0.103,-20.630,17.981,0.759
1747065332.84,-0.027,0.004,-0.061,0.309,0.152,0.141,-20.187,18.121,0.762
1747065332.86,-0.038,0.018,-0.018,0.233,0.195,0.146,-19.844,18.348,0.826
1747065332.88,-0.010,-0.008,-0.039,0.201,0.210,0.128,-19.564,18.613,0.903
1747065332.90,-0.003,0.020,-0.030,0.193,0.189,0.136,-19.302,18.860,0.977
1747065332.92,-0.018,-0.003,-0.036,0.182,0.186,0.122,-19.049,19.093,1.052
1747065332.94,-0.011,-0.008,-0.043,0.208,0.173,0.090,-18.802,19.317,1.102
1747065332.96,0.016,0.001,-0.032,0.225,0.100,0.061,-18.532,19.479,1.095
1747065332.98,0.049,0.029,-0.070,0.206,0.045,0.082,-18.272,19.557,1.085
1747065333.00,0.043,0.048,-0.097,0.191,0.004,0.100,-18.025,19.613,1.120
1747065333.02,0.028,0.014,-0.053,0.118,0.012,0.121,-17.817,19.636,1.178
1747065333.04,0.018,0.011,-0.028,0.034,0.052,0.146,-17.686,19.703,1.304
1747065333.06,0.069,0.001,-0.014,-0.005,0.072,0.139,-17.615,19.830,1.460
1747065333.08,0.072,-0.016,-0.011,-0.109,0.056,0.138,-17.620,19.954,1.636
1747065333.10,0.085,0.013,-0.091,-0.200,0.040,0.173,-17.725,20.078,1.869
1747065333.12,0.051,0.044,-0.097,-0.336,0.093,0.238,-17.936,20.252,2.210
1747065333.14,-0.013,0.003,-0.049,-0.432,0.188,0.238,-18.251,20.559,2.648
1747065333.16,-0.012,-0.031,-0.032,-0.463,0.195,0.176,-18.653,20.921,3.077
1747065333.18,0.050,0.002,-0.042,-0.455,0.157,0.136,-19.083,21.246,3.452
1747065333.20,0.067,-0.001,-0.074,-0.432,0.098,0.110,-19.499,21.478,3.776
1747065333.22,0.018,0.008,-0.074,-0.509,0.065,0.094,-19.963,21.671,4.087
1747065333.24,-0.017,0.025,-0.074,-0.574,0.043,0.069,-20.496,21.867,4.438
1747065333.26,-0.001,0.011,-0.069,-0.628,0.012,0.021,-21.102,22.024,4.765
1747065333.28,0.022,0.018,-0.027,-0.603,0.049,0.073,-21.749,22.200,5.124
1747065333.30,0.029,-0.017,-0.031,-0.573,0.010,-0.009,-22.355,22.347,5.423
1747065333.32,0.028,-0.052,-0.018,-0.659,0.047,-0.046,-23.007,22.468,5.681
1747065333.34,0.043,-0.024,-0.029,-0.806,0.134,0.026,-23.792,22.719,6.010
1747065333.36,0.038,0.002,-0.026,-0.809,0.063,0.075,-24.624,23.010,6.477
1747065333.38,0.044,-0.020,-0.030,-0.860,0.054,0.053,-25.465,23.273,6.962
1747065333.40,0.044,-0.063,0.021,-0.886,0.167,0.124,-26.345,23.631,7.503
1747065333.42,0.043,-0.039,0.009,-1.027,0.120,0.104,-27.275,24.086,8.124
1747065333.44,0.067,0.001,-0.023,-1.109,0.227,0.206,-28.338,24.614,8.878
1747065333.46,0.001,0.017,-0.053,-1.052,0.252,0.264,-29.339,25.335,9.761
1747065333.48,-0.047,-0.062,-0.024,-0.920,0.153,0.213,-30.237,25.992,10.629
1747065333.50,-0.053,-0.057,-0.049,-0.825,0.040,0.021,-31.065,26.440,11.282
1747065333.52,-0.047,-0.007,-0.133,-0.748,0.120,-0.166,-31.904,26.704,11.655
1747065333.54,-0.065,-0.004,-0.112,-0.726,0.058,-0.245,-32.773,26.921,11.841
1747065333.56,-0.049,-0.014,-0.091,-0.567,-0.027,-0.241,-33.556,27.007,11.954
1747065333.58,-0.057,0.011,-0.062,-0.480,-0.165,-0.365,-34.240,26.870,11.908
1747065333.60,-0.044,0.016,-0.038,-0.499,-0.078,-0.433,-34.934,26.599,11.705
1747065333.62,-0.016,-0.016,-0.027,-0.601,0.067,-0.392,-35.709,26.478,11.521
1747065333.64,-0.005,-0.025,-0.013,-0.570,0.059,-0.320,-36.506,26.538,11.460
1747065333.66,-0.009,-0.024,-0.006,-0.511,-0.066,-0.343,-37.216,26.491,11.390
1747065333.68,0.020,-0.030,-0.018,-0.522,-0.163,-0.395,-37.923,26.261,11.239
1747065333.70,0.047,-0.017,-0.034,-0.591,-0.063,-0.411,-38.695,26.010,11.068
1747065333.72,0.017,-0.006,-0.044,-0.610,-0.006,-0.411,-39.524,25.884,10.916
1747065333.74,-0.012,-0.006,-0.061,-0.576,-0.040,-0.442,-40.344,25.746,10.733
1747065333.76,-0.020,-0.002,-0.051,-0.580,-0.108,-0.498,-41.171,25.491,10.472
1747065333.78,-0.017,-0.006,-0.084,-0.566,-0.192,-0.530,-42.008,25.101,10.129
1747065333.80,-0.014,-0.013,-0.097,-0.545,-0.207,-0.540,-42.844,24.583,9.737
1747065333.82,-0.020,-0.015,-0.080,-0.559,-0.079,-0.563,-43.679,24.124,9.304
1747065333.84,-0.037,-0.030,-0.067,-0.555,-0.063,-0.599,-44.524,23.721,8.814
1747065333.86,-0.038,-0.055,-0.078,-0.585,-0.182,-0.648,-45.406,23.184,8.257
1747065333.88,-0.021,-0.068,-0.049,-0.613,-0.067,-0.691,-46.333,22.569,7.624
1747065333.90,-0.024,-0.039,-0.049,-0.666,-0.043,-0.737,-47.317,22.008,6.926
1747065333.92,-0.022,-0.020,-0.050,-0.684,-0.045,-0.758,-48.356,21.389,6.170
1747065333.94,-0.003,-0.006,-0.028,-0.707,-0.016,-0.755,-49.406,20.756,5.372
1747065333.96,0.021,-0.003,-0.012,-0.739,-0.094,-0.729,-50.483,20.101,4.587
1747065333.98,0.037,-0.000,-0.021,-0.727,-0.203,-0.690,-51.546,19.340,3.823
1747065334.00,0.058,0.007,-0.039,-0.715,-0.296,-0.622,-52.568,18.478,3.099
1747065334.02,0.079,0.010,-0.062,-0.648,-0.329,-0.563,-53.521,17.592,2.435
1747065334.04,0.070,0.016,-0.083,-0.578,-0.467,-0.583,-54.382,16.579,1.734
1747065334.06,0.025,-0.004,-0.085,-0.481,-0.618,-0.644,-55.155,15.240,0.849
1747065334.08,-0.019,-0.045,-0.059,-0.397,-0.765,-0.682,-55.825,13.552,-0.232
1747065334.10,-0.020,-0.065,-0.056,-0.379,-0.826,-0.709,-56.421,11.620,-1.456
1747065334.12,-0.015,-0.062,-0.030,-0.435,-0.812,-0.705,-57.025,9.592,-2.755
1747065334.14,-0.019,-0.051,-0.037,-0.371,-0.694,-0.684,-57.602,7.644,-4.072
1747065334.16,-0.033,-0.023,-0.074,-0.338,-0.823,-0.713,-58.101,5.595,-5.469
1747065334.18,-0.036,-0.007,-0.024,-0.338,-0.890,-0.737,-58.536,3.316,-6.991
1747065334.20,-0.019,-0.001,0.010,-0.390,-0.806,-0.742,-58.986,0.948,-8.596
1747065334.22,0.017,0.002,0.021,-0.428,-0.628,-0.676,-59.450,-1.233,-10.197
1747065334.24,0.050,0.025,0.027,-0.503,-0.608,-0.537,-59.955,-3.148,-11.610
1747065334.26,0.045,0.043,0.054,-0.510,-0.640,-0.488,-60.500,-4.925,-12.846
1747065334.28,0.031,0.019,0.050,-0.543,-0.677,-0.521,-61.029,-6.810,-14.138
1747065334.30,0.030,-0.026,0.031,-0.553,-0.563,-0.501,-61.583,-8.769,-15.541
1747065334.32,0.032,-0.043,0.031,-0.519,-0.428,-0.409,-62.091,-10.455,-16.838
1747065334.34,-0.004,-0.033,-0.015,-0.568,-0.591,-0.405,-62.615,-12.114,-18.067
1747065334.36,-0.010,-0.033,-0.051,-0.508,-0.689,-0.393,-63.100,-14.000,-19.360
1747065334.38,0.017,-0.027,0.000,-0.542,-0.746,-0.333,-63.582,-15.942,-20.599
1747065334.40,0.011,-0.053,0.003,-0.547,-0.766,-0.303,-64.066,-17.874,-21.790
1747065334.42,0.009,-0.072,0.023,-0.568,-0.719,-0.291,-64.559,-19.822,-23.005
1747065334.44,0.011,-0.064,0.015,-0.585,-0.643,-0.279,-65.054,-21.740,-24.267
1747065334.46,0.011,-0.034,-0.019,-0.658,-0.607,-0.235,-65.595,-23.647,-25.582
1747065334.48,0.030,-0.023,-0.033,-0.620,-0.584,-0.165,-66.178,-25.479,-26.847
1747065334.50,0.050,-0.026,-0.003,-0.505,-0.621,-0.144,-66.682,-27.157,-27.936
1747065334.52,0.041,-0.041,-0.012,-0.461,-0.695,-0.166,-67.064,-28.856,-28.980
1747065334.54,0.011,-0.040,-0.050,-0.632,-0.790,-0.127,-67.516,-30.828,-30.178
1747065334.56,-0.004,-0.051,-0.044,-0.600,-0.655,-0.023,-68.089,-32.783,-31.386
1747065334.58,0.006,-0.058,0.028,-0.598,-0.592,0.101,-68.667,-34.284,-32.261
1747065334.60,-0.005,-0.041,0.018,-0.691,-0.728,0.071,-69.348,-35.925,-33.206
1747065334.62,-0.019,-0.020,-0.027,-0.593,-0.731,-0.049,-69.943,-37.944,-34.456
1747065334.64,-0.004,-0.002,0.004,-0.517,-0.751,-0.047,-70.394,-40.032,-35.783
1747065334.66,-0.048,0.005,-0.029,-0.580,-0.798,0.012,-70.831,-42.095,-37.025
1747065334.68,-0.039,-0.029,0.014,-0.725,-0.660,0.091,-71.429,-44.340,-38.498
1747065334.70,-0.039,-0.053,0.032,-0.679,-0.494,0.035,-72.057,-46.569,-40.161
1747065334.72,-0.027,-0.046,0.013,-0.621,-0.350,-0.053,-72.540,-48.798,-41.992
1747065334.73,-0.015,-0.015,-0.025,-0.557,-0.300,-0.127,-72.905,-51.052,-43.972
1747065334.75,-0.029,-0.017,-0.080,-0.446,-0.353,-0.184,-73.104,-53.246,-45.884
1747065334.77,-0.015,-0.029,-0.108,-0.382,-0.293,-0.137,-73.228,-55.287,-47.607
1747065334.80,0.027,-0.035,-0.078,-0.346,-0.124,-0.063,-73.366,-56.861,-49.009
1747065334.81,0.049,-0.007,-0.067,-0.386,-0.137,-0.022,-73.549,-58.246,-50.322
1747065334.83,0.057,-0.001,-0.061,-0.402,-0.287,-0.014,-73.767,-59.837,-51.739
1747065334.85,0.069,-0.005,-0.044,-0.253,-0.429,-0.024,-73.939,-61.460,-52.996
1747065334.87,0.095,0.002,0.011,-0.159,-0.481,0.043,-74.033,-62.642,-53.676
1747065334.89,0.108,0.029,0.064,-0.207,-0.456,0.175,-74.247,-63.654,-54.165
1747065334.91,0.040,0.014,0.023,-0.066,-0.360,0.184,-74.516,-64.342,-54.396
1747065334.93,-0.026,-0.032,0.013,0.067,-0.229,0.130,-74.666,-64.350,-54.051
1747065334.95,-0.067,-0.034,0.023,0.004,-0.122,0.112,-74.769,-64.131,-53.625
1747065334.97,-0.138,0.017,-0.022,-0.146,-0.140,0.093,-74.907,-64.373,-53.725
1747065334.99,-0.119,0.031,0.004,-0.177,-0.081,0.058,-75.067,-65.025,-54.258
1747065335.01,-0.045,0.032,0.090,-0.124,0.050,0.044,-75.188,-65.552,-54.785
1747065335.03,-0.005,-0.004,0.110,-0.092,0.042,0.070,-75.297,-65.767,-55.088
1747065335.05,-0.027,-0.047,0.062,-0.097,-0.103,0.058,-75.407,-66.068,-55.361
1747065335.07,-0.051,-0.022,0.038,-0.097,-0.215,0.046,-75.490,-66.552,-55.667
1747065335.09,-0.071,-0.001,0.007,-0.138,-0.228,0.023,-75.578,-67.267,-56.130
1747065335.11,-0.055,0.012,0.002,-0.095,-0.076,-0.021,-75.633,-68.016,-56.707
1747065335.13,-0.015,0.022,0.027,-0.040,0.060,-0.025,-75.635,-68.359,-57.065
1747065335.15,0.004,0.017,0.031,0.060,-0.010,0.003,-75.616,-68.369,-57.120
1747065335.17,-0.006,-0.001,0.002,0.096,-0.149,0.013,-75.570,-68.071,-56.718
1747065335.19,-0.020,-0.030,-0.030,0.043,-0.164,0.027,-75.545,-68.043,-56.472
1747065335.21,-0.014,-0.022,-0.009,0.098,0.020,0.045,-75.547,-67.807,-56.143
1747065335.23,-0.015,0.015,0.016,0.143,0.085,0.042,-75.553,-67.235,-55.624
1747065335.25,-0.018,0.014,0.010,0.248,0.066,0.018,-75.498,-66.336,-54.787
1747065335.27,-0.028,-0.014,0.013,0.277,0.042,0.020,-75.369,-65.160,-53.635
1747065335.29,-0.025,-0.020,0.027,0.263,0.037,0.052,-75.263,-64.015,-52.493
1747065335.31,-0.018,-0.019,0.038,0.379,0.115,0.038,-75.155,-62.722,-51.233
1747065335.33,-0.032,-0.010,0.042,0.488,0.141,0.002,-74.934,-60.919,-49.532
1747065335.35,-0.068,-0.001,0.036,0.492,0.016,-0.016,-74.644,-59.060,-47.700
1747065335.37,-0.083,-0.028,0.010,0.545,0.119,0.010,-74.341,-57.154,-45.775
1747065335.39,-0.097,0.014,0.034,0.570,0.381,-0.060,-73.964,-55.088,-43.914
1747065335.41,-0.062,-0.013,0.076,0.640,0.688,-0.079,-73.493,-52.727,-42.101
1747065335.43,-0.053,-0.034,0.020,0.749,0.753,-0.053,-72.936,-49.978,-40.118
1747065335.45,-0.054,-0.053,-0.041,0.811,0.725,-0.047,-72.313,-47.137,-38.004
1747065335.47,-0.021,-0.044,0.044,0.824,0.931,-0.043,-71.603,-44.230,-35.931
1747065335.49,-0.003,0.008,0.053,0.689,1.071,-0.045,-70.943,-41.465,-34.243
1747065335.51,-0.002,0.029,0.046,0.733,1.180,0.016,-70.315,-38.757,-32.728
1747065335.53,-0.005,0.035,0.084,0.764,1.235,0.012,-69.653,-35.889,-31.152
1747065335.55,-0.002,0.009,0.091,0.801,1.115,-0.005,-68.917,-33.178,-29.718
1747065335.57,-0.018,-0.029,-0.003,0.812,0.808,0.009,-68.134,-30.844,-28.378
1747065335.59,-0.023,-0.028,0.001,0.784,0.897,0.014,-67.348,-28.753,-27.144
1747065335.61,0.007,0.005,-0.005,0.754,0.817,0.041,-66.572,-26.705,-26.028
1747065335.63,-0.001,-0.004,0.026,0.656,0.636,0.072,-65.896,-24.989,-25.017
1747065335.65,-0.047,-0.033,-0.022,0.768,0.749,0.060,-65.180,-23.297,-24.041
1747065335.67,-0.031,-0.015,-0.026,0.705,0.755,0.116,-64.418,-21.555,-23.066
1747065335.69,0.009,0.013,-0.028,0.853,0.818,0.148,-63.677,-19.737,-22.041
1747065335.71,0.004,-0.017,-0.026,0.785,0.729,0.160,-62.810,-17.908,-20.967
1747065335.73,-0.022,-0.053,0.050,0.742,0.804,0.119,-62.035,-16.256,-20.107
1747065335.75,0.004,-0.092,-0.072,0.707,0.894,0.214,-61.271,-14.561,-19.272
1747065335.77,0.059,-0.025,-0.020,0.650,0.896,0.264,-60.612,-12.671,-18.317
1747065335.79,0.066,0.022,-0.055,0.698,0.546,0.174,-59.896,-11.131,-17.495
1747065335.81,0.073,-0.001,0.011,0.748,0.400,0.179,-59.129,-10.038,-16.825
1747065335.83,0.055,-0.037,-0.002,0.772,0.497,0.246,-58.310,-8.926,-16.085
1747065335.85,0.032,-0.038,0.022,0.795,0.691,0.246,-57.468,-7.561,-15.316
1747065335.87,0.025,-0.043,-0.035,0.863,0.537,0.232,-56.561,-6.253,-14.612
1747065335.89,-0.012,-0.061,-0.109,0.781,0.460,0.219,-55.621,-5.183,-13.968
1747065335.91,-0.008,-0.063,-0.023,0.687,0.663,0.226,-54.824,-4.107,-13.425
1747065335.93,0.057,-0.061,0.053,0.665,0.774,0.327,-54.079,-2.744,-12.804
1747065335.95,0.105,-0.031,0.075,0.724,0.471,0.396,-53.312,-1.392,-12.048
1747065335.97,0.066,-0.016,-0.026,0.829,0.070,0.387,-52.422,-0.516,-11.284
1747065335.99,0.005,-0.022,-0.071,0.749,0.267,0.348,-51.506,0.200,-10.588
1747065336.01,-0.047,0.009,-0.025,0.617,0.488,0.269,-50.726,1.076,-10.051
1747065336.03,-0.071,0.045,0.036,0.755,0.537,0.240,-49.972,1.982,-9.628
1747065336.05,-0.061,0.030,0.004,0.944,0.456,0.301,-48.970,2.863,-9.234
1747065336.07,-0.022,-0.013,-0.044,0.749,0.423,0.390,-47.952,3.701,-8.720
1747065336.09,0.019,-0.032,0.005,0.555,0.362,0.498,-47.212,4.663,-8.045
1747065336.11,0.052,-0.021,-0.020,0.565,0.352,0.568,-46.512,5.639,-7.239
1747065336.13,0.061,0.010,-0.005,0.679,0.418,0.498,-45.757,6.651,-6.434
1747065336.15,0.030,0.018,0.041,0.969,0.299,0.340,-44.776,7.427,-5.941
1747065336.17,-0.019,-0.108,-0.058,1.093,0.064,0.477,-43.484,7.876,-5.548
1747065336.19,-0.040,-0.060,-0.042,0.651,0.365,0.460,-42.417,8.489,-5.002
1747065336.21,-0.019,0.015,0.030,0.515,0.400,0.455,-41.720,9.337,-4.440
1747065336.23,-0.068,0.092,0.024,0.645,0.416,0.404,-40.979,10.126,-3.938
1747065336.25,-0.007,0.056,0.053,0.763,0.480,0.409,-40.103,10.899,-3.526
1747065336.27,0.017,-0.046,0.071,0.831,0.487,0.463,-39.113,11.708,-3.127
1747065336.29,0.067,-0.050,-0.010,0.707,0.510,0.411,-38.126,12.513,-2.730
1747065336.31,0.117,-0.006,-0.004,0.538,0.433,0.440,-37.340,13.291,-2.339
1747065336.33,0.053,0.003,0.039,0.563,0.420,0.509,-36.625,14.078,-1.860
1747065336.35,0.009,-0.042,-0.015,0.658,0.414,0.531,-35.787,14.847,-1.360
1747065336.37,-0.062,-0.064,-0.030,0.589,0.447,0.495,-34.933,15.607,-0.902
1747065336.39,-0.103,-0.026,-0.025,0.557,0.498,0.484,-34.168,16.381,-0.471
1747065336.41,-0.079,-0.051,-0.013,0.710,0.531,0.439,-33.317,17.167,-0.089
1747065336.43,-0.012,-0.032,0.022,0.823,0.431,0.358,-32.351,17.848,0.106
1747065336.45,0.045,-0.022,-0.056,0.784,0.221,0.282,-31.346,18.231,0.189
1747065336.47,0.029,0.036,-0.096,0.705,0.303,0.205,-30.452,18.530,0.176
1747065336.49,-0.138,0.110,-0.037,0.678,0.350,0.219,-29.634,18.890,0.145
1747065336.51,-0.183,0.068,-0.036,0.613,0.428,0.326,-28.831,19.352,0.207
1747065336.53,-0.111,0.038,-0.056,0.649,0.420,0.354,-28.039,19.928,0.370
1747065336.55,-0.047,-0.047,-0.102,0.734,0.431,0.230,-27.155,20.419,0.422
1747065336.57,0.001,-0.022,0.055,0.874,0.212,0.121,-26.314,20.677,0.222
1747065336.59,0.158,-0.127,0.019,0.921,0.099,0.074,-25.280,20.722,-0.083
1747065336.61,0.093,0.028,-0.021,0.775,0.128,0.272,-24.303,20.749,-0.273
1747065336.63,0.048,0.030,-0.021,0.607,0.287,0.399,-23.416,21.035,-0.171
1747065336.65,0.066,-0.062,0.026,0.492,0.340,0.443,-22.657,21.488,0.075
1747065336.67,0.129,-0.116,0.004,0.386,0.399,0.460,-21.999,22.027,0.397
1747065336.69,0.146,-0.036,-0.014,0.370,0.342,0.515,-21.391,22.602,0.769
1747065336.71,0.085,0.026,0.013,0.314,0.350,0.574,-20.789,23.172,1.224
1747065336.73,-0.029,0.020,0.016,0.213,0.286,0.547,-20.228,23.674,1.740
1747065336.75,0.025,-0.054,-0.054,0.138,0.371,0.572,-19.802,24.239,2.278
1747065336.77,0.079,-0.054,-0.099,0.203,0.231,0.446,-19.386,24.722,2.754
1747065336.79,0.077,-0.001,-0.092,0.210,0.224,0.452,-18.948,25.104,3.135
1747065336.81,-0.051,0.039,-0.044,0.114,0.251,0.446,-18.548,25.489,3.535
1747065336.83,-0.033,0.022,-0.061,-0.025,0.345,0.408,-18.292,25.986,3.985
1747065336.85,0.051,0.011,-0.055,-0.049,0.343,0.438,-18.133,26.536,4.447
1747065336.87,0.101,-0.084,-0.035,-0.030,0.122,0.342,-17.958,26.980,4.906
1747065336.89,0.175,-0.106,-0.048,-0.079,0.169,0.311,-17.822,27.250,5.281
1747065336.91,0.073,0.049,-0.084,-0.228,0.190,0.373,-17.791,27.589,5.721
1747065336.93,-0.049,0.098,-0.120,-0.382,0.296,0.442,-17.896,28.051,6.334
1747065336.95,0.016,-0.007,-0.126,-0.393,0.234,0.351,-18.072,28.582,6.981
1747065336.97,0.101,-0.051,0.011,-0.358,0.023,0.337,-18.262,28.908,7.541
1747065336.99,0.198,-0.062,-0.007,-0.529,0.135,0.319,-18.487,29.177,8.131
1747065337.01,0.096,0.079,-0.029,-0.847,0.322,0.490,-18.961,29.704,8.955
1747065337.03,-0.061,0.120,-0.055,-1.001,0.452,0.707,-19.545,30.527,10.168
1747065337.05,-0.123,0.004,-0.077,-0.960,0.442,0.658,-20.106,31.506,11.505
1747065337.07,-0.051,-0.115,-0.076,-0.852,0.377,0.533,-20.626,32.399,12.711
1747065337.09,-0.028,-0.064,-0.051,-0.752,0.283,0.342,-21.122,33.126,13.688
1747065337.11,-0.040,0.047,-0.120,-0.684,0.221,0.252,-21.610,33.670,14.451
1747065337.13,-0.093,0.091,-0.085,-0.732,0.294,0.304,-22.112,34.257,15.217
1747065337.15,-0.126,0.054,-0.092,-0.682,0.318,0.367,-22.563,34.930,16.061
1747065337.17,-0.116,-0.021,-0.060,-0.523,0.221,0.231,-22.919,35.549,16.815
1747065337.19,-0.094,-0.061,-0.024,-0.485,0.209,0.142,-23.260,35.976,17.336
1747065337.21,-0.026,-0.047,-0.045,-0.458,0.291,0.182,-23.591,36.476,17.841
1747065337.23,-0.009,-0.029,-0.026,-0.415,0.274,0.135,-23.880,37.002,18.340
1747065337.25,-0.026,-0.025,-0.027,-0.293,0.249,0.064,-24.129,37.448,18.705
1747065337.27,-0.035,-0.015,-0.035,-0.380,0.229,0.098,-24.371,37.830,19.004
1747065337.29,0.030,-0.055,0.042,-0.518,0.317,0.338,-24.641,38.388,19.561
1747065337.31,0.064,-0.109,0.066,-0.421,0.211,0.376,-24.804,38.994,20.316
1747065337.33,0.025,-0.056,0.017,-0.365,0.270,0.091,-24.944,39.500,20.859
1747065337.35,-0.019,0.058,-0.137,-0.509,0.331,-0.019,-25.326,39.971,21.212
1747065337.37,-0.011,0.124,-0.199,-0.618,0.433,0.118,-25.795,40.657,21.736
1747065337.39,0.025,0.039,-0.135,-0.423,0.228,0.095,-26.164,41.299,22.295
1747065337.41,0.042,-0.006,-0.085,-0.292,0.024,-0.098,-26.444,41.568,22.595
1747065337.43,0.043,0.047,-0.142,-0.407,0.011,-0.257,-26.882,41.593,22.691
1747065337.45,0.026,0.072,-0.113,-0.518,0.204,-0.230,-27.480,41.805,22.871
1747065337.47,0.015,0.007,-0.099,-0.506,0.136,-0.223,-28.082,42.121,23.096
1747065337.49,0.054,-0.056,-0.047,-0.440,-0.015,-0.261,-28.669,42.288,23.302
1747065337.51,0.056,0.035,-0.122,-0.457,-0.118,-0.498,-29.318,42.204,23.318
1747065337.53,0.033,0.095,-0.120,-0.585,0.040,-0.576,-30.194,42.096,23.239
1747065337.55,0.009,0.054,-0.089,-0.541,0.085,-0.535,-31.110,42.200,23.211
1747065337.57,0.011,-0.025,-0.121,-0.380,-0.157,-0.573,-31.913,42.084,23.078
1747065337.59,0.021,-0.057,-0.114,-0.276,-0.193,-0.726,-32.673,41.681,22.724
1747065337.61,-0.007,-0.051,-0.079,-0.345,-0.150,-0.927,-33.559,41.159,22.155
1747065337.63,-0.035,-0.034,-0.102,-0.393,-0.065,-1.031,-34.613,40.658,21.449
1747065337.65,-0.071,0.004,-0.099,-0.445,0.015,-1.030,-35.751,40.206,20.738
1747065337.66,-0.069,0.028,-0.056,-0.464,0.075,-1.006,-36.892,39.867,20.041
1747065337.68,-0.030,-0.011,-0.045,-0.421,0.079,-0.945,-38.004,39.536,19.372
1747065337.70,0.032,-0.064,-0.011,-0.538,-0.022,-0.921,-39.092,39.191,18.758
1747065337.72,0.073,-0.070,-0.017,-0.616,0.042,-0.910,-40.260,38.878,18.248
1747065337.74,0.049,-0.010,0.004,-0.619,-0.032,-0.957,-41.486,38.567,17.753
1747065337.76,0.022,0.057,-0.037,-0.565,-0.239,-1.079,-42.734,37.975,17.081
1747065337.78,0.033,0.065,-0.016,-0.519,-0.361,-1.083,-43.982,37.039,16.237
1747065337.80,0.064,0.048,-0.015,-0.568,-0.480,-1.031,-45.204,35.955,15.388
1747065337.82,0.079,-0.002,0.013,-0.553,-0.476,-0.927,-46.377,34.851,14.618
1747065337.84,0.063,-0.027,0.006,-0.577,-0.603,-0.881,-47.480,33.727,13.900
1747065337.86,0.042,-0.053,0.018,-0.606,-0.498,-0.857,-48.591,32.554,13.209
1747065337.88,0.010,-0.064,0.016,-0.646,-0.447,-0.843,-49.715,31.521,12.546
1747065337.90,-0.001,-0.043,-0.033,-0.631,-0.445,-0.866,-50.843,30.460,11.822
1747065337.92,-0.018,-0.019,-0.021,-0.662,-0.549,-0.857,-51.974,29.284,11.035
1747065337.94,-0.038,0.001,-0.029,-0.622,-0.560,-0.852,-53.085,27.987,10.207
1747065337.96,-0.032,0.013,-0.019,-0.644,-0.497,-0.843,-54.178,26.651,9.314
1747065337.98,-0.011,0.010,-0.024,-0.707,-0.445,-0.824,-55.276,25.374,8.404
1747065338.00,0.031,-0.008,-0.004,-0.689,-0.338,-0.769,-56.397,24.205,7.540
1747065338.02,0.071,-0.010,0.002,-0.719,-0.412,-0.734,-57.474,23.075,6.687
1747065338.04,0.085,-0.032,-0.016,-0.612,-0.503,-0.712,-58.491,21.820,5.805
1747065338.06,0.063,-0.031,-0.040,-0.635,-0.792,-0.742,-59.457,20.219,4.803
1747065338.08,0.032,-0.033,-0.073,-0.584,-0.873,-0.779,-60.395,18.239,3.619
1747065338.10,0.014,-0.025,0.007,-0.544,-0.888,-0.747,-61.267,16.066,2.291
1747065338.12,-0.012,-0.015,0.018,-0.672,-0.931,-0.728,-62.139,13.850,0.951
1747065338.14,-0.010,-0.019,0.002,-0.712,-0.827,-0.708,-63.110,11.623,-0.412
1747065338.16,-0.000,-0.007,0.069,-0.642,-0.682,-0.644,-64.014,9.524,-1.789
1747065338.18,0.021,-0.001,0.044,-0.610,-0.609,-0.665,-64.817,7.493,-3.245
1747065338.20,0.052,-0.034,0.019,-0.641,-0.641,-0.717,-65.626,5.245,-4.928
1747065338.22,0.071,-0.067,-0.005,-0.692,-0.720,-0.721,-66.433,2.737,-6.828
1747065338.24,0.084,-0.073,-0.017,-0.686,-0.862,-0.613,-67.249,0.084,-8.742
1747065338.26,0.073,-0.067,0.048,-0.595,-1.016,-0.441,-67.989,-2.528,-10.376
1747065338.28,0.043,-0.057,0.019,-0.624,-1.077,-0.442,-68.611,-5.012,-11.796
1747065338.30,0.025,-0.063,-0.017,-0.779,-1.181,-0.491,-69.370,-7.968,-13.561
1747065338.32,0.005,-0.099,-0.033,-0.603,-1.119,-0.491,-70.084,-11.169,-15.563
1747065338.34,0.000,-0.081,-0.057,-0.529,-1.145,-0.402,-70.566,-14.242,-17.466
1747065338.36,0.016,-0.071,0.057,-0.724,-1.236,-0.266,-71.148,-17.205,-19.154
1747065338.38,-0.039,-0.059,0.041,-0.807,-1.057,-0.276,-71.899,-20.233,-20.943
1747065338.40,-0.056,-0.021,0.006,-0.789,-0.800,-0.346,-72.628,-23.412,-23.161
1747065338.42,-0.047,-0.024,-0.020,-0.768,-0.570,-0.347,-73.243,-26.539,-25.634
1747065338.44,-0.048,-0.024,-0.001,-0.779,-0.477,-0.328,-73.856,-29.744,-28.345
1747065338.46,-0.045,-0.039,-0.028,-0.761,-0.361,-0.293,-74.405,-32.881,-31.119
1747065338.48,-0.018,-0.058,-0.031,-0.732,-0.317,-0.208,-74.947,-35.911,-33.854
1747065338.50,0.002,-0.056,-0.037,-0.802,-0.239,-0.174,-75.517,-38.850,-36.563
1747065338.52,0.021,-0.069,-0.061,-0.797,-0.195,-0.229,-76.058,-42.115,-39.692
1747065338.54,0.057,-0.050,-0.066,-0.748,-0.329,-0.208,-76.539,-45.710,-43.095
1747065338.56,0.065,-0.036,-0.071,-0.603,-0.532,-0.119,-76.911,-49.125,-46.100
1747065338.58,0.078,-0.031,-0.038,-0.530,-0.672,-0.018,-77.265,-52.187,-48.528
1747065338.60,0.031,-0.042,-0.045,-0.435,-0.616,0.029,-77.606,-54.905,-50.545
1747065338.62,-0.008,-0.053,-0.032,-0.340,-0.542,0.088,-77.903,-57.065,-52.082
1747065338.64,-0.034,-0.042,-0.020,-0.247,-0.433,0.062,-78.160,-58.763,-53.234
1747065338.66,-0.080,-0.004,-0.023,-0.128,-0.195,0.031,-78.319,-59.888,-54.020
1747065338.68,-0.112,0.015,-0.005,0.037,0.066,-0.027,-78.354,-60.153,-54.211
1747065338.70,-0.161,0.038,0.011,0.103,0.178,-0.076,-78.244,-59.724,-53.947
1747065338.72,-0.185,0.002,-0.023,-0.032,-0.058,-0.082,-78.141,-59.645,-53.955
1747065338.74,-0.180,-0.006,-0.088,-0.102,-0.211,-0.186,-78.062,-60.566,-54.701
1747065338.76,-0.069,0.017,-0.045,0.019,-0.051,-0.250,-77.859,-61.573,-55.569
1747065338.78,0.083,0.022,0.048,0.038,0.099,-0.082,-77.653,-61.750,-55.794
1747065338.80,0.156,-0.016,0.049,-0.012,0.045,0.017,-77.632,-61.674,-55.812
1747065338.82,0.184,-0.060,0.003,0.037,-0.101,0.054,-77.653,-61.561,-55.687
1747065338.84,0.158,-0.051,-0.019,0.032,-0.573,0.134,-77.729,-61.524,-55.263
1747065338.86,0.088,0.009,0.011,-0.021,-0.765,0.184,-77.887,-61.901,-54.825
1747065338.88,0.014,0.021,0.042,0.004,-0.700,0.177,-78.077,-62.353,-54.420
1747065338.90,-0.051,-0.004,0.075,0.032,-0.548,0.098,-78.214,-62.617,-53.954
1747065338.92,-0.110,-0.010,0.080,0.119,-0.404,-0.040,-78.208,-62.775,-53.557
1747065338.94,-0.178,0.007,0.038,0.151,-0.359,-0.175,-78.008,-62.784,-53.126
1747065338.96,-0.213,0.018,-0.005,0.050,-0.261,-0.114,-77.793,-63.056,-53.031
1747065338.98,-0.199,0.011,-0.029,0.071,0.065,0.027,-77.744,-63.055,-52.891
1747065339.00,-0.093,0.014,0.005,0.208,0.337,-0.024,-77.673,-62.122,-52.207
1747065339.02,-0.020,0.013,0.007,0.293,0.207,-0.015,-77.512,-60.696,-51.078
1747065339.04,0.000,0.000,0.006,0.307,0.140,0.015,-77.338,-59.149,-49.679
1747065339.06,0.006,-0.023,0.040,0.305,0.184,0.022,-77.174,-57.585,-48.269
1747065339.08,-0.020,-0.030,0.041,0.324,0.123,0.013,-76.998,-56.055,-46.889
1747065339.10,-0.029,-0.001,0.019,0.345,0.080,-0.016,-76.773,-54.599,-45.501
1747065339.12,0.014,0.011,0.023,0.354,0.154,0.002,-76.529,-53.143,-44.137
1747065339.14,0.048,-0.006,0.050,0.409,0.189,0.041,-76.291,-51.458,-42.620
1747065339.16,0.029,-0.021,0.046,0.546,0.052,0.009,-75.974,-49.540,-40.803
1747065339.18,-0.030,-0.040,-0.012,0.755,-0.143,-0.062,-75.465,-47.520,-38.654
1747065339.20,-0.079,-0.043,-0.037,0.866,-0.063,-0.093,-74.739,-45.329,-36.231
1747065339.22,-0.097,-0.019,0.031,0.753,0.252,-0.057,-74.010,-43.119,-34.048
1747065339.24,-0.113,-0.021,0.018,0.706,0.549,0.039,-73.385,-40.815,-32.132
1747065339.26,-0.112,0.029,0.024,0.594,0.814,-0.003,-72.839,-38.401,-30.414
1747065339.28,-0.059,0.001,0.071,0.704,0.947,-0.078,-72.234,-36.080,-29.082
1747065339.30,-0.026,-0.014,0.011,0.780,0.835,-0.097,-71.464,-33.825,-27.771
1747065339.32,-0.008,-0.020,-0.012,0.810,0.626,-0.067,-70.654,-31.794,-26.526
1747065339.34,0.012,-0.020,-0.003,0.741,0.486,0.036,-69.863,-29.964,-25.234
1747065339.36,0.003,-0.023,0.145,0.578,0.739,0.090,-69.255,-28.116,-23.976
1747065339.38,-0.014,-0.018,0.043,0.570,0.917,0.041,-68.709,-26.198,-22.959
1747065339.40,0.020,-0.018,-0.063,0.642,0.953,0.038,-68.113,-24.292,-22.073
1747065339.42,0.047,0.047,-0.033,0.725,0.826,0.045,-67.397,-22.383,-21.111
1747065339.44,0.034,0.066,0.024,0.633,0.794,0.056,-66.707,-20.685,-20.249
1747065339.46,0.010,0.008,0.015,0.621,0.765,0.077,-66.049,-19.062,-19.463
1747065339.48,0.012,-0.043,0.030,0.566,0.866,0.176,-65.456,-17.395,-18.629
1747065339.50,0.026,-0.054,0.004,0.642,0.759,0.271,-64.879,-15.473,-17.572
1747065339.52,-0.022,-0.035,-0.076,0.719,0.670,0.216,-64.192,-13.667,-16.456
1747065339.54,-0.057,0.002,-0.058,0.721,0.453,0.098,-63.422,-12.281,-15.638
1747065339.56,-0.076,-0.008,-0.015,0.708,0.593,0.025,-62.637,-11.260,-15.136
1747065339.58,-0.059,-0.036,-0.007,0.630,0.822,0.087,-61.885,-10.058,-14.714
1747065339.60,0.011,-0.016,-0.014,0.634,0.832,0.212,-61.233,-8.587,-14.131
1747065339.62,0.077,0.026,0.061,0.721,0.600,0.244,-60.480,-7.049,-13.351
1747065339.64,0.042,-0.015,-0.036,0.721,0.429,0.152,-59.698,-5.960,-12.710
1747065339.66,0.004,-0.062,-0.054,0.696,0.605,0.095,-58.883,-5.034,-12.300
1747065339.68,0.022,-0.037,0.009,0.672,0.614,0.163,-58.127,-3.985,-11.919
1747065339.70,0.022,-0.001,0.008,0.807,0.509,0.252,-57.316,-2.887,-11.393
1747065339.72,0.014,0.017,0.056,0.776,0.545,0.282,-56.394,-1.741,-10.753
1747065339.74,-0.017,-0.018,-0.002,0.665,0.322,0.260,-55.599,-0.764,-10.162
1747065339.76,-0.006,-0.049,0.028,0.628,0.371,0.290,-54.842,0.052,-9.633
1747065339.78,0.027,-0.062,-0.013,0.603,0.484,0.390,-54.166,1.086,-8.976
1747065339.80,0.033,-0.026,-0.055,0.930,0.400,0.348,-53.301,2.172,-8.250
1747065339.82,-0.041,0.040,0.041,0.973,0.268,0.119,-52.156,2.808,-7.924
1747065339.84,-0.077,-0.014,-0.024,0.822,0.261,0.158,-51.113,3.198,-7.798
1747065339.86,-0.040,-0.057,-0.003,0.542,0.428,0.364,-50.314,3.870,-7.401
1747065339.88,0.060,0.013,0.048,0.458,0.549,0.446,-49.730,4.975,-6.735
1747065339.90,0.085,0.057,0.026,0.532,0.615,0.422,-49.132,6.146,-6.046
1747065339.92,0.065,0.031,0.044,0.793,0.471,0.373,-48.319,7.247,-5.482
1747065339.94,0.023,-0.047,-0.075,0.766,0.323,0.408,-47.347,7.972,-5.025
1747065339.96,0.059,-0.062,0.025,0.620,0.412,0.464,-46.506,8.826,-4.466
1747065339.98,0.038,-0.056,-0.004,0.642,0.368,0.489,-45.715,9.699,-3.845
1747065340.00,-0.005,-0.011,-0.035,0.714,0.362,0.406,-44.864,10.515,-3.311
1747065340.02,-0.026,0.017,-0.003,0.811,0.180,0.354,-43.925,11.068,-2.935
1747065340.04,-0.057,-0.004,-0.005,0.845,0.016,0.437,-42.897,11.412,-2.605
1747065340.06,-0.049,-0.024,-0.067,0.676,0.243,0.497,-41.921,11.853,-2.115
1747065340.08,-0.062,0.018,-0.049,0.561,0.313,0.455,-41.122,12.522,-1.597
1747065340.10,-0.086,0.044,0.017,0.521,0.397,0.420,-40.425,13.239,-1.155
1747065340.12,-0.043,-0.010,0.005,0.632,0.411,0.455,-39.672,13.983,-0.717
1747065340.14,-0.002,-0.060,0.006,0.717,0.288,0.450,-38.785,14.641,-0.306
1747065340.16,0.050,-0.076,-0.030,0.750,0.286,0.384,-37.841,15.166,0.003
1747065340.18,0.046,-0.026,-0.036,0.609,0.283,0.397,-36.979,15.635,0.263
1747065340.20,-0.011,0.041,0.023,0.501,0.365,0.374,-36.256,16.217,0.579
1747065340.22,0.006,0.039,0.020,0.499,0.375,0.484,-35.572,16.853,0.941
1747065340.24,0.031,-0.027,0.010,0.430,0.405,0.596,-34.876,17.612,1.491
1747065340.26,0.065,-0.108,0.017,0.395,0.501,0.496,-34.238,18.454,2.047
1747065340.28,0.072,-0.127,0.043,0.488,0.461,0.407,-33.608,19.238,2.434
1747065340.30,-0.008,-0.022,-0.006,0.583,0.286,0.368,-32.902,19.712,2.654
1747065340.32,0.055,-0.018,-0.025,0.534,0.332,0.449,-32.127,20.244,2.937
1747065340.34,-0.021,0.025,-0.058,0.505,0.350,0.512,-31.359,20.805,3.305
1747065340.36,-0.090,-0.031,-0.012,0.400,0.335,0.521,-30.688,21.431,3.732
1747065340.38,-0.082,-0.105,-0.076,0.445,0.409,0.418,-30.023,22.035,4.129
1747065340.40,-0.011,-0.072,-0.043,0.538,0.385,0.273,-29.373,22.609,4.292
1747065340.42,-0.009,0.025,-0.089,0.623,0.180,0.227,-28.642,22.912,4.281
1747065340.44,0.010,0.100,-0.089,0.630,0.100,0.355,-27.854,23.081,4.299
1747065340.46,-0.001,0.048,-0.015,0.564,0.056,0.349,-27.065,23.228,4.402
1747065340.48,0.080,-0.050,0.018,0.426,0.155,0.402,-26.378,23.446,4.595
1747065340.50,0.070,-0.052,0.008,0.248,0.210,0.413,-25.831,23.780,4.903
1747065340.52,0.035,-0.018,0.052,0.126,0.292,0.467,-25.441,24.241,5.315
1747065340.53,0.049,0.041,-0.001,-0.002,0.420,0.518,-25.142,24.883,5.849
1747065340.56,0.051,0.032,0.000,0.008,0.372,0.578,-24.884,25.623,6.475
1747065340.57,0.032,-0.009,-0.069,-0.049,0.314,0.583,-24.615,26.272,7.139
1747065340.60,0.041,-0.035,-0.103,-0.082,0.328,0.529,-24.401,26.920,7.802
1747065340.61,0.020,0.001,-0.048,-0.074,0.309,0.515,-24.204,27.529,8.419
1747065340.63,-0.045,0.016,0.023,-0.078,0.321,0.561,-23.996,28.169,9.069
1747065340.65,-0.036,-0.004,-0.075,-0.124,0.370,0.503,-23.790,28.801,9.703
1747065340.67,-0.000,0.008,-0.063,-0.152,0.288,0.441,-23.681,29.443,10.305
1747065340.69,0.059,0.033,-0.090,-0.180,0.179,0.434,-23.590,29.931,10.867
1747065340.71,0.112,0.017,-0.011,-0.227,0.188,0.551,-23.500,30.399,11.521
1747065340.73,0.035,0.049,0.032,-0.346,0.374,0.659,-23.432,31.037,12.354
1747065340.75,-0.076,0.033,0.015,-0.400,0.427,0.760,-23.371,31.910,13.352
1747065340.77,-0.081,-0.070,0.027,-0.465,0.414,0.766,-23.316,32.781,14.454
1747065340.79,0.038,-0.094,0.012,-0.506,0.472,0.625,-23.350,33.730,15.504
1747065340.81,0.047,0.050,-0.027,-0.550,0.458,0.604,-23.457,34.661,16.498
1747065340.83,-0.031,0.128,-0.117,-0.521,0.430,0.642,-23.558,35.574,17.515
1747065340.85,-0.066,0.069,-0.152,-0.392,0.348,0.684,-23.538,36.428,18.528
1747065340.87,-0.079,-0.022,-0.156,-0.294,0.328,0.552,-23.407,37.147,19.411
1747065340.89,-0.109,-0.049,-0.097,-0.244,0.288,0.384,-23.329,37.776,20.062
1747065340.91,-0.077,-0.024,-0.043,-0.269,0.366,0.319,-23.316,38.351,20.596
1747065340.93,-0.014,0.035,-0.040,-0.293,0.353,0.361,-23.342,38.988,21.141
1747065340.95,0.042,0.065,-0.080,-0.224,0.297,0.313,-23.318,39.578,21.683
1747065340.97,0.021,0.035,-0.068,-0.163,0.175,0.237,-23.293,40.018,22.088
1747065340.99,0.001,-0.075,0.033,-0.272,0.222,0.227,-23.308,40.367,22.472
1747065341.01,0.058,-0.066,-0.006,-0.308,0.307,0.260,-23.389,40.878,22.948
1747065341.03,0.047,0.039,-0.095,-0.262,0.240,0.145,-23.470,41.368,23.384
1747065341.05,0.044,0.068,-0.173,-0.266,0.135,0.047,-23.623,41.690,23.666
1747065341.07,0.063,0.005,-0.070,-0.348,0.152,0.035,-23.858,41.956,23.965
1747065341.09,0.043,0.015,-0.055,-0.327,0.167,0.004,-24.126,42.266,24.270
1747065341.11,0.031,0.030,-0.162,-0.293,0.050,-0.110,-24.415,42.470,24.484
1747065341.13,0.006,0.019,-0.128,-0.367,0.140,-0.245,-24.830,42.614,24.594
1747065341.15,0.017,0.075,-0.178,-0.513,0.164,-0.328,-25.419,42.831,24.686
1747065341.17,0.040,0.123,-0.144,-0.505,0.193,-0.286,-26.109,43.145,24.863
1747065341.19,0.050,0.061,-0.164,-0.339,-0.125,-0.330,-26.697,43.213,24.955
1747065341.21,0.058,-0.056,-0.053,-0.252,-0.191,-0.481,-27.246,42.947,24.842
1747065341.23,0.051,-0.037,-0.059,-0.301,-0.058,-0.720,-27.925,42.645,24.484
1747065341.25,0.028,0.108,-0.116,-0.478,0.023,-0.715,-28.838,42.460,24.133
1747065341.27,-0.000,0.123,-0.101,-0.492,-0.036,-0.625,-29.765,42.366,23.920
1747065341.29,0.026,0.032,-0.075,-0.456,-0.141,-0.578,-30.632,42.182,23.766
1747065341.31,0.020,-0.051,-0.048,-0.391,-0.138,-0.680,-31.461,41.902,23.532
1747065341.33,0.006,-0.083,-0.033,-0.415,-0.059,-0.840,-32.374,41.560,23.120
1747065341.35,-0.003,-0.039,-0.083,-0.455,-0.042,-0.926,-33.415,41.225,22.599
1747065341.37,0.001,-0.008,-0.103,-0.537,0.015,-0.898,-34.547,40.914,22.102
1747065341.39,-0.001,-0.027,-0.088,-0.511,-0.003,-0.868,-35.651,40.693,21.657
1747065341.41,-0.027,-0.064,-0.070,-0.423,-0.119,-0.938,-36.727,40.303,21.131
1747065341.43,-0.018,-0.091,-0.072,-0.474,-0.124,-1.050,-37.832,39.747,20.434
1747065341.45,-0.011,-0.105,-0.046,-0.584,0.047,-1.076,-39.081,39.238,19.723
1747065341.47,-0.018,-0.080,-0.032,-0.631,0.147,-1.053,-40.389,38.966,19.072
1747065341.49,-0.023,-0.026,-0.077,-0.549,-0.019,-1.083,-41.682,38.604,18.384
1747065341.51,-0.024,0.007,-0.067,-0.485,-0.224,-1.135,-42.925,37.880,17.524
1747065341.53,0.017,0.011,-0.083,-0.427,-0.286,-1.124,-44.125,36.912,16.549
1747065341.55,0.028,0.002,-0.060,-0.464,-0.417,-1.145,-45.298,35.763,15.503
1747065341.57,0.012,-0.011,-0.031,-0.441,-0.456,-1.132,-46.467,34.489,14.393
1747065341.59,0.014,0.009,-0.035,-0.451,-0.618,-1.096,-47.593,33.052,13.259
1747065341.61,0.027,0.028,-0.047,-0.460,-0.657,-1.065,-48.696,31.444,12.107
1747065341.63,0.040,0.014,-0.013,-0.523,-0.561,-1.026,-49.781,29.885,10.968
1747065341.65,0.040,-0.009,0.015,-0.563,-0.511,-1.012,-50.888,28.434,9.864
1747065341.67,0.031,-0.029,0.001,-0.570,-0.615,-1.045,-52.011,26.866,8.676
1747065341.69,0.030,-0.056,0.003,-0.564,-0.659,-1.005,-53.106,25.109,7.390
1747065341.71,0.013,-0.047,0.001,-0.628,-0.707,-0.944,-54.179,23.327,6.150
1747065341.73,0.003,-0.036,-0.047,-0.586,-0.622,-0.909,-55.235,21.555,4.923
1747065341.75,0.020,-0.017,-0.027,-0.565,-0.634,-0.877,-56.208,19.793,3.639
1747065341.77,0.035,-0.018,-0.016,-0.570,-0.762,-0.874,-57.141,17.884,2.301
1747065341.79,0.056,-0.034,-0.041,-0.538,-0.821,-0.882,-58.034,15.745,0.845
1747065341.81,0.071,-0.036,-0.020,-0.602,-0.898,-0.828,-58.917,13.485,-0.650
1747065341.83,0.058,-0.042,-0.005,-0.558,-0.966,-0.782,-59.759,11.168,-2.120
1747065341.85,0.042,-0.048,0.006,-0.596,-1.069,-0.749,-60.552,8.690,-3.628
1747065341.87,0.048,-0.065,0.029,-0.600,-0.987,-0.670,-61.332,6.213,-5.114
1747065341.89,0.039,-0.047,0.026,-0.667,-0.917,-0.602,-62.127,3.903,-6.492
1747065341.91,0.015,-0.034,0.002,-0.702,-0.827,-0.564,-62.923,1.713,-7.853
1747065341.93,0.003,-0.030,0.006,-0.705,-0.903,-0.553,-63.746,-0.505,-9.246
1747065341.95,0.013,-0.045,0.010,-0.751,-1.006,-0.551,-64.549,-2.966,-10.748
1747065341.97,0.024,-0.072,0.018,-0.791,-0.991,-0.543,-65.381,-5.591,-12.393
1747065341.99,0.049,-0.086,0.004,-0.834,-1.034,-0.448,-66.236,-8.251,-14.045
1747065342.01,0.061,-0.082,0.012,-0.805,-1.172,-0.361,-67.092,-10.917,-15.587
1747065342.03,0.047,-0.070,0.018,-0.718,-1.299,-0.308,-67.856,-13.671,-17.036
1747065342.05,0.023,-0.065,0.005,-0.809,-1.388,-0.241,-68.590,-16.527,-18.456
1747065342.07,0.002,-0.082,-0.030,-0.821,-1.385,-0.216,-69.431,-19.520,-19.954
1747065342.09,-0.008,-0.092,-0.014,-0.650,-1.325,-0.151,-70.127,-22.449,-21.423
1747065342.11,0.025,-0.061,0.061,-0.812,-1.154,0.034,-70.819,-24.924,-22.558
1747065342.13,-0.005,-0.021,0.044,-1.105,-1.244,0.081,-71.871,-27.482,-23.831
1747065342.15,-0.034,-0.024,0.038,-0.899,-1.208,-0.078,-72.891,-30.707,-25.715
1747065342.17,-0.010,-0.019,0.070,-0.880,-0.980,-0.089,-73.669,-33.984,-27.840
1747065342.19,-0.018,0.003,0.013,-0.891,-0.879,-0.146,-74.430,-37.480,-30.386
1747065342.21,-0.030,-0.013,-0.012,-0.818,-0.785,-0.207,-75.047,-41.312,-33.356
1747065342.23,-0.033,-0.079,-0.011,-0.748,-0.601,-0.163,-75.563,-45.037,-36.392
1747065342.25,-0.079,-0.119,-0.086,-0.647,-0.395,-0.150,-75.977,-48.355,-39.231
1747065342.27,-0.127,-0.082,-0.157,-0.718,-0.212,-0.092,-76.357,-51.431,-42.039
1747065342.29,-0.084,-0.029,-0.114,-0.770,-0.036,-0.042,-76.824,-54.673,-45.232
1747065342.31,0.000,-0.020,-0.046,-0.677,-0.002,-0.032,-77.256,-57.801,-48.432
1747065342.33,0.026,-0.003,-0.038,-0.513,0.004,-0.044,-77.561,-60.517,-51.213
1747065342.35,0.042,0.008,-0.029,-0.481,0.054,0.023,-77.808,-62.771,-53.555
1747065342.37,0.050,0.010,-0.019,-0.525,-0.047,0.104,-78.128,-65.001,-55.866
1747065342.39,0.031,-0.005,-0.043,-0.419,-0.231,0.070,-78.448,-67.390,-58.138
1747065342.41,0.060,-0.029,0.002,-0.346,-0.329,0.096,-78.676,-69.507,-59.960
1747065342.43,0.091,-0.065,0.097,-0.379,-0.392,0.196,-78.970,-71.627,-61.702
1747065342.45,0.041,-0.066,0.094,-0.329,-0.505,0.165,-79.301,-73.816,-63.420
1747065342.47,-0.057,-0.008,0.019,-0.316,-0.564,0.046,-79.513,-76.177,-65.174
1747065342.49,-0.089,0.025,0.009,-0.310,-0.390,-0.010,-79.604,-78.634,-67.103
1747065342.51,-0.097,0.045,0.022,-0.240,-0.131,0.013,-79.659,-80.629,-68.838
1747065342.53,-0.125,0.033,-0.014,-0.161,-0.071,0.058,-79.730,-81.936,-70.072
1747065342.55,-0.150,0.012,-0.058,-0.118,-0.075,0.089,-79.843,-82.816,-70.878
1747065342.57,-0.130,0.041,-0.053,-0.049,0.047,0.006,-79.911,-83.349,-71.393
1747065342.59,-0.061,0.045,-0.005,0.051,0.172,-0.030,-79.887,-83.216,-71.395
1747065342.61,-0.014,0.016,0.013,0.098,0.165,-0.032,-79.835,-82.533,-70.905
1747065342.63,0.020,-0.011,0.010,0.097,0.065,0.002,-79.796,-81.788,-70.278
1747065342.65,0.037,-0.014,0.036,0.115,0.056,0.029,-79.787,-81.064,-69.606
1747065342.67,0.015,-0.015,0.066,0.122,0.091,0.064,-79.817,-80.150,-68.767
1747065342.69,-0.035,-0.013,0.076,0.099,0.014,0.067,-79.867,-79.307,-67.983
1747065342.71,-0.068,-0.008,0.041,0.061,-0.092,0.062,-79.924,-78.794,-67.407
1747065342.73,-0.062,-0.012,0.025,0.067,0.027,0.041,-79.971,-78.442,-66.988
1747065342.75,-0.040,-0.022,0.039,0.092,0.173,0.047,-80.003,-77.782,-66.452
1747065342.77,-0.042,-0.014,0.035,0.084,0.135,0.072,-80.046,-77.053,-65.892
1747065342.79,-0.060,0.006,0.022,0.131,0.110,0.072,-80.091,-76.244,-65.206
1747065342.81,-0.068,0.011,-0.009,0.210,0.185,0.054,-80.098,-74.994,-64.093
1747065342.83,-0.060,-0.001,-0.011,0.269,0.286,0.034,-80.060,-73.210,-62.561
1747065342.85,-0.041,-0.003,-0.013,0.327,0.282,0.026,-79.978,-71.062,-60.710
1747065342.87,-0.029,0.007,0.004,0.346,0.242,0.033,-79.866,-68.795,-58.707
1747065342.89,-0.024,0.001,-0.005,0.397,0.227,0.034,-79.741,-66.289,-56.423
1747065342.91,-0.002,-0.019,0.014,0.422,0.291,0.046,-79.581,-63.558,-53.948
1747065342.93,0.010,-0.025,0.056,0.437,0.300,0.055,-79.405,-60.741,-51.437
1747065342.95,0.012,-0.021,0.037,0.509,0.183,0.043,-79.180,-57.884,-48.817
1747065342.97,0.021,-0.027,0.024,0.590,0.174,0.033,-78.858,-54.855,-45.919
1747065342.99,0.027,-0.031,0.084,0.603,0.280,0.060,-78.494,-51.713,-42.982
1747065343.01,0.006,-0.030,0.029,0.698,0.276,0.080,-78.084,-48.395,-39.934
1747065343.03,-0.021,-0.012,-0.077,0.832,0.239,0.053,-77.538,-44.906,-36.652
1747065343.05,-0.042,-0.008,-0.032,0.905,0.263,0.067,-76.863,-41.484,-33.449
1747065343.07,-0.075,0.002,0.008,0.867,0.264,0.045,-76.112,-38.135,-30.322
1747065343.09,-0.095,-0.000,0.075,0.838,0.454,0.014,-75.374,-35.420,-27.907
1747065343.11,-0.103,0.005,0.089,0.905,0.657,-0.043,-74.528,-32.689,-25.772
1747065343.13,-0.111,-0.023,0.032,0.858,0.376,-0.046,-73.645,-30.418,-24.041
1747065343.15,-0.083,-0.014,0.009,0.922,0.371,-0.026,-72.736,-28.492,-22.423
1747065343.17,-0.066,0.026,0.071,0.803,0.607,-0.032,-71.848,-26.589,-21.016
1747065343.19,-0.067,0.032,0.064,0.905,0.822,-0.124,-70.959,-24.759,-19.937
1747065343.21,-0.067,0.004,-0.009,0.974,0.781,-0.154,-69.885,-23.002,-19.081
1747065343.23,-0.058,-0.022,-0.041,0.963,0.596,-0.158,-68.791,-21.544,-18.359
1747065343.25,-0.064,-0.020,-0.021,0.803,1.013,-0.145,-67.773,-20.194,-17.820
1747065343.27,-0.013,-0.008,0.030,0.582,1.177,-0.055,-66.989,-18.543,-17.432
1747065343.29,0.093,-0.025,0.059,0.619,1.276,0.064,-66.374,-16.665,-16.924
1747065343.31,0.122,-0.017,0.048,0.825,1.007,0.162,-65.586,-14.515,-16.060
1747065343.33,0.090,-0.015,-0.087,0.685,0.745,0.223,-64.803,-12.669,-15.045
1747065343.35,0.039,-0.015,-0.054,0.607,0.725,0.197,-64.134,-11.001,-14.148
1747065343.37,0.021,-0.032,-0.020,0.536,0.801,0.230,-63.542,-9.441,-13.360
1747065343.39,0.029,-0.035,-0.025,0.699,0.659,0.267,-62.911,-7.802,-12.498
1747065343.41,0.026,-0.044,-0.049,0.863,0.394,0.268,-62.043,-6.413,-11.580
1747065343.42,-0.031,-0.051,-0.096,0.816,0.270,0.187,-61.102,-5.377,-10.835
1747065343.44,-0.040,-0.065,-0.059,0.732,0.397,0.182,-60.243,-4.543,-10.281
1747065343.46,0.047,-0.046,0.067,0.698,0.654,0.297,-59.444,-3.373,-9.633
1747065343.48,0.075,-0.043,0.026,0.771,0.488,0.394,-58.638,-1.942,-8.789
1747065343.50,0.074,-0.041,-0.032,0.758,0.254,0.449,-57.762,-0.719,-7.803
1747065343.52,0.003,-0.029,-0.046,0.727,0.259,0.360,-56.903,0.266,-6.939
1747065343.54,0.004,-0.051,-0.014,0.638,0.571,0.330,-56.129,1.300,-6.253
1747065343.56,0.016,-0.021,0.058,0.778,0.566,0.346,-55.331,2.502,-5.619
1747065343.58,0.021,-0.005,0.039,0.973,0.435,0.380,-54.304,3.602,-5.001
1747065343.60,-0.038,-0.019,-0.007,0.904,0.253,0.353,-53.186,4.436,-4.423
1747065343.62,-0.057,-0.065,-0.043,0.785,0.444,0.363,-52.197,5.246,-3.894
1747065343.64,0.004,-0.029,0.057,0.666,0.498,0.424,-51.329,6.250,-3.311
1747065343.66,-0.004,0.016,0.042,0.704,0.511,0.459,-50.499,7.329,-2.638
1747065343.68,0.005,0.044,0.014,0.851,0.605,0.413,-49.552,8.450,-2.049
1747065343.70,-0.041,0.034,0.022,0.843,0.394,0.363,-48.514,9.331,-1.636
1747065343.72,-0.006,-0.064,-0.011,0.806,0.477,0.468,-47.500,10.129,-1.170
1747065343.74,0.086,-0.062,0.031,0.676,0.548,0.487,-46.571,11.154,-0.608
1747065343.76,0.025,-0.010,0.004,0.685,0.493,0.451,-45.713,12.110,-0.078
1747065343.78,0.004,0.044,0.053,0.650,0.578,0.374,-44.865,13.046,0.346
1747065343.80,0.004,0.021,-0.015,0.724,0.428,0.466,-43.999,13.874,0.709
1747065343.82,0.039,-0.032,-0.026,0.704,0.438,0.598,-43.043,14.745,1.266
1747065343.84,0.036,-0.037,-0.017,0.663,0.429,0.528,-42.129,15.652,1.838
1747065343.86,0.014,-0.006,0.027,0.743,0.345,0.517,-41.204,16.412,2.295
1747065343.88,0.015,0.015,0.014,0.804,0.163,0.594,-40.169,16.994,2.751
1747065343.90,0.021,-0.030,-0.027,0.821,0.222,0.628,-39.061,17.516,3.267
1747065343.92,0.038,-0.070,0.024,0.722,0.326,0.572,-38.006,18.146,3.752
1747065343.94,0.044,-0.040,0.017,0.766,0.304,0.570,-37.014,18.794,4.200
1747065343.96,0.017,0.033,-0.011,0.757,0.261,0.574,-35.965,19.334,4.598
1747065343.98,-0.024,0.063,-0.020,0.666,0.314,0.568,-34.981,19.904,5.021
1747065344.00,-0.037,0.044,0.021,0.607,0.302,0.605,-34.083,20.520,5.474
1747065344.02,-0.055,-0.017,-0.014,0.592,0.493,0.586,-33.195,21.228,5.957
1747065344.04,-0.063,-0.054,-0.058,0.574,0.573,0.496,-32.338,22.038,6.348
1747065344.06,-0.013,-0.001,-0.002,0.506,0.523,0.482,-31.565,22.845,6.676
1747065344.08,-0.075,0.104,0.014,0.495,0.320,0.518,-30.853,23.450,6.971
1747065344.10,0.036,-0.030,0.005,0.455,0.421,0.632,-30.069,24.120,7.439
1747065344.12,-0.020,-0.025,-0.049,0.401,0.506,0.630,-29.329,24.900,7.964
1747065344.14,-0.029,-0.072,-0.095,0.324,0.526,0.590,-28.652,25.738,8.497
1747065344.16,-0.002,-0.102,-0.014,0.296,0.542,0.493,-28.071,26.578,8.948
1747065344.18,0.065,-0.079,0.052,0.378,0.378,0.515,-27.480,27.294,9.332
1747065344.20,0.106,-0.025,0.006,0.388,0.236,0.578,-26.795,27.800,9.712
1747065344.22,0.075,-0.015,-0.063,0.294,0.261,0.631,-26.106,28.286,10.196
1747065344.24,-0.003,0.006,-0.059,0.259,0.251,0.611,-25.507,28.832,10.716
1747065344.26,0.019,-0.001,-0.094,0.216,0.208,0.604,-24.929,29.290,11.236
1747065344.28,0.049,0.051,-0.022,0.163,0.212,0.670,-24.398,29.765,11.800
1747065344.30,-0.029,0.052,-0.038,0.134,0.127,0.780,-23.827,30.233,12.504
1747065344.32,-0.063,-0.021,-0.077,0.144,0.165,0.702,-23.259,30.700,13.236
1747065344.34,-0.007,-0.098,-0.072,0.224,0.052,0.498,-22.733,31.033,13.752
1747065344.36,0.029,-0.026,-0.078,0.284,-0.026,0.469,-22.205,31.150,14.090
1747065344.38,-0.108,0.068,-0.049,0.217,0.067,0.537,-21.639,31.292,14.444
1747065344.40,-0.095,-0.020,-0.088,0.058,0.368,0.533,-21.189,31.734,14.941
1747065344.42,-0.012,-0.092,-0.052,0.051,0.360,0.404,-20.861,32.329,15.385
1747065344.44,0.104,-0.032,-0.088,0.015,0.252,0.379,-20.591,32.805,15.758
1747065344.46,0.163,0.023,-0.137,-0.078,0.209,0.431,-20.365,33.191,16.187
1747065344.48,0.074,0.068,-0.052,-0.172,0.256,0.470,-20.201,33.672,16.729
1747065344.50,-0.032,0.074,-0.101,-0.305,0.192,0.465,-20.129,34.123,17.362
1747065344.52,-0.019,0.029,-0.123,-0.348,0.323,0.419,-20.151,34.651,18.035
1747065344.54,0.001,0.027,-0.059,-0.399,0.409,0.363,-20.245,35.298,18.683
1747065344.56,0.028,0.032,-0.110,-0.435,0.342,0.316,-20.406,35.950,19.319
1747065344.58,0.045,0.055,-0.168,-0.494,0.295,0.235,-20.660,36.521,19.936
1747065344.60,0.004,0.092,-0.180,-0.469,0.301,0.119,-20.967,37.068,20.453
1747065344.62,-0.036,0.076,-0.159,-0.469,0.221,0.063,-21.335,37.514,20.882
1747065344.64,-0.008,0.052,-0.168,-0.454,0.208,-0.012,-21.732,37.898,21.253
1747065344.66,0.044,-0.003,-0.113,-0.499,0.195,-0.029,-22.174,38.249,21.595
1747065344.68,0.047,-0.060,0.002,-0.554,0.197,-0.066,-22.674,38.620,21.955
1747065344.70,0.056,-0.006,-0.059,-0.659,0.188,-0.169,-23.297,38.961,22.313
1747065344.72,0.038,0.070,-0.092,-0.700,0.228,-0.218,-24.051,39.366,22.665
1747065344.74,0.007,0.044,-0.098,-0.738,0.119,-0.237,-24.844,39.681,23.008
1747065344.76,0.022,-0.014,-0.017,-0.771,0.154,-0.204,-25.668,40.018,23.407
1747065344.78,0.022,-0.026,0.003,-0.768,0.183,-0.209,-26.495,40.395,23.855
1747065344.80,0.020,-0.005,-0.045,-0.783,0.144,-0.280,-27.327,40.763,24.249
1747065344.82,0.010,-0.022,-0.014,-0.846,0.245,-0.297,-28.263,41.151,24.654
1747065344.84,0.021,-0.021,-0.009,-0.919,0.356,-0.288,-29.232,41.746,25.124
1747065344.86,0.004,0.004,-0.018,-0.909,0.333,-0.303,-30.249,42.410,25.663
1747065344.88,-0.017,-0.000,-0.066,-0.726,0.205,-0.384,-31.207,42.924,26.070
1747065344.90,-0.023,-0.009,-0.076,-0.616,0.079,-0.499,-32.093,43.174,26.233
1747065344.92,0.014,-0.011,-0.101,-0.617,0.166,-0.539,-33.029,43.317,26.301
1747065344.94,0.023,0.020,-0.136,-0.627,0.150,-0.598,-33.982,43.546,26.327
1747065344.96,-0.005,-0.014,-0.136,-0.494,0.061,-0.694,-34.960,43.604,26.227
1747065344.98,-0.030,-0.055,-0.109,-0.429,0.015,-0.809,-35.930,43.447,25.902
1747065345.00,-0.033,-0.104,-0.089,-0.438,0.127,-0.858,-36.934,43.252,25.443
1747065345.02,-0.035,-0.108,-0.031,-0.518,0.263,-0.823,-38.002,43.227,25.045
1747065345.04,-0.047,-0.078,-0.013,-0.594,0.268,-0.777,-39.086,43.359,24.745
1747065345.06,-0.016,-0.065,-0.024,-0.624,0.328,-0.656,-40.143,43.605,24.589
1747065345.08,0.005,-0.083,-0.015,-0.668,0.391,-0.563,-41.171,44.016,24.616
1747065345.10,0.030,-0.088,-0.042,-0.661,0.365,-0.527,-42.134,44.553,24.737
1747065345.12,0.021,-0.043,-0.039,-0.737,0.293,-0.603,-43.149,45.008,24.873
1747065345.14,0.049,-0.037,-0.039,-0.759,0.438,-0.623,-44.259,45.519,25.037
1747065345.16,0.051,-0.029,-0.039,-0.782,0.505,-0.638,-45.380,46.214,25.215
1747065345.18,0.019,-0.033,-0.026,-0.790,0.337,-0.704,-46.560,46.830,25.400
1747065345.20,0.031,-0.059,-0.002,-0.694,0.270,-0.679,-47.721,47.256,25.519
1747065345.22,0.045,-0.046,-0.023,-0.688,0.278,-0.700,-48.817,47.614,25.576
1747065345.24,0.074,-0.023,-0.067,-0.747,0.326,-0.740,-49.986,48.037,25.685
1747065345.26,0.022,-0.012,-0.020,-0.658,0.183,-0.791,-51.174,48.374,25.721
1747065345.28,0.018,-0.019,-0.012,-0.610,0.158,-0.843,-52.341,48.441,25.577
1747065345.30,0.032,-0.023,-0.011,-0.672,0.206,-0.882,-53.572,48.495,25.399
1747065345.32,0.046,-0.002,-0.064,-0.564,0.257,-0.869,-54.800,48.608,25.191
1747065345.34,0.031,0.053,-0.090,-0.552,-0.007,-0.911,-55.969,48.468,24.824
1747065345.36,0.036,0.073,-0.087,-0.506,-0.069,-0.949,-57.171,48.015,24.377
1747065345.38,0.027,0.078,-0.090,-0.398,-0.113,-1.011,-58.348,47.341,23.683
1747065345.40,-0.019,0.065,-0.085,-0.344,-0.317,-1.095,-59.510,46.239,22.677
1747065345.42,-0.049,0.022,-0.088,-0.322,-0.429,-1.124,-60.686,44.712,21.424
1747065345.44,-0.044,-0.013,-0.098,-0.296,-0.463,-1.080,-61.816,42.997,20.043
1747065345.46,-0.034,-0.019,-0.103,-0.267,-0.531,-1.058,-62.863,41.118,18.557
1747065345.48,-0.014,-0.030,-0.084,-0.260,-0.619,-1.094,-63.885,38.973,16.892
1747065345.50,0.020,-0.046,-0.056,-0.295,-0.819,-1.106,-64.903,36.493,15.033
1747065345.52,0.032,-0.050,-0.023,-0.372,-1.116,-1.063,-65.926,33.629,13.098
1747065345.54,0.055,-0.037,0.061,-0.476,-1.294,-0.950,-66.951,30.604,11.322
1747065345.56,0.041,-0.017,0.086,-0.482,-1.156,-0.892,-67.948,27.638,9.658
1747065345.58,0.026,0.007,0.047,-0.498,-1.061,-0.888,-68.874,24.689,7.813
1747065345.60,0.020,0.018,0.066,-0.561,-1.235,-0.857,-69.837,21.599,5.909
1747065345.62,0.023,-0.000,0.044,-0.563,-1.353,-0.807,-70.764,18.220,3.893
1747065345.64,0.015,-0.050,0.071,-0.627,-1.326,-0.726,-71.665,14.778,1.891
1747065345.66,-0.014,-0.088,0.029,-0.564,-1.092,-0.715,-72.523,11.398,-0.198
1747065345.68,0.009,-0.087,-0.015,-0.494,-0.959,-0.696,-73.249,7.992,-2.571
1747065345.70,0.012,-0.078,-0.015,-0.665,-1.166,-0.629,-73.956,4.453,-5.019
1747065345.72,-0.036,-0.074,-0.025,-0.815,-1.409,-0.573,-74.880,0.690,-7.387
1747065345.74,-0.109,-0.075,-0.116,-0.436,-1.564,-0.553,-75.591,-3.552,-9.999
1747065345.76,-0.084,-0.037,-0.063,-0.427,-1.504,-0.473,-75.975,-7.805,-12.577
1747065345.78,0.002,-0.043,0.020,-0.673,-1.614,-0.350,-76.520,-11.875,-14.954
1747065345.80,0.028,-0.070,0.030,-0.593,-1.704,-0.391,-77.142,-16.296,-17.501
1747065345.82,0.079,-0.067,0.074,-0.602,-1.322,-0.403,-77.623,-20.934,-20.474
1747065345.84,0.092,-0.051,0.095,-0.809,-1.027,-0.293,-78.197,-25.482,-23.762
1747065345.86,0.108,-0.062,0.094,-0.844,-0.985,-0.239,-78.922,-30.096,-27.314
1747065345.88,0.049,-0.079,0.020,-0.749,-0.840,-0.205,-79.553,-34.931,-31.148
1747065345.90,0.000,-0.093,-0.058,-0.609,-0.561,-0.105,-80.062,-39.107,-34.579
1747065345.92,-0.028,-0.064,-0.064,-0.487,-0.387,-0.058,-80.491,-42.406,-37.405
1747065345.94,-0.050,-0.050,-0.083,-0.275,-0.531,-0.070,-80.745,-45.053,-39.564
1747065345.96,-0.052,-0.042,-0.062,-0.286,-0.551,-0.024,-80.910,-47.267,-41.158
1747065345.98,-0.086,-0.015,-0.108,-0.342,-0.457,-0.034,-81.143,-49.704,-43.047
1747065346.00,-0.056,0.007,-0.078,-0.254,-0.420,-0.080,-81.306,-52.217,-45.083
1747065346.02,0.014,0.023,0.028,-0.235,-0.364,-0.022,-81.416,-54.364,-46.796
1747065346.04,0.028,0.029,0.079,-0.244,-0.321,0.060,-81.593,-56.176,-48.238
1747065346.06,-0.014,0.021,0.028,-0.144,-0.293,0.046,-81.779,-57.602,-49.332
1747065346.08,-0.060,-0.004,-0.034,-0.045,-0.286,0.006,-81.843,-58.385,-49.777
1747065346.10,-0.055,-0.022,-0.010,-0.143,-0.218,0.038,-81.915,-59.184,-50.288
1747065346.12,-0.039,-0.020,0.015,-0.223,-0.183,0.015,-82.055,-60.631,-51.518
1747065346.14,-0.034,-0.014,0.023,-0.177,-0.101,-0.020,-82.168,-62.315,-53.051
1747065346.16,-0.047,-0.019,0.021,-0.041,-0.026,-0.062,-82.183,-63.342,-54.015
1747065346.18,-0.062,-0.005,-0.003,-0.018,-0.088,-0.060,-82.119,-63.757,-54.379
1747065346.20,-0.073,-0.006,-0.024,-0.072,-0.103,0.006,-82.103,-64.380,-54.881
1747065346.22,-0.053,-0.024,0.002,-0.070,-0.019,0.054,-82.162,-65.001,-55.437
1747065346.24,-0.041,-0.010,0.019,-0.034,-0.030,0.032,-82.215,-65.393,-55.815
1747065346.26,-0.054,0.022,-0.020,-0.029,-0.060,0.003,-82.214,-65.713,-56.075
1747065346.28,-0.056,0.029,-0.014,-0.029,0.020,-0.027,-82.169,-66.060,-56.391
1747065346.30,-0.027,0.022,0.010,-0.004,0.127,-0.018,-82.113,-66.277,-56.696
1747065346.32,0.002,-0.002,0.031,0.037,0.159,0.036,-82.096,-66.086,-56.681
1747065346.33,-0.002,-0.014,0.029,0.043,0.036,0.052,-82.107,-65.520,-56.228
1747065346.35,-0.023,-0.009,0.007,0.009,-0.053,0.033,-82.112,-65.194,-55.882
1747065346.37,-0.050,-0.022,-0.010,0.045,-0.077,-0.002,-82.110,-65.194,-55.798
1747065346.39,-0.060,-0.038,0.015,0.134,-0.020,-0.014,-82.056,-64.708,-55.247
1747065346.41,-0.058,-0.027,0.025,0.140,0.044,0.040,-81.995,-63.693,-54.238
1747065346.43,-0.060,-0.004,0.005,0.143,0.016,0.062,-81.985,-62.540,-53.117
1747065346.45,-0.045,0.007,-0.011,0.255,-0.045,0.036,-81.911,-61.076,-51.614
1747065346.47,-0.016,0.012,-0.015,0.340,-0.110,0.050,-81.757,-59.047,-49.477
1747065346.49,-0.015,0.009,-0.027,0.401,-0.180,0.065,-81.578,-56.800,-47.029
1747065346.51,-0.043,0.008,-0.017,0.558,-0.165,0.008,-81.297,-54.017,-44.000
1747065346.53,-0.073,0.013,0.019,0.625,-0.111,-0.073,-80.843,-50.847,-40.641
1747065346.55,-0.106,0.001,0.001,0.529,-0.188,-0.075,-80.333,-48.292,-37.879
1747065346.57,-0.126,-0.002,0.024,0.473,-0.083,-0.049,-79.915,-46.426,-35.798
1747065346.59,-0.099,-0.007,0.112,0.599,0.285,-0.081,-79.433,-44.213,-33.655
1747065346.61,-0.074,-0.021,0.162,0.705,0.558,-0.076,-78.821,-41.433,-31.340
1747065346.63,-0.054,-0.024,0.103,0.798,0.601,-0.031,-78.125,-38.288,-28.815
1747065346.65,-0.028,-0.016,0.025,0.891,0.631,-0.024,-77.326,-35.002,-26.177
1747065346.67,-0.032,-0.007,0.001,0.738,0.585,-0.026,-76.517,-32.144,-23.965
1747065346.69,-0.040,-0.006,0.022,0.682,0.554,-0.055,-75.832,-30.053,-22.459
1747065346.71,-0.029,-0.007,0.060,1.038,0.777,-0.088,-74.943,-27.781,-20.887
1747065346.73,-0.020,-0.022,0.126,1.009,0.763,-0.000,-73.820,-25.134,-19.104
1747065346.75,-0.023,0.007,0.054,0.846,0.401,0.068,-72.904,-22.903,-17.486
1747065346.77,-0.057,0.001,-0.079,0.900,0.248,0.036,-71.998,-21.203,-16.028
1747065346.79,-0.058,0.006,0.035,0.835,0.632,-0.025,-71.069,-19.664,-14.919
1747065346.81,-0.013,-0.012,0.073,0.886,0.972,-0.064,-70.147,-17.991,-14.134
1747065346.83,0.043,-0.033,0.059,0.978,0.954,-0.012,-69.086,-16.144,-13.388
1747065346.85,0.056,-0.023,-0.094,0.885,0.456,0.186,-68.099,-14.426,-12.368
1747065346.87,0.068,0.013,0.019,0.918,1.005,0.239,-67.146,-12.414,-11.076
1747065346.89,0.015,-0.025,0.041,0.816,0.997,0.131,-66.230,-10.272,-10.041
1747065346.91,-0.013,-0.065,-0.011,1.006,1.103,0.077,-65.253,-8.513,-9.399
1747065346.93,0.011,0.007,-0.012,0.960,0.909,0.228,-64.087,-6.650,-8.642
1747065346.95,-0.002,0.071,-0.051,0.785,0.518,0.282,-63.161,-5.043,-7.732
1747065346.97,-0.027,0.008,-0.019,0.712,0.769,0.187,-62.327,-3.690,-6.997
1747065346.99,-0.006,-0.093,-0.029,0.741,0.821,0.182,-61.526,-2.297,-6.494
1747065347.01,0.059,-0.090,-0.067,0.966,0.543,0.261,-60.574,-0.980,-5.913
1747065347.03,0.071,0.016,-0.056,1.141,0.229,0.240,-59.346,-0.039,-5.287
1747065347.05,0.018,0.047,-0.035,0.933,0.308,0.096,-58.137,0.571,-4.939
1747065347.07,-0.004,-0.106,-0.116,0.645,0.251,0.237,-57.246,1.076,-4.647
1747065347.09,0.087,-0.143,0.119,0.500,0.650,0.450,-56.607,2.213,-3.959
1747065347.11,0.134,-0.130,-0.028,0.565,0.323,0.507,-55.969,3.616,-2.978
1747065347.13,0.136,0.010,0.012,0.803,0.259,0.373,-55.167,4.590,-2.205
1747065347.15,0.024,0.060,-0.016,0.836,0.163,0.245,-54.178,5.188,-1.738
1747065347.17,-0.051,-0.039,-0.054,0.804,0.221,0.306,-53.223,5.662,-1.397
1747065347.19,-0.013,-0.108,-0.017,0.691,0.377,0.472,-52.322,6.480,-0.802
1747065347.21,0.030,-0.076,0.001,0.794,0.304,0.467,-51.427,7.471,-0.079
1747065347.23,0.006,-0.060,-0.000,0.765,0.360,0.405,-50.458,8.266,0.493
1747065347.25,0.001,-0.029,0.019,0.704,0.359,0.389,-49.568,9.086,0.992
1747065347.27,-0.026,0.030,-0.013,0.752,0.183,0.395,-48.684,9.731,1.452
1747065347.29,-0.054,0.019,-0.031,0.790,0.347,0.386,-47.733,10.363,1.878
1747065347.31,-0.050,-0.024,-0.057,0.814,0.318,0.373,-46.751,11.007,2.255
1747065347.33,0.002,-0.010,0.033,0.802,0.276,0.374,-45.760,11.627,2.590
1747065347.35,0.019,0.025,0.036,0.705,0.296,0.445,-44.805,12.198,2.974
1747065347.37,0.005,0.035,0.039,0.456,0.527,0.499,-44.050,13.024,3.525
1747065347.39,0.009,0.038,0.017,0.546,0.594,0.471,-43.384,14.088,4.104
1747065347.41,0.018,-0.006,0.042,0.659,0.536,0.436,-42.587,15.050,4.541
1747065347.43,0.014,-0.051,0.002,0.683,0.556,0.453,-41.704,15.921,4.923
1747065347.45,0.013,-0.066,-0.008,0.585,0.640,0.442,-40.853,16.844,5.302
1747065347.47,0.014,-0.024,0.022,0.416,0.680,0.455,-40.153,17.879,5.716
1747065347.49,0.022,0.071,0.004,0.320,0.655,0.431,-39.608,18.940,6.173
1747065347.51,0.047,0.083,0.041,0.465,0.606,0.497,-39.034,19.921,6.618
1747065347.53,0.021,-0.008,-0.019,0.529,0.490,0.481,-38.288,20.787,7.043
1747065347.55,-0.025,-0.032,-0.056,0.563,0.360,0.459,-37.506,21.483,7.383
1747065347.57,-0.044,-0.031,-0.067,0.514,0.459,0.426,-36.753,22.126,7.685
1747065347.59,-0.042,-0.032,-0.072,0.493,0.435,0.412,-36.039,22.824,7.969
1747065347.61,-0.038,0.006,-0.007,0.522,0.304,0.381,-35.337,23.401,8.205
1747065347.63,-0.007,-0.009,-0.031,0.625,0.211,0.458,-34.535,23.780,8.411
1747065347.65,-0.044,-0.031,-0.049,0.562,0.343,0.373,-33.719,24.209,8.604
1747065347.67,-0.033,-0.006,-0.055,0.552,0.239,0.392,-32.958,24.612,8.745
1747065347.69,0.017,0.018,-0.024,0.587,0.228,0.478,-32.172,25.014,8.968
1747065347.71,0.024,-0.013,-0.008,0.581,0.209,0.416,-31.337,25.355,9.191
1747065347.73,0.009,-0.024,-0.016,0.531,0.167,0.381,-30.570,25.651,9.342
1747065347.75,-0.002,0.022,-0.085,0.489,0.116,0.494,-29.826,25.914,9.557
1747065347.77,-0.041,0.048,-0.079,0.451,0.177,0.456,-29.119,26.255,9.863
1747065347.79,-0.056,-0.051,-0.025,0.603,0.119,0.406,-28.362,26.533,10.066
1747065347.81,-0.073,-0.111,0.002,0.651,0.187,0.329,-27.525,26.737,10.121
1747065347.83,-0.015,-0.073,0.031,0.671,0.211,0.262,-26.700,26.960,10.079
1747065347.85,0.049,-0.016,-0.017,0.612,0.200,0.249,-25.908,27.148,9.989
1747065347.87,0.103,0.024,-0.025,0.583,0.082,0.301,-25.168,27.305,9.957
1747065347.89,0.129,0.020,-0.012,0.528,-0.002,0.359,-24.413,27.338,9.990
1747065347.91,0.076,0.004,0.010,0.362,0.146,0.482,-23.754,27.499,10.198
1747065347.93,0.014,-0.046,0.035,0.267,0.311,0.486,-23.183,27.902,10.557
1747065347.95,0.004,-0.081,0.077,0.232,0.324,0.480,-22.672,28.423,10.942
1747065347.97,0.049,-0.082,-0.030,0.249,0.225,0.357,-22.198,28.852,11.266
1747065347.99,0.155,-0.003,-0.133,0.188,0.188,0.350,-21.799,29.179,11.502
1747065348.01,0.092,0.072,-0.064,0.179,0.107,0.440,-21.393,29.461,11.816
1747065348.03,-0.049,0.057,-0.051,0.104,0.275,0.503,-20.978,29.809,12.235
1747065348.05,-0.151,0.000,-0.069,0.050,0.401,0.412,-20.633,30.373,12.697
1747065348.07,-0.059,-0.007,-0.055,0.082,0.370,0.322,-20.369,30.875,13.036
1747065348.09,0.073,-0.020,-0.064,0.049,0.206,0.275,-20.148,31.302,13.296
1747065348.11,0.131,-0.020,-0.047,-0.011,0.115,0.337,-19.943,31.577,13.588
1747065348.13,0.029,-0.023,-0.023,-0.095,0.102,0.401,-19.773,31.802,14.004
1747065348.15,0.018,-0.106,-0.003,-0.189,0.271,0.440,-19.646,32.224,14.544
1747065348.17,0.022,-0.074,-0.033,-0.223,0.350,0.398,-19.591,32.759,15.111
1747065348.19,0.103,-0.066,-0.065,-0.317,0.348,0.413,-19.604,33.343,15.683
1747065348.21,0.080,-0.008,-0.024,-0.385,0.321,0.470,-19.656,33.969,16.376
1747065348.23,0.044,0.016,0.002,-0.475,0.272,0.453,-19.760,34.555,17.127
1747065348.25,0.045,0.050,-0.067,-0.567,0.271,0.472,-19.953,35.128,17.952
1747065348.27,-0.005,0.114,-0.062,-0.680,0.413,0.522,-20.203,35.848,18.875
1747065348.29,-0.059,0.098,-0.096,-0.710,0.455,0.588,-20.477,36.720,19.924
1747065348.31,-0.065,0.022,-0.103,-0.641,0.381,0.527,-20.701,37.586,20.986
1747065348.33,-0.053,-0.038,-0.117,-0.512,0.204,0.334,-20.924,38.204,21.833
1747065348.35,-0.014,-0.016,-0.131,-0.467,0.172,0.214,-21.158,38.633,22.446
1747065348.37,0.003,0.012,-0.091,-0.523,0.300,0.193,-21.469,39.108,23.018
1747065348.39,-0.000,0.010,-0.095,-0.551,0.282,0.206,-21.789,39.675,23.623
1747065348.41,-0.007,-0.014,-0.034,-0.576,0.239,0.187,-22.143,40.206,24.264
1747065348.43,0.035,-0.014,-0.050,-0.623,0.270,0.164,-22.521,40.725,24.900
1747065348.45,0.056,-0.015,-0.016,-0.699,0.361,0.225,-22.954,41.373,25.616
1747065348.47,0.067,-0.047,0.019,-0.820,0.280,0.303,-23.403,42.087,26.501
1747065348.49,0.054,-0.047,0.010,-0.858,0.316,0.305,-23.866,42.811,27.485
1747065348.51,0.045,0.008,-0.050,-0.853,0.313,0.243,-24.380,43.595,28.493
1747065348.53,0.003,0.025,-0.165,-0.752,0.076,0.053,-24.927,44.168,29.333
1747065348.55,-0.054,-0.057,-0.120,-0.561,-0.001,-0.097,-25.474,44.436,29.896
1747065348.57,-0.092,-0.058,-0.178,-0.403,-0.099,-0.306,-26.011,44.487,30.129
1747065348.59,-0.107,0.025,-0.153,-0.495,0.093,-0.403,-26.673,44.463,30.188
1747065348.61,-0.081,0.072,-0.111,-0.571,0.369,-0.377,-27.414,44.807,30.300
1747065348.63,-0.054,0.107,-0.069,-0.651,0.440,-0.310,-28.191,45.390,30.548
1747065348.65,-0.028,0.124,-0.076,-0.582,0.328,-0.261,-28.942,46.004,30.883
1747065348.67,0.038,0.068,-0.139,-0.447,0.097,-0.225,-29.528,46.371,31.140
1747065348.69,0.052,0.018,-0.106,-0.416,0.113,-0.371,-30.092,46.539,31.297
1747065348.71,0.017,0.048,-0.097,-0.475,0.232,-0.690,-30.880,46.722,31.245
1747065348.73,-0.011,0.062,-0.149,-0.528,0.255,-0.831,-31.920,46.875,31.013
1747065348.75,-0.035,0.047,-0.113,-0.480,0.411,-0.806,-33.009,47.122,30.767
1747065348.77,-0.051,0.013,-0.141,-0.454,0.317,-0.842,-34.048,47.394,30.469
1747065348.79,-0.065,-0.011,-0.124,-0.391,0.316,-0.914,-35.114,47.505,30.080
1747065348.81,-0.074,0.007,-0.087,-0.392,0.387,-0.993,-36.208,47.615,29.574
1747065348.83,-0.053,0.022,-0.097,-0.517,0.582,-1.062,-37.420,47.840,29.048
1747065348.85,-0.047,0.025,-0.045,-0.625,0.744,-1.026,-38.763,48.367,28.664
1747065348.87,-0.036,-0.001,-0.046,-0.575,0.732,-0.876,-40.042,49.066,28.392
1747065348.89,-0.032,-0.047,0.018,-0.409,0.559,-0.630,-41.067,49.692,28.232
1747065348.91,0.015,-0.065,0.006,-0.426,0.376,-0.502,-41.837,50.159,28.146
1747065348.93,0.063,-0.103,0.035,-0.546,0.456,-0.451,-42.598,50.694,28.251
1747065348.95,0.071,-0.102,0.081,-0.605,0.654,-0.455,-43.420,51.503,28.532
1747065348.97,0.066,-0.060,0.026,-0.697,0.725,-0.559,-44.329,52.522,28.854
1747065348.99,0.079,-0.034,-0.041,-0.663,0.589,-0.717,-45.383,53.476,29.111
1747065349.01,0.110,-0.055,-0.019,-0.606,0.437,-0.756,-46.498,54.142,29.231
1747065349.03,0.135,-0.049,-0.011,-0.575,0.366,-0.806,-47.604,54.626,29.275
1747065349.05,0.143,-0.009,-0.039,-0.621,0.237,-0.952,-48.816,54.961,29.250
1747065349.07,0.128,0.027,-0.075,-0.594,-0.000,-1.065,-50.166,54.994,29.106
1747065349.09,0.059,0.038,-0.079,-0.555,-0.298,-1.063,-51.547,54.612,28.839
1747065349.11,0.006,-0.006,-0.071,-0.440,-0.341,-1.013,-52.838,53.913,28.462
1747065349.13,0.010,-0.067,-0.043,-0.487,-0.226,-1.024,-54.073,53.234,28.015
1747065349.15,0.009,-0.097,-0.042,-0.513,-0.215,-1.096,-55.380,52.609,27.529
1747065349.17,0.030,-0.067,-0.018,-0.515,-0.370,-1.121,-56.753,51.831,26.998
1747065349.19,0.030,-0.000,-0.034,-0.449,-0.544,-1.098,-58.082,50.737,26.304
1747065349.21,0.011,0.057,-0.031,-0.427,-0.702,-1.071,-59.350,49.326,25.509
1747065349.23,-0.005,0.069,-0.037,-0.418,-0.645,-1.034,-60.574,47.796,24.634
1747065349.25,-0.003,0.051,-0.008,-0.432,-0.646,-0.995,-61.742,46.269,23.724
1747065349.27,-0.004,0.016,0.009,-0.489,-0.615,-1.041,-62.942,44.730,22.802
1747065349.29,0.014,-0.029,-0.007,-0.423,-0.708,-1.086,-64.166,42.952,21.640
1747065349.30,0.029,-0.063,-0.009,-0.389,-0.833,-1.036,-65.313,40.779,20.218
1747065349.32,0.027,-0.068,-0.004,-0.555,-1.044,-0.972,-66.462,38.530,18.909
1747065349.34,0.018,-0.071,-0.000,-0.573,-1.247,-0.918,-67.633,36.112,17.717
1747065349.36,0.022,-0.062,0.038,-0.619,-1.305,-0.881,-68.776,33.512,16.495
1747065349.38,0.017,-0.057,0.055,-0.627,-1.275,-0.865,-69.908,30.787,15.173
1747065349.40,0.031,-0.060,0.062,-0.712,-1.198,-0.839,-71.046,28.041,13.753
1747065349.42,0.026,-0.080,0.000,-0.665,-1.055,-0.817,-72.188,25.280,12.213
1747065349.44,0.015,-0.116,-0.056,-0.602,-1.171,-0.717,-73.191,22.362,10.448
1747065349.46,0.028,-0.114,-0.026,-0.665,-1.419,-0.634,-74.143,19.321,8.822
1747065349.48,0.039,-0.107,-0.031,-0.712,-1.479,-0.562,-75.105,16.138,7.252
1747065349.50,0.040,-0.112,-0.047,-0.697,-1.608,-0.377,-76.022,13.113,5.958
1747065349.52,0.040,-0.109,-0.031,-0.702,-1.519,-0.164,-76.868,10.793,5.418
1747065349.54,0.033,-0.097,-0.001,-0.706,-1.406,-0.112,-77.676,9.098,5.402
1747065349.56,0.072,-0.065,0.062,-0.798,-1.210,-0.181,-78.548,7.440,5.235
1747065349.58,0.043,-0.043,0.019,-0.673,-1.010,-0.268,-79.436,5.323,4.356
1747065349.60,0.025,-0.033,-0.002,-0.570,-0.950,-0.115,-80.140,3.150,3.276
1747065349.62,0.014,-0.022,0.013,-0.715,-0.807,0.136,-80.856,2.507,3.655
1747065349.64,-0.043,-0.022,0.000,-0.766,-0.852,0.098,-81.726,2.909,4.987
1747065349.66,-0.053,-0.033,0.019,-0.642,-1.046,-0.034,-82.518,2.254,5.421
1747065349.68,-0.037,-0.040,0.104,-0.715,-1.022,-0.032,-83.276,0.828,5.200
1747065349.70,-0.059,-0.048,0.110,-0.793,-0.798,-0.032,-84.158,-0.377,5.053
1747065349.72,-0.108,-0.016,0.078,-0.630,-0.455,-0.192,-84.979,-2.581,3.558
1747065349.74,-0.118,-0.004,0.072,-0.538,-0.035,-0.311,-85.600,-7.105,-0.688
1747065349.76,-0.134,-0.027,0.053,-0.624,0.148,-0.276,-86.184,-13.480,-7.186
1747065349.78,-0.164,-0.056,-0.071,-0.723,-0.117,-0.178,-86.849,-21.285,-15.042
1747065349.80,-0.105,-0.017,-0.064,-0.686,-0.345,-0.197,-87.493,-32.634,-26.120
1747065349.82,-0.008,0.039,-0.011,-0.466,-0.372,-0.275,-87.829,-48.950,-42.019
1747065349.84,0.056,0.079,-0.015,-0.159,-0.349,-0.248,-87.775,-61.543,-54.219
1747065349.86,0.054,0.059,-0.062,-0.100,-0.320,-0.089,-87.645,-66.681,-58.973
1747065349.88,0.010,0.021,-0.150,-0.142,-0.311,0.036,-87.681,-70.706,-62.653
1747065349.90,-0.040,0.031,-0.178,0.054,-0.209,0.074,-87.766,-72.049,-63.673
1747065349.92,-0.059,0.040,-0.083,0.227,0.110,0.132,-87.809,-66.874,-58.428
1747065349.94,-0.076,-0.001,0.010,0.291,0.408,0.165,-87.826,-57.403,-49.258
1747065349.96,-0.102,-0.026,0.014,0.346,0.461,0.102,-87.726,-46.923,-39.290
1747065349.98,-0.109,-0.005,0.019,0.286,0.367,0.067,-87.508,-38.644,-31.478
1747065350.00,-0.115,0.002,0.023,0.186,0.281,0.036,-87.336,-33.641,-26.842
1747065350.02,-0.074,-0.012,0.031,0.170,0.229,0.010,-87.181,-30.745,-24.234
1747065350.04,0.012,-0.012,0.013,0.169,0.107,0.018,-87.015,-28.394,-22.080
1747065350.06,0.052,-0.012,0.029,0.140,-0.005,0.047,-86.874,-26.160,-19.897
1747065350.08,0.015,-0.019,0.061,0.063,-0.128,0.055,-86.795,-24.301,-17.972
1747065350.10,-0.042,-0.023,0.009,0.034,-0.356,0.041,-86.772,-23.339,-16.723
1747065350.12,-0.061,-0.010,-0.020,0.003,-0.314,0.024,-86.764,-23.037,-16.006
1747065350.14,-0.037,0.022,-0.026,0.057,-0.109,0.041,-86.759,-22.571,-15.297
1747065350.16,-0.028,0.029,-0.005,0.164,0.035,0.050,-86.666,-20.856,-13.552
1747065350.18,-0.038,0.004,-0.018,0.211,-0.022,0.044,-86.481,-18.843,-11.550
1747065350.20,-0.063,0.003,-0.049,0.214,0.032,0.041,-86.256,-17.075,-9.761
1747065350.22,-0.099,0.016,-0.033,0.195,0.213,0.032,-86.039,-15.493,-8.314
1747065350.24,-0.110,-0.009,-0.006,0.255,0.314,-0.011,-85.799,-14.218,-7.350
1747065350.26,-0.098,-0.017,0.011,0.342,0.341,0.026,-85.467,-12.777,-6.282
1747065350.28,-0.074,-0.013,-0.002,0.383,0.369,0.037,-85.071,-10.846,-4.749
1747065350.30,-0.036,-0.006,0.001,0.508,0.308,0.034,-84.586,-9.036,-3.337
1747065350.32,-0.030,0.003,-0.042,0.676,0.132,0.035,-83.914,-7.408,-1.952
1747065350.34,-0.053,0.024,-0.078,0.685,0.069,-0.002,-83.133,-6.275,-0.918
1747065350.36,-0.067,0.003,-0.023,0.658,0.057,-0.098,-82.374,-5.983,-0.697
1747065350.38,-0.054,-0.048,0.037,0.728,0.044,-0.184,-81.578,-6.489,-1.266
1747065350.40,-0.022,-0.065,0.080,0.785,0.086,-0.157,-80.682,-7.097,-1.946
1747065350.42,-0.009,-0.044,0.074,0.672,0.243,-0.006,-79.837,-6.873,-1.903
1747065350.44,-0.008,-0.008,0.047,0.712,0.519,0.068,-79.089,-5.731,-1.166
1747065350.46,-0.027,0.021,0.029,0.923,0.803,0.010,-78.149,-4.291,-0.495
1747065350.48,-0.053,0.018,-0.029,0.849,0.771,-0.026,-77.120,-3.135,-0.247
1747065350.50,-0.037,-0.008,0.082,0.858,0.693,-0.088,-76.167,-2.355,-0.304
1747065350.52,-0.012,-0.017,0.176,0.957,0.549,-0.094,-75.122,-1.943,-0.632
1747065350.54,-0.034,-0.026,0.001,0.980,0.124,0.100,-73.987,-1.456,-0.536
1747065350.56,-0.057,-0.015,-0.014,0.726,0.306,0.210,-73.032,-0.559,0.239
1747065350.58,-0.045,-0.003,0.070,0.830,0.658,0.106,-72.160,0.613,0.832
1747065350.60,-0.027,-0.023,-0.016,0.786,0.584,0.102,-71.219,1.616,1.140
1747065350.62,-0.012,0.037,0.039,0.823,0.488,0.065,-70.296,2.440,1.331
1747065350.64,-0.008,0.060,-0.083,0.765,0.263,0.098,-69.403,2.959,1.470
1747065350.66,-0.017,0.025,-0.031,0.808,0.535,0.045,-68.486,3.479,1.570
1747065350.68,-0.048,-0.033,-0.007,0.842,0.686,-0.011,-67.572,4.118,1.460
1747065350.70,-0.037,-0.044,-0.044,0.855,0.747,0.010,-66.585,4.707,1.239
1747065350.72,0.022,-0.047,0.031,0.759,0.817,0.123,-65.649,5.591,1.201
1747065350.74,0.029,-0.069,-0.004,0.603,0.797,0.253,-64.863,6.785,1.522
1747065350.76,0.041,-0.039,0.028,0.588,1.001,0.305,-64.179,8.314,2.085
1747065350.78,0.075,-0.007,-0.001,0.874,0.644,0.290,-63.285,9.709,2.525
1747065350.80,0.104,-0.012,-0.072,0.917,0.290,0.298,-62.198,10.481,2.850
1747065350.82,0.062,0.026,-0.029,0.800,0.107,0.205,-61.162,10.932,3.067
1747065350.84,0.023,0.025,0.043,0.720,0.206,0.130,-60.286,11.069,3.089
1747065350.86,0.034,-0.002,0.051,0.735,0.291,0.259,-59.445,11.465,3.188
1747065350.88,0.019,0.022,0.037,0.874,0.361,0.330,-58.459,12.085,3.476
1747065350.90,-0.018,0.019,-0.004,0.939,0.280,0.326,-57.364,12.730,3.756
1747065350.92,-0.092,-0.015,-0.053,0.770,0.082,0.273,-56.328,13.035,3.956
1747065350.94,-0.045,-0.064,0.058,0.611,0.424,0.330,-55.490,13.536,4.202
1747065350.96,0.035,-0.088,0.046,0.592,0.394,0.457,-54.731,14.472,4.692
1747065350.98,0.057,-0.000,-0.024,0.810,0.108,0.473,-53.823,15.194,5.242
1747065351.00,0.013,0.037,-0.101,0.879,0.100,0.436,-52.720,15.580,5.671
1747065351.02,-0.052,0.030,-0.056,0.811,0.154,0.269,-51.682,15.924,5.856
1747065351.04,-0.063,-0.057,-0.028,0.719,0.069,0.335,-50.754,16.114,5.974
1747065351.06,-0.053,-0.072,0.027,0.761,0.213,0.450,-49.826,16.538,6.299
1747065351.08,-0.056,-0.067,-0.016,0.855,0.274,0.432,-48.787,17.065,6.635
1747065351.10,-0.019,-0.068,0.013,0.803,0.300,0.400,-47.742,17.615,6.890
1747065351.12,0.019,-0.083,-0.028,0.706,0.410,0.386,-46.773,18.166,7.126
1747065351.14,0.070,-0.047,0.030,0.480,0.547,0.428,-45.992,18.924,7.449
1747065351.16,0.092,0.037,0.028,0.528,0.343,0.491,-45.300,19.795,7.897
1747065351.18,0.066,0.063,-0.014,0.664,0.176,0.577,-44.435,20.380,8.388
1747065351.20,0.021,0.044,-0.017,0.696,0.251,0.529,-43.476,20.943,8.824
1747065351.22,0.014,-0.062,-0.004,0.636,0.251,0.560,-42.547,21.512,9.224
1747065351.24,0.011,-0.155,-0.054,0.560,0.363,0.568,-41.656,22.167,9.698
1747065351.26,0.000,-0.114,-0.018,0.481,0.291,0.523,-40.878,22.869,10.158
1747065351.28,-0.010,-0.043,-0.026,0.490,0.266,0.514,-40.145,23.451,10.595
1747065351.30,-0.000,0.045,0.020,0.559,0.282,0.470,-39.369,24.007,10.949
1747065351.32,0.000,0.047,-0.025,0.572,0.244,0.485,-38.554,24.462,11.236
1747065351.34,0.022,0.026,-0.003,0.485,0.307,0.509,-37.755,24.993,11.572
1747065351.36,0.026,0.029,-0.003,0.392,0.331,0.520,-37.059,25.584,11.961
1747065351.38,-0.011,0.046,0.044,0.353,0.297,0.615,-36.412,26.243,12.448
1747065351.40,-0.058,-0.027,-0.019,0.373,0.326,0.649,-35.705,26.909,13.032
1747065351.42,-0.089,-0.050,-0.038,0.436,0.399,0.574,-34.978,27.627,13.542
1747065351.44,-0.084,-0.047,-0.046,0.557,0.422,0.452,-34.214,28.259,13.851
1747065351.46,-0.033,-0.002,-0.015,0.609,0.317,0.385,-33.397,28.742,13.950
1747065351.48,0.001,0.047,-0.007,0.571,0.229,0.499,-32.566,29.121,14.081
1747065351.50,0.003,0.021,-0.034,0.586,0.244,0.544,-31.703,29.513,14.327
1747065351.52,-0.032,-0.022,-0.053,0.627,0.254,0.483,-30.800,29.908,14.520
1747065351.54,-0.074,-0.043,-0.042,0.660,0.308,0.424,-29.893,30.259,14.621
1747065351.56,-0.029,0.021,-0.020,0.607,0.297,0.409,-29.035,30.638,14.660
1747065351.58,0.037,0.079,-0.013,0.612,0.151,0.483,-28.180,30.942,14.755
1747065351.60,0.049,0.017,0.005,0.601,0.138,0.498,-27.302,31.139,14.906
1747065351.62,0.040,-0.051,-0.024,0.581,0.192,0.460,-26.433,31.389,15.027
1747065351.64,-0.020,0.003,-0.018,0.489,0.173,0.464,-25.634,31.660,15.166
1747065351.66,0.004,0.044,-0.017,0.425,0.265,0.516,-24.902,31.994,15.391
1747065351.68,0.039,-0.019,0.008,0.400,0.248,0.562,-24.177,32.420,15.690
1747065351.70,0.026,-0.071,0.042,0.376,0.209,0.551,-23.455,32.819,16.019
1747065351.72,0.049,-0.096,0.019,0.274,0.190,0.548,-22.795,33.169,16.360
1747065351.74,0.101,-0.099,-0.024,0.201,0.129,0.573,-22.221,33.514,16.781
1747065351.76,0.106,-0.050,-0.046,0.120,0.176,0.659,-21.687,33.860,17.293
1747065351.78,0.037,-0.022,0.028,0.059,0.347,0.789,-21.137,34.419,17.969
1747065351.80,-0.099,-0.017,0.050,0.010,0.314,0.770,-20.598,35.061,18.748
1747065351.82,-0.043,-0.124,-0.044,0.029,0.310,0.661,-20.082,35.710,19.444
1747065351.84,0.107,-0.088,-0.111,0.000,0.365,0.552,-19.661,36.336,20.027
1747065351.86,0.100,0.018,-0.127,0.071,0.269,0.592,-19.244,36.852,20.554
1747065351.88,0.001,0.059,-0.059,0.024,0.251,0.677,-18.770,37.328,21.136
1747065351.90,-0.162,0.045,-0.062,0.033,0.360,0.598,-18.287,37.857,21.735
1747065351.92,-0.130,0.031,-0.119,0.005,0.382,0.440,-17.905,38.451,22.214
1747065351.94,0.065,-0.026,-0.087,0.040,0.309,0.345,-17.595,38.948,22.549
1747065351.96,0.160,-0.004,0.015,-0.020,0.305,0.414,-17.332,39.372,22.877
1747065351.98,0.076,0.082,0.015,-0.114,0.421,0.509,-17.053,39.938,23.348
1747065352.00,-0.106,0.122,-0.077,-0.217,0.400,0.541,-16.801,40.569,23.960
1747065352.02,-0.045,-0.003,-0.119,-0.305,0.645,0.493,-16.644,41.369,24.627
1747065352.04,-0.030,-0.023,-0.169,-0.255,0.598,0.431,-16.534,42.281,25.281
1747065352.06,0.003,0.019,-0.145,-0.205,0.452,0.324,-16.436,43.030,25.797
1747065352.08,0.008,0.026,-0.149,-0.176,0.307,0.265,-16.351,43.564,26.182
1747065352.10,0.035,-0.000,-0.055,-0.249,0.350,0.268,-16.320,44.045,26.590
1747065352.12,0.065,0.009,-0.040,-0.307,0.370,0.284,-16.326,44.594,27.058
1747065352.13,0.038,0.046,-0.031,-0.332,0.402,0.224,-16.385,45.171,27.548
1747065352.15,0.006,0.034,-0.106,-0.294,0.351,0.206,-16.454,45.738,27.982
1747065352.17,0.008,-0.070,-0.074,-0.330,0.313,0.244,-16.520,46.250,28.451
1747065352.19,-0.024,-0.066,-0.047,-0.282,0.222,0.202,-16.568,46.660,28.898
1747065352.21,0.003,-0.007,-0.082,-0.361,0.289,0.034,-16.729,47.057,29.269
1747065352.23,0.042,-0.011,-0.133,-0.465,0.397,0.046,-17.022,47.553,29.645
1747065352.25,0.058,-0.032,-0.065,-0.451,0.392,0.108,-17.317,48.153,30.134
1747065352.27,0.044,-0.009,-0.070,-0.479,0.283,0.044,-17.592,48.682,30.600
1747065352.29,0.043,0.012,-0.077,-0.597,0.295,0.017,-17.963,49.159,31.101
1747065352.31,0.067,0.014,-0.070,-0.762,0.335,0.080,-18.432,49.725,31.752
1747065352.33,0.065,0.021,-0.052,-0.819,0.415,0.198,-18.894,50.448,32.610
1747065352.35,0.024,-0.002,-0.125,-0.809,0.336,0.166,-19.322,51.169,33.533
1747065352.37,-0.022,-0.022,-0.179,-0.671,0.333,-0.041,-19.766,51.799,34.284
1747065352.39,-0.048,0.012,-0.154,-0.697,0.393,-0.312,-20.413,52.379,34.790
1747065352.41,0.004,0.030,-0.109,-0.711,0.430,-0.258,-21.190,53.026,35.257
1747065352.43,0.018,0.025,-0.093,-0.653,0.402,-0.055,-21.796,53.687,35.810
1747065352.45,-0.007,0.003,-0.062,-0.650,0.425,0.044,-22.234,54.402,36.468
1747065352.47,-0.032,-0.029,-0.075,-0.595,0.547,0.088,-22.574,55.211,37.135
1747065352.49,-0.047,-0.023,-0.031,-0.564,0.822,0.133,-22.843,56.239,37.812
1747065352.51,-0.057,0.010,-0.044,-0.632,1.086,0.074,-23.115,57.596,38.506
1747065352.53,-0.048,0.009,-0.112,-0.552,1.258,0.070,-23.400,59.205,39.171
1747065352.55,-0.067,0.017,-0.090,-0.513,1.222,0.061,-23.658,60.886,39.812
1747065352.57,-0.076,0.009,-0.111,-0.433,1.183,0.081,-23.837,62.466,40.353
1747065352.60,-0.047,-0.016,-0.102,-0.373,1.275,0.211,-23.901,64.093,40.885
1747065352.61,-0.048,0.049,-0.083,-0.326,1.240,0.345,-23.782,65.748,41.432
1747065352.75,-0.032,0.097,-0.091,-0.335,1.225,0.453,-23.503,67.394,41.994
1747065352.77,-0.037,0.120,-0.065,-0.307,1.059,0.618,-23.099,68.964,42.629
1747065352.78,-0.019,0.059,-0.097,-0.082,0.732,0.912,-22.346,70.191,43.179
1747065352.79,-0.025,-0.012,-0.035,0.001,0.683,0.995,-21.298,71.139,43.620
1747065352.80,0.004,-0.058,-0.050,-0.064,0.668,0.581,-20.412,72.029,43.961
1747065352.80,0.041,-0.090,-0.027,-0.143,0.719,-0.218,-20.226,72.888,44.158
1747065352.81,0.154,-0.092,-0.019,-0.111,0.535,-0.988,-20.963,73.608,44.114
1747065352.81,0.295,-0.055,-0.066,-0.025,0.582,-1.310,-22.276,74.078,43.756
1747065352.81,0.288,-0.034,-0.085,-0.155,0.401,-1.289,-23.757,74.597,43.426
1747065352.81,0.129,-0.017,-0.164,-0.250,-0.201,-1.189,-25.174,74.612,43.251
1747065352.83,0.035,0.004,-0.071,-0.341,-0.311,-1.184,-26.564,74.271,43.237
1747065352.85,-0.019,0.026,-0.041,-0.311,-0.219,-1.248,-28.001,73.957,43.202
1747065352.87,-0.056,0.013,-0.023,-0.212,-0.110,-1.275,-29.472,73.697,43.076
1747065352.89,-0.060,-0.027,-0.036,-0.159,-0.024,-1.278,-30.925,73.519,42.820
1747065352.92,-0.030,-0.064,-0.012,-0.206,-0.066,-1.303,-32.395,73.319,42.565
1747065352.93,-0.010,-0.063,-0.024,-0.221,0.074,-1.303,-33.896,73.180,42.325
1747065352.95,0.006,-0.036,-0.046,-0.211,-0.038,-1.258,-35.364,73.123,42.097
1747065352.97,0.019,-0.008,-0.044,-0.295,-0.479,-1.243,-36.816,72.721,41.923
1747065352.99,0.044,-0.021,-0.033,-0.305,-0.649,-1.226,-38.263,71.971,41.794
1747065353.01,0.043,-0.044,0.028,-0.389,-0.546,-1.200,-39.706,71.227,41.706
1747065353.03,0.030,-0.061,0.061,-0.411,-0.555,-1.124,-41.107,70.588,41.703
1747065353.05,-0.007,-0.044,0.039,-0.484,-0.558,-1.060,-42.457,70.043,41.793
1747065353.07,-0.052,-0.030,-0.004,-0.510,-0.627,-1.022,-43.766,69.479,41.964
1747065353.09,-0.069,-0.030,-0.026,-0.476,-0.826,-0.990,-45.043,68.763,42.124
1747065353.11,-0.052,-0.045,0.041,-0.608,-0.693,-0.947,-46.296,68.027,42.347
1747065353.13,-0.076,-0.073,0.075,-0.661,-0.444,-0.961,-47.578,67.657,42.761
1747065353.15,-0.099,-0.058,-0.031,-0.546,-0.166,-0.965,-48.870,67.587,43.086
1747065353.17,-0.061,-0.050,-0.072,-0.478,-0.691,-0.828,-50.042,67.312,43.294
1747065353.19,-0.028,-0.046,-0.027,-0.541,-1.033,-0.713,-51.066,66.527,43.607
1747065353.21,0.001,-0.064,-0.005,-0.683,-1.086,-0.676,-52.078,65.672,44.082
1747065353.23,0.050,-0.137,0.046,-0.805,-0.935,-0.548,-53.074,65.145,44.900
1747065353.25,0.022,-0.151,0.020,-0.819,-0.711,-0.399,-53.961,65.038,45.927
1747065353.27,0.006,-0.155,0.025,-0.872,-0.478,-0.274,-54.704,65.367,47.173
1747065353.29,-0.020,-0.109,-0.008,-0.737,-0.341,-0.302,-55.383,65.921,48.432
1747065353.31,-0.035,-0.058,-0.068,-0.518,-0.302,-0.337,-56.008,66.336,49.330
1747065353.33,-0.054,-0.040,-0.080,-0.519,-0.240,-0.286,-56.570,66.546,49.991
1747065353.35,-0.030,-0.036,-0.040,-0.561,-0.325,-0.251,-57.092,66.951,50.841
1747065353.37,-0.022,0.005,-0.049,-0.545,-0.109,-0.204,-57.584,67.377,51.711
1747065353.39,-0.050,0.023,-0.064,-0.414,-0.050,-0.218,-58.008,68.075,52.561
1747065353.41,-0.055,0.004,-0.067,-0.237,-0.108,-0.212,-58.386,68.279,52.981
1747065353.43,-0.040,-0.041,0.048,-0.382,0.015,-0.048,-58.653,68.659,53.476
1747065353.45,-0.042,-0.096,0.094,-0.537,0.005,-0.026,-58.836,69.541,54.424
1747065353.47,-0.143,-0.032,-0.001,-0.468,-0.256,-0.033,-59.099,70.303,55.488
1747065353.49,-0.097,0.039,-0.033,-0.236,-0.257,0.005,-59.242,70.592,56.211
1747065353.51,-0.063,0.112,-0.070,-0.126,-0.103,0.010,-59.286,70.711,56.569
1747065353.53,-0.037,0.110,-0.119,-0.131,-0.086,-0.046,-59.352,70.845,56.836
1747065353.55,-0.020,0.030,-0.095,-0.020,-0.236,-0.038,-59.433,70.794,56.979
1747065353.57,-0.020,-0.023,-0.019,0.023,-0.136,0.018,-59.442,70.466,56.916
1747065353.59,-0.017,-0.014,0.038,-0.106,0.225,0.069,-59.409,70.671,57.051
1747065353.61,-0.024,0.018,-0.041,-0.099,0.092,0.065,-59.379,71.126,57.337
1747065353.63,-0.022,0.005,-0.013,-0.059,-0.160,0.051,-59.344,71.214,57.515
1747065353.65,-0.027,-0.021,0.070,-0.146,-0.079,0.095,-59.301,71.272,57.757
1747065353.67,-0.041,-0.006,0.087,-0.309,0.129,0.108,-59.268,71.762,58.306
1747065353.69,-0.073,0.029,0.018,-0.358,0.048,0.009,-59.324,72.586,59.099
1747065353.71,-0.091,0.062,-0.084,-0.243,-0.204,-0.075,-59.470,73.007,59.714
1747065353.73,-0.050,0.086,-0.038,-0.212,-0.221,-0.091,-59.641,73.106,60.132
1747065353.75,-0.015,0.056,0.004,-0.245,-0.180,-0.083,-59.817,73.267,60.573
1747065353.77,-0.008,-0.002,0.025,-0.245,-0.203,-0.053,-59.974,73.487,61.072
1747065353.79,-0.031,-0.023,-0.016,-0.190,-0.153,-0.021,-60.084,73.651,61.520
1747065353.81,-0.036,-0.013,-0.053,-0.146,-0.044,0.020,-60.140,73.877,61.893
1747065353.83,-0.020,0.013,-0.064,-0.084,0.015,0.045,-60.139,74.090,62.165
1747065353.85,-0.007,0.038,-0.060,0.016,0.054,0.073,-60.088,74.240,62.287
1747065353.87,-0.028,0.051,-0.059,0.077,0.135,0.086,-59.982,74.269,62.214
1747065353.89,-0.051,0.034,-0.058,0.108,0.155,0.054,-59.880,74.294,62.037
1747065353.91,-0.038,-0.003,-0.009,0.121,0.096,0.057,-59.791,74.192,61.775
1747065353.93,0.007,-0.021,0.054,0.094,0.104,0.095,-59.675,74.134,61.567
1747065353.95,0.007,-0.002,-0.001,0.114,0.047,0.093,-59.542,74.061,61.405
1747065353.97,-0.013,0.007,-0.097,0.189,0.044,0.107,-59.392,73.868,61.115
1747065353.99,-0.011,0.009,-0.059,0.169,-0.021,0.122,-59.211,73.587,60.777
1747065354.01,-0.004,0.010,0.020,0.103,-0.044,0.124,-59.031,73.367,60.576
1747065354.03,-0.029,0.009,0.048,0.095,-0.045,0.113,-58.871,73.231,60.462
1747065354.05,-0.071,0.034,0.002,0.179,0.002,0.080,-58.722,72.985,60.237
1747065354.07,-0.104,0.064,-0.084,0.294,0.130,0.077,-58.559,72.682,59.777
1747065354.09,-0.078,0.067,-0.058,0.384,0.190,0.046,-58.373,72.298,59.108
1747065354.11,-0.018,0.018,-0.007,0.446,0.132,0.036,-58.191,71.790,58.277
1747065354.13,0.020,-0.046,-0.014,0.452,0.056,0.083,-57.967,71.139,57.388
1747065354.15,0.036,-0.066,-0.074,0.490,0.024,0.150,-57.666,70.450,56.526
1747065354.17,0.039,-0.052,-0.140,0.577,-0.073,0.208,-57.266,69.664,55.598
1747065354.19,0.043,-0.049,-0.114,0.565,-0.266,0.249,-56.780,68.643,54.610
1747065354.21,0.046,-0.049,0.017,0.448,-0.516,0.298,-56.278,67.547,53.843
1747065354.23,0.001,-0.041,0.072,0.344,-0.371,0.353,-55.762,66.602,53.360
1747065354.25,-0.070,-0.018,0.024,0.356,-0.163,0.356,-55.231,66.046,53.032
1747065354.27,-0.088,0.009,-0.010,0.506,-0.296,0.326,-54.673,65.412,52.541
1747065354.29,-0.066,0.032,0.065,0.601,-0.216,0.300,-54.076,64.446,51.784
1747065354.31,-0.055,0.040,0.137,0.566,0.085,0.309,-53.477,63.786,51.028
1747065354.33,-0.059,0.024,-0.012,0.687,-0.026,0.336,-52.832,63.219,50.246
1747065354.35,-0.066,0.049,0.001,0.462,0.243,0.357,-52.160,62.708,49.511
1747065354.37,-0.085,0.079,0.032,0.353,0.143,0.274,-51.638,62.772,49.209
1747065354.39,-0.088,0.098,-0.042,0.607,-0.177,0.168,-51.167,62.182,48.571
1747065354.41,-0.098,0.093,0.020,0.647,0.054,0.198,-50.650,61.488,47.729
1747065354.43,-0.080,0.051,-0.060,0.621,0.209,0.274,-50.055,60.988,46.900
1747065354.45,-0.043,0.027,0.106,0.563,0.456,0.249,-49.462,60.874,46.259
1747065354.47,-0.007,-0.003,0.086,0.896,0.265,0.215,-48.858,60.616,45.346
1747065354.49,-0.133,-0.014,-0.114,0.847,0.706,0.465,-48.008,60.361,44.021
1747065354.51,-0.184,0.105,-0.127,0.698,0.307,0.335,-47.143,60.443,42.756
1747065354.53,-0.106,0.202,0.109,0.616,0.252,0.119,-46.580,60.131,41.510
1747065354.55,-0.009,0.093,0.075,0.742,0.382,0.203,-46.049,59.890,40.202
1747065354.57,-0.012,-0.006,0.001,0.857,0.503,0.362,-45.314,59.795,38.861
1747065354.59,-0.082,-0.049,-0.126,0.812,0.567,0.414,-44.420,59.762,37.512
1747065354.61,-0.090,-0.050,-0.030,0.660,0.559,0.284,-43.649,59.911,36.353
1747065354.63,-0.022,-0.006,0.015,0.662,0.378,0.186,-43.063,60.030,35.215
1747065354.65,0.075,-0.000,-0.026,0.678,0.084,0.286,-42.433,59.713,34.021
1747065354.67,0.089,-0.009,0.016,0.630,0.215,0.433,-41.716,59.500,33.034
1747065354.69,-0.030,-0.038,-0.093,0.561,0.171,0.458,-40.902,59.462,32.176
1747065354.71,-0.075,-0.036,0.007,0.550,0.202,0.386,-40.182,59.369,31.385
1747065354.73,-0.003,-0.072,0.047,0.550,0.197,0.444,-39.450,59.372,30.585
1747065354.75,0.062,-0.040,0.037,0.434,-0.078,0.537,-38.695,59.291,29.924
1747065354.77,0.060,-0.038,-0.063,0.562,-0.043,0.634,-37.821,59.075,29.349
1747065354.79,-0.031,-0.011,0.043,0.475,0.177,0.552,-36.928,59.054,28.782
1747065354.81,-0.094,-0.079,-0.063,0.527,0.292,0.580,-36.093,59.225,28.182
1747065354.83,-0.013,-0.091,-0.028,0.474,0.086,0.677,-35.176,59.359,27.619
1747065354.85,0.057,-0.034,-0.019,0.486,-0.053,0.671,-34.236,59.337,27.179
1747065354.87,0.028,0.017,-0.008,0.440,-0.042,0.647,-33.301,59.182,26.692
1747065354.89,-0.042,0.032,0.020,0.409,0.208,0.565,-32.477,59.248,26.650
1747065354.91,-0.025,-0.023,-0.006,0.362,0.284,0.565,-31.687,59.516,26.582
1747065354.93,0.003,-0.032,0.008,0.371,0.194,0.591,-30.926,59.792,26.557
1747065354.95,0.026,-0.013,-0.029,0.508,0.155,0.625,-30.059,59.950,26.452
1747065354.97,-0.028,-0.005,-0.010,0.538,0.141,0.620,-29.143,59.999,26.254
1747065354.99,-0.046,-0.051,0.020,0.418,0.211,0.651,-28.245,60.148,26.134
1747065355.01,0.034,-0.111,-0.040,0.410,0.252,0.785,-27.296,60.399,26.102
1747065355.03,0.046,-0.022,-0.098,0.419,0.148,0.673,-26.325,60.668,26.119
1747065355.05,0.016,0.051,-0.057,0.415,-0.056,0.549,-25.503,60.681,26.036
1747065355.07,0.002,-0.010,-0.090,0.507,-0.398,0.641,-24.670,60.351,25.888
1747065355.08,-0.041,-0.067,-0.030,0.499,-0.333,0.787,-23.661,59.855,25.781
1747065355.10,-0.005,-0.064,0.049,0.460,-0.236,0.877,-22.564,59.555,25.771
1747065355.12,-0.000,-0.021,0.048,0.415,-0.058,0.823,-21.470,59.438,25.855
1747065355.14,-0.001,0.024,0.042,0.406,-0.036,0.763,-20.450,59.393,25.909
1747065355.16,-0.027,0.010,0.051,0.431,0.031,0.769,-19.463,59.384,25.936
1747065355.18,-0.072,-0.050,0.005,0.489,0.188,0.794,-18.427,59.519,25.954
1747065355.20,-0.034,-0.029,0.064,0.406,0.316,0.794,-17.384,59.822,25.954
1747065355.22,0.028,0.024,-0.047,0.332,0.232,0.827,-16.357,60.162,26.080
1747065355.24,0.011,0.132,0.000,0.334,0.122,0.741,-15.397,60.404,26.207
1747065355.26,-0.013,-0.027,-0.025,0.347,0.150,0.826,-14.434,60.553,26.296
1747065355.28,-0.056,-0.145,-0.006,0.365,0.359,0.817,-13.403,60.884,26.408
1747065355.30,-0.048,-0.078,-0.049,0.373,0.376,0.815,-12.394,61.338,26.479
1747065355.32,-0.030,0.063,-0.091,0.294,0.304,0.768,-11.411,61.737,26.586
1747065355.34,-0.010,0.090,-0.079,0.276,0.283,0.784,-10.486,62.087,26.718
1747065355.36,-0.007,0.000,-0.058,0.253,0.271,0.807,-9.544,62.437,26.893
1747065355.38,-0.018,-0.047,-0.063,0.234,0.205,0.760,-8.615,62.728,27.055
1747065355.40,-0.002,-0.045,-0.047,0.189,0.144,0.818,-7.715,62.961,27.240
1747065355.42,0.006,0.020,0.020,0.161,0.264,0.871,-6.768,63.211,27.511
1747065355.44,-0.083,0.032,0.006,0.129,0.472,0.865,-5.801,63.664,27.808
1747065355.46,-0.078,-0.082,0.025,0.062,0.469,0.876,-4.850,64.256,28.146
1747065355.48,0.012,-0.202,0.021,0.137,0.262,0.787,-3.947,64.695,28.458
1747065355.50,0.103,-0.151,-0.054,0.071,0.161,0.839,-3.065,64.946,28.735
1747065355.52,0.067,0.054,-0.013,-0.098,0.315,0.954,-2.137,65.226,29.174
1747065355.54,-0.071,0.184,-0.058,-0.134,0.477,0.922,-1.226,65.697,29.752
1747065355.56,-0.019,-0.018,-0.028,-0.088,0.350,0.848,-0.352,66.235,30.287
1747065355.58,0.113,-0.241,-0.022,0.035,0.104,0.735,0.472,66.482,30.678
1747065355.60,0.184,-0.090,-0.018,-0.023,0.052,0.795,1.262,66.529,31.006
1747065355.62,0.038,0.194,-0.075,-0.148,0.184,0.875,2.109,66.651,31.472
1747065355.64,-0.112,0.227,-0.059,-0.110,0.458,0.851,2.954,66.994,32.029
1747065355.66,-0.075,0.086,-0.076,-0.023,0.482,0.753,3.783,67.534,32.443
1747065355.68,0.093,-0.038,-0.137,-0.082,0.362,0.685,4.519,67.997,32.789
1747065355.70,0.161,-0.011,-0.082,-0.069,0.249,0.639,5.179,68.308,33.174
1747065355.72,0.076,0.058,-0.154,-0.162,0.168,0.619,5.802,68.499,33.546
1747065355.74,-0.015,0.080,-0.130,-0.075,0.202,0.630,6.414,68.669,33.956
1747065355.76,-0.015,-0.014,-0.119,0.017,0.145,0.580,7.049,68.841,34.098
1747065355.78,-0.032,-0.142,-0.060,0.064,0.129,0.491,7.646,68.953,33.996
1747065355.80,-0.023,-0.110,0.020,-0.006,0.285,0.331,8.088,69.169,33.851
1747065355.82,0.078,0.062,-0.045,-0.104,0.360,0.352,8.428,69.530,34.045
1747065355.84,0.122,0.057,-0.083,-0.166,0.200,0.408,8.770,69.818,34.355
1747065355.86,0.090,-0.046,-0.068,-0.134,-0.056,0.407,9.159,69.838,34.566
1747065355.88,0.012,-0.067,-0.011,-0.105,0.090,0.320,9.502,69.772,34.568
1747065355.90,-0.045,-0.007,0.010,-0.219,0.397,0.268,9.756,70.013,34.603
1747065355.92,-0.008,0.080,-0.051,-0.212,0.515,0.220,9.923,70.490,34.694
1747065355.94,0.104,0.054,-0.162,-0.163,0.403,0.244,10.094,70.981,34.743
1747065355.96,0.175,-0.047,-0.169,-0.188,-0.071,0.317,10.349,71.145,34.804
1747065355.98,0.115,-0.087,-0.059,-0.253,-0.028,0.017,10.478,70.928,34.888
1747065356.00,0.056,0.050,-0.021,-0.258,0.287,-0.122,10.294,71.085,34.901
1747065356.02,0.100,0.065,-0.133,-0.297,0.278,-0.044,10.105,71.378,34.966
1747065356.04,0.128,-0.024,-0.159,-0.324,-0.024,-0.000,9.975,71.477,35.087
1747065356.06,0.075,-0.053,-0.090,-0.304,-0.145,-0.230,9.761,71.272,35.184
1747065356.08,0.085,0.002,-0.054,-0.265,0.106,-0.346,9.319,71.228,35.156
1747065356.10,0.113,0.035,-0.070,-0.370,0.167,-0.342,8.839,71.344,35.162
1747065356.12,0.081,-0.010,-0.041,-0.417,0.238,-0.373,8.303,71.541,35.273
1747065356.14,0.103,-0.010,-0.118,-0.371,0.076,-0.427,7.732,71.705,35.347
1747065356.16,0.149,0.018,-0.158,-0.335,-0.130,-0.521,7.091,71.620,35.369
1747065356.18,0.143,0.006,-0.153,-0.447,-0.077,-0.712,6.294,71.470,35.365
1747065356.20,0.055,-0.053,-0.047,-0.610,0.189,-0.849,5.240,71.478,35.488
1747065356.22,-0.011,-0.036,0.001,-0.543,0.459,-0.920,4.067,71.837,35.620
1747065356.24,-0.007,0.022,-0.056,-0.375,0.510,-0.924,2.898,72.398,35.605
1747065356.26,-0.012,0.034,-0.112,-0.279,0.435,-0.913,1.793,72.943,35.425
1747065356.28,0.003,0.014,-0.115,-0.278,0.250,-0.859,0.732,73.333,35.265
1747065356.30,0.032,0.040,-0.144,-0.197,0.281,-0.904,-0.303,73.615,35.043
1747065356.32,0.066,0.049,-0.139,-0.176,0.358,-0.989,-1.400,73.968,34.751
1747065356.34,0.036,0.017,-0.080,-0.202,0.433,-1.052,-2.591,74.426,34.468
1747065356.36,-0.025,-0.024,-0.049,-0.157,0.567,-1.108,-3.838,75.001,34.156
1747065356.38,-0.028,-0.026,-0.088,-0.007,0.514,-1.099,-5.083,75.620,33.754
1747065356.40,0.000,0.006,-0.086,0.097,0.414,-1.110,-6.296,76.093,33.226
1747065356.42,0.033,0.015,-0.087,0.270,0.389,-1.142,-7.497,76.503,32.544
1747065356.44,0.036,0.047,-0.141,0.411,0.252,-1.287,-8.733,76.773,31.630
1747065356.46,0.015,0.099,-0.123,0.372,0.216,-1.468,-10.179,76.877,30.630
1747065356.48,0.029,0.047,-0.098,0.339,0.490,-1.406,-11.700,77.119,29.680
1747065356.50,-0.017,0.000,-0.058,0.221,0.559,-1.317,-13.146,77.612,28.850
1747065356.52,-0.059,-0.068,-0.035,0.193,0.420,-1.222,-14.517,78.039,28.160
1747065356.54,-0.054,-0.116,0.001,0.210,0.327,-1.145,-15.783,78.337,27.479
1747065356.56,-0.035,-0.118,0.008,0.269,0.160,-1.129,-16.996,78.456,26.800
1747065356.58,-0.022,-0.090,0.040,0.156,0.127,-1.272,-18.284,78.425,26.098
1747065356.60,0.022,-0.080,0.062,0.053,0.325,-1.361,-19.746,78.561,25.509
1747065356.62,0.082,-0.094,0.033,0.012,0.122,-1.252,-21.213,78.725,25.017
1747065356.64,0.112,-0.080,0.007,0.020,-0.144,-1.113,-22.533,78.582,24.580
1747065356.66,0.123,-0.066,-0.004,-0.075,-0.098,-1.061,-23.739,78.315,24.327
1747065356.68,0.063,-0.054,-0.002,-0.240,0.133,-1.195,-25.029,78.314,24.253
1747065356.70,0.008,-0.082,-0.079,-0.301,-0.098,-1.238,-26.468,78.380,24.276
1747065356.72,-0.032,-0.090,-0.085,-0.270,-0.285,-1.196,-27.900,78.153,24.316
1747065356.74,-0.015,-0.075,-0.026,-0.298,-0.343,-1.146,-29.276,77.817,24.362
1747065356.76,0.003,-0.043,-0.030,-0.256,-0.421,-1.149,-30.619,77.392,24.408
1747065356.78,0.018,-0.003,-0.086,-0.209,-0.418,-1.153,-31.960,76.886,24.340
1747065356.80,0.011,0.032,-0.103,-0.248,-0.578,-1.173,-33.311,76.291,24.285
1747065356.82,-0.004,0.008,-0.060,-0.394,-0.553,-1.204,-34.714,75.658,24.313
1747065356.84,-0.007,-0.037,-0.001,-0.328,-0.644,-1.225,-36.171,75.017,24.402
1747065356.86,0.008,-0.063,0.039,-0.298,-0.478,-1.168,-37.582,74.331,24.352
1747065356.88,-0.002,-0.044,0.027,-0.370,-0.478,-1.096,-38.928,73.828,24.378
1747065356.90,-0.033,-0.033,-0.027,-0.573,-0.590,-1.048,-40.244,73.326,24.565
1747065356.92,-0.036,-0.046,0.018,-0.575,-0.727,-1.084,-41.608,72.840,24.980
1747065356.94,-0.025,-0.067,-0.013,-0.484,-0.520,-1.064,-42.963,72.276,25.225
1747065356.96,-0.008,-0.091,0.046,-0.595,-0.691,-1.000,-44.271,71.848,25.533
1747065356.98,-0.025,-0.087,0.060,-0.772,-0.853,-0.993,-45.592,71.334,26.081
1747065357.00,-0.078,-0.080,-0.033,-0.823,-0.914,-0.958,-46.956,70.821,26.798
1747065357.02,-0.039,-0.090,-0.029,-0.778,-0.769,-0.813,-48.222,70.471,27.598
1747065357.04,-0.016,-0.086,-0.040,-0.698,-0.828,-0.573,-49.280,70.133,28.390
1747065357.06,-0.016,-0.092,-0.016,-0.657,-0.854,-0.646,-50.145,69.810,29.169
1747065357.08,-0.017,-0.102,-0.010,-0.692,-0.680,-0.587,-51.100,69.454,29.887
1747065357.10,-0.021,-0.081,-0.030,-0.633,-0.424,-0.518,-51.951,69.489,30.703
1747065357.12,-0.013,-0.097,-0.045,-0.547,-0.537,-0.495,-52.731,69.492,31.379
1747065357.14,0.015,-0.128,0.059,-0.668,-0.304,-0.448,-53.471,69.571,32.139
1747065357.16,-0.007,-0.094,0.023,-0.672,-0.099,-0.485,-54.237,70.131,33.070
1747065357.18,0.019,-0.050,-0.030,-0.652,-0.237,-0.484,-55.004,70.717,33.977
1747065357.20,-0.014,-0.063,-0.050,-0.718,-0.531,-0.410,-55.750,71.077,34.960
1747065357.22,-0.018,-0.111,-0.006,-0.760,-0.709,-0.312,-56.415,71.341,36.161
1747065357.24,-0.030,-0.110,-0.021,-0.679,-0.522,-0.165,-56.940,71.690,37.443
1747065357.26,-0.030,-0.062,-0.062,-0.507,-0.272,-0.027,-57.255,72.176,38.564
1747065357.28,-0.026,0.009,-0.100,-0.316,-0.150,0.085,-57.357,72.701,39.426
1747065357.30,-0.017,0.046,-0.086,-0.215,-0.160,0.154,-57.307,72.962,39.990
1747065357.32,-0.026,0.044,0.020,-0.306,0.062,0.160,-57.207,73.438,40.613
1747065357.34,-0.085,0.045,-0.000,-0.359,0.003,0.072,-57.188,74.134,41.355
1747065357.36,-0.101,0.061,-0.021,-0.422,-0.234,0.054,-57.242,74.705,42.184
1747065357.38,-0.082,0.051,0.017,-0.490,-0.460,0.035,-57.326,75.108,43.145
1747065357.40,-0.075,0.032,0.044,-0.501,-0.470,0.034,-57.438,75.428,44.191
1747065357.42,-0.111,0.046,-0.013,-0.399,-0.235,0.067,-57.510,75.834,45.161
1747065357.44,-0.111,0.072,-0.041,-0.264,-0.082,0.057,-57.534,76.285,45.879
1747065357.46,-0.064,0.074,-0.021,-0.122,-0.177,0.048,-57.529,76.510,46.299
1747065357.48,-0.057,0.070,0.017,-0.082,-0.267,0.020,-57.516,76.388,46.500
1747065357.50,-0.090,0.059,0.037,-0.133,0.046,0.006,-57.533,76.455,46.732
1747065357.52,-0.108,0.046,0.009,-0.100,0.119,-0.017,-57.571,76.788,46.984
1747065357.54,-0.077,0.067,0.012,-0.035,0.107,-0.043,-57.625,77.010,47.101
1747065357.56,-0.051,0.092,0.006,-0.040,0.135,-0.039,-57.679,77.174,47.135
1747065357.58,-0.055,0.086,-0.024,-0.077,0.106,-0.076,-57.779,77.430,47.252
1747065357.60,-0.047,0.039,-0.067,-0.014,-0.002,-0.092,-57.913,77.521,47.303
1747065357.62,-0.005,-0.037,-0.023,0.040,0.030,-0.023,-58.000,77.466,47.234
1747065357.64,0.008,-0.034,-0.046,0.074,0.026,0.037,-57.980,77.412,47.124
1747065357.66,-0.018,0.029,-0.090,0.130,-0.006,0.008,-57.936,77.242,46.922
1747065357.68,-0.031,0.034,-0.049,0.178,0.169,-0.002,-57.903,77.032,46.582
1747065357.70,-0.018,0.013,-0.018,0.237,0.168,-0.007,-57.855,76.895,46.150
1747065357.72,0.002,-0.018,-0.023,0.331,0.060,0.018,-57.772,76.492,45.548
1747065357.74,0.028,-0.020,-0.017,0.324,0.201,0.048,-57.646,76.025,44.841
1747065357.76,0.055,-0.018,-0.060,0.254,0.098,0.089,-57.502,75.734,44.259
1747065357.78,0.058,-0.043,-0.037,0.236,-0.161,0.131,-57.321,75.306,43.817
1747065357.80,0.012,-0.051,0.003,0.225,-0.155,0.194,-57.078,74.799,43.439
1747065357.82,-0.052,0.000,-0.041,0.285,-0.145,0.231,-56.764,74.283,43.049
1747065357.84,-0.088,0.059,-0.054,0.363,-0.018,0.227,-56.409,73.773,42.536
1747065357.86,-0.094,0.072,-0.036,0.435,0.102,0.197,-56.046,73.242,41.864
1747065357.88,-0.078,0.062,0.030,0.469,0.177,0.171,-55.692,72.798,41.103
1747065357.90,-0.060,0.047,-0.010,0.543,0.040,0.118,-55.365,72.204,40.218
1747065357.92,-0.029,0.024,-0.004,0.534,-0.062,0.112,-55.048,71.361,39.237
1747065357.94,-0.027,-0.002,0.040,0.420,-0.057,0.144,-54.735,70.646,38.424
1747065357.96,-0.060,-0.017,-0.012,0.424,-0.069,0.194,-54.395,70.018,37.778
1747065357.98,-0.097,-0.013,-0.063,0.530,0.100,0.274,-53.959,69.485,37.079
1747065358.00,-0.124,0.021,-0.067,0.672,-0.057,0.273,-53.406,68.779,36.173
1747065358.01,-0.126,0.070,0.051,0.680,-0.043,0.215,-52.866,67.869,35.142
1747065358.03,-0.111,0.095,0.080,0.696,0.316,0.248,-52.330,67.220,34.125
1747065358.05,-0.125,0.104,-0.002,0.838,0.425,0.275,-51.703,66.772,33.005
1747065358.07,-0.139,0.107,0.017,0.785,0.411,0.258,-51.048,66.318,31.806
1747065358.09,-0.115,0.097,0.075,0.683,0.419,0.257,-50.445,66.024,30.798
1747065358.11,-0.057,0.060,0.010,0.865,0.365,0.235,-49.826,65.622,29.626
1747065358.13,-0.043,0.025,-0.011,0.882,0.525,0.196,-49.176,65.173,28.234
1747065358.15,-0.036,-0.014,-0.087,0.788,0.354,0.240,-48.555,64.848,26.958
1747065358.17,-0.032,-0.015,-0.051,0.666,-0.183,0.223,-47.946,64.232,25.883
1747065358.19,-0.013,0.010,0.087,0.541,-0.260,0.139,-47.460,63.350,24.996
1747065358.21,0.018,-0.001,0.095,0.506,0.296,0.132,-47.078,62.871,24.215
1747065358.23,0.069,-0.081,-0.084,0.709,0.504,0.313,-46.539,62.839,23.362
1747065358.25,0.047,-0.061,-0.072,0.697,0.188,0.378,-45.796,62.668,22.466
1747065358.27,0.002,-0.033,-0.056,0.516,0.155,0.340,-45.104,62.412,21.745
1747065358.29,-0.023,-0.020,-0.043,0.457,0.101,0.310,-44.530,62.245,21.200
1747065358.31,-0.008,0.000,0.019,0.512,0.203,0.360,-43.950,62.086,20.616
1747065358.33,0.021,-0.001,-0.029,0.548,0.048,0.506,-43.222,61.993,20.124
1747065358.35,0.001,0.004,-0.079,0.577,-0.024,0.440,-42.427,61.710,19.578
1747065358.37,-0.004,-0.059,-0.105,0.472,-0.067,0.373,-41.722,61.316,19.009
1747065358.39,0.014,-0.096,-0.047,0.416,-0.018,0.348,-41.154,61.125,18.619
1747065358.41,0.017,-0.125,-0.011,0.410,-0.159,0.455,-40.522,60.829,18.225
1747065358.43,0.037,-0.138,0.011,0.462,-0.154,0.630,-39.739,60.494,17.953
1747065358.45,0.066,-0.103,-0.022,0.596,-0.087,0.694,-38.770,60.266,17.646
1747065358.47,0.019,-0.036,-0.045,0.513,-0.254,0.641,-37.783,59.950,17.283
1747065358.49,-0.010,-0.022,-0.015,0.354,-0.342,0.579,-36.944,59.527,17.079
1747065358.51,-0.016,-0.088,0.040,0.385,-0.186,0.632,-36.146,59.192,16.960
1747065358.53,0.052,-0.150,0.060,0.413,0.101,0.758,-35.219,59.196,16.852
1747065358.55,0.035,-0.059,-0.067,0.281,-0.242,0.800,-34.248,59.209,16.762
1747065358.57,-0.016,0.081,-0.057,0.394,-0.385,0.631,-33.338,58.912,16.784
1747065358.59,-0.065,0.093,0.011,0.532,-0.292,0.546,-32.512,58.429,16.648
1747065358.61,-0.077,-0.016,-0.028,0.642,-0.210,0.621,-31.584,57.962,16.381
1747065358.63,-0.019,-0.038,0.140,0.596,0.187,0.688,-30.562,57.839,16.131
1747065358.65,0.019,-0.000,0.064,0.409,0.203,0.719,-29.563,58.005,16.063
1747065358.67,0.020,0.077,0.047,0.327,0.236,0.643,-28.691,58.334,16.128
1747065358.69,0.001,0.052,-0.089,0.309,0.109,0.630,-27.881,58.558,16.222
1747065358.71,0.007,0.029,-0.110,0.447,-0.005,0.592,-27.069,58.633,16.216
1747065358.73,-0.028,0.007,-0.073,0.515,-0.066,0.605,-26.208,58.573,16.096
1747065358.75,-0.091,0.042,-0.015,0.648,0.113,0.535,-25.292,58.454,15.824
1747065358.77,-0.090,0.084,0.005,0.622,0.168,0.554,-24.391,58.497,15.477
1747065358.79,-0.031,0.059,-0.075,0.481,0.136,0.595,-23.478,58.573,15.274
1747065358.81,0.067,0.044,0.019,0.376,0.187,0.559,-22.680,58.743,15.211
1747065358.83,0.064,0.016,-0.100,0.404,0.083,0.503,-21.922,58.895,15.139
1747065358.85,-0.009,0.038,-0.070,0.519,0.070,0.400,-21.212,58.849,14.956
1747065358.87,-0.087,0.035,-0.106,0.534,-0.018,0.450,-20.495,58.806,14.641
1747065358.89,-0.086,-0.035,-0.094,0.496,-0.004,0.599,-19.663,58.679,14.439
1747065358.91,0.033,-0.048,-0.007,0.437,0.041,0.549,-18.821,58.687,14.314
1747065358.93,0.017,-0.019,0.000,0.361,-0.194,0.553,-18.055,58.615,14.241
1747065358.95,-0.015,-0.046,0.006,0.461,-0.118,0.525,-17.281,58.344,14.154
1747065358.97,-0.045,-0.127,0.111,0.442,0.072,0.629,-16.459,58.297,14.059
1747065358.99,-0.065,-0.076,0.033,0.366,0.332,0.669,-15.572,58.530,14.055
1747065359.01,0.039,-0.016,0.028,0.243,0.368,0.669,-14.731,58.956,14.165
1747065359.03,0.051,0.054,-0.022,0.198,0.333,0.552,-14.000,59.445,14.309
1747065359.05,0.046,-0.063,-0.001,0.214,0.222,0.594,-13.331,59.758,14.432
1747065359.07,-0.027,-0.179,0.048,0.280,0.329,0.673,-12.556,60.119,14.564
1747065359.09,-0.072,-0.103,-0.007,0.335,0.299,0.689,-11.707,60.489,14.629
1747065359.11,-0.079,0.007,-0.036,0.290,0.433,0.675,-10.849,60.910,14.706
1747065359.13,-0.055,0.073,-0.019,0.184,0.470,0.652,-10.055,61.455,14.833
1747065359.15,0.008,0.004,-0.048,0.213,0.368,0.706,-9.272,61.982,15.012
1747065359.17,0.012,-0.054,-0.025,0.279,0.390,0.701,-8.425,62.409,15.137
1747065359.19,-0.044,-0.053,-0.012,0.330,0.402,0.674,-7.579,62.884,15.203
1747065359.21,-0.017,-0.009,-0.078,0.318,0.311,0.725,-6.678,63.267,15.216
1747065359.23,0.033,0.085,-0.075,0.223,0.274,0.717,-5.814,63.627,15.307
1747065359.25,0.020,0.028,-0.073,0.143,0.232,0.700,-4.988,63.934,15.477
1747065359.27,0.016,-0.087,0.013,0.165,0.123,0.704,-4.196,64.150,15.686
1747065359.29,-0.002,-0.089,0.014,0.225,0.100,0.688,-3.382,64.285,15.828
1747065359.31,0.005,-0.027,0.035,0.155,0.100,0.686,-2.581,64.404,15.952
1747065359.33,0.036,-0.041,0.068,0.010,0.232,0.728,-1.817,64.575,16.212
1747065359.35,0.024,-0.018,0.008,-0.087,0.379,0.786,-1.042,64.975,16.636
1747065359.37,-0.007,-0.002,-0.078,-0.109,0.280,0.737,-0.313,65.349,17.110
1747065359.39,-0.022,-0.072,-0.087,0.020,0.205,0.739,0.434,65.627,17.503
1747065359.41,-0.040,-0.013,-0.095,0.064,0.181,0.735,1.219,65.829,17.799
1747065359.43,-0.020,0.003,-0.041,0.045,0.250,0.707,2.014,66.052,18.070
1747065359.45,-0.003,0.020,-0.055,-0.014,0.348,0.659,2.736,66.386,18.306
1747065359.47,0.020,0.032,-0.046,-0.041,0.442,0.614,3.388,66.827,18.606
1747065359.49,0.092,-0.035,-0.062,-0.086,0.300,0.595,4.006,67.274,18.899
1747065359.51,0.117,-0.071,0.004,-0.131,0.166,0.621,4.589,67.482,19.256
1747065359.53,0.057,0.002,0.018,-0.220,0.317,0.668,5.209,67.716,19.688
1747065359.55,0.040,-0.033,0.029,-0.330,0.427,0.653,5.778,68.095,20.241
1747065359.57,0.064,-0.012,-0.021,-0.280,0.594,0.638,6.334,68.600,20.813
1747065359.59,0.033,0.004,-0.096,-0.336,0.383,0.581,6.864,69.138,21.352
1747065359.61,0.035,-0.024,-0.058,-0.328,0.317,0.517,7.308,69.413,21.923
1747065359.63,0.062,0.015,-0.114,-0.286,0.522,0.400,7.677,69.820,22.395
1747065359.65,0.087,0.097,-0.122,-0.315,0.368,0.442,7.997,70.302,22.873
1747065359.67,0.061,0.091,-0.167,-0.308,0.107,0.415,8.350,70.469,23.358
1747065359.69,0.011,-0.002,-0.113,-0.118,0.222,0.286,8.655,70.585,23.714
1747065359.71,0.006,0.060,-0.150,-0.108,0.258,0.126,8.826,70.848,23.870
1747065359.73,0.058,0.021,-0.107,-0.219,0.196,0.155,8.904,71.101,24.078
1747065359.75,0.143,0.033,-0.130,-0.137,0.021,0.198,9.035,71.143,24.335
1747065359.77,0.184,0.080,-0.161,-0.191,0.137,0.034,9.106,71.184,24.519
1747065359.79,0.153,0.014,-0.198,-0.293,0.061,-0.099,8.976,71.297,24.758
1747065359.81,0.040,-0.057,-0.095,-0.240,-0.090,-0.168,8.730,71.213,24.979
1747065359.83,-0.015,-0.072,-0.018,-0.218,0.145,-0.288,8.404,71.201,25.094
1747065359.85,0.075,0.047,0.008,-0.394,0.320,-0.276,7.974,71.460,25.309
1747065359.87,0.118,0.047,-0.079,-0.426,0.108,-0.227,7.557,71.695,25.649
1747065359.89,0.062,-0.046,-0.046,-0.380,0.130,-0.335,7.109,71.725,25.984
1747065359.91,0.020,-0.064,-0.064,-0.312,0.274,-0.517,6.540,71.970,26.154
1747065359.93,0.059,0.009,-0.085,-0.399,0.240,-0.547,5.817,72.227,26.324
1747065359.95,0.117,0.078,-0.093,-0.421,0.254,-0.573,5.084,72.496,26.560
1747065359.97,0.093,0.082,-0.121,-0.295,0.175,-0.648,4.289,72.730,26.729
1747065359.99,0.058,0.024,-0.110,-0.262,0.138,-0.692,3.458,72.893,26.775
1747065360.01,0.048,-0.020,-0.105,-0.294,0.181,-0.728,2.598,73.079,26.804
1747065360.03,0.029,-0.030,-0.102,-0.297,0.243,-0.791,1.672,73.293,26.848
1747065360.05,-0.010,-0.043,-0.056,-0.228,0.370,-0.830,0.698,73.666,26.838
1747065360.07,-0.006,-0.025,-0.114,-0.106,0.290,-0.820,-0.265,74.048,26.729
1747065360.09,0.025,-0.000,-0.137,-0.203,0.172,-0.836,-1.219,74.301,26.584
1747065360.11,0.031,-0.005,-0.164,-0.138,0.164,-0.859,-2.197,74.467,26.480
1747065360.13,0.015,0.004,-0.114,-0.138,0.214,-0.948,-3.236,74.677,26.319
