Time,AccX,AccY,AccZ,GyroX,GyroY,GyroZ,Pitch,Roll,Yaw
1747597776.99,-0.013,-0.005,0.016,-0.016,0.074,-0.042,-83.668,-41.397,-52.519
1747597777.01,-0.000,-0.004,-0.010,-0.010,0.044,-0.021,-83.654,-41.635,-52.825
1747597777.03,0.007,-0.006,-0.009,-0.025,0.082,-0.005,-83.655,-41.688,-52.948
1747597777.05,0.004,-0.002,-0.002,-0.045,0.101,-0.002,-83.675,-41.817,-53.188
1747597777.07,-0.005,-0.001,0.004,-0.054,0.096,-0.006,-83.721,-42.111,-53.600
1747597777.09,-0.010,0.008,-0.000,-0.052,0.111,-0.015,-83.754,-42.440,-54.049
1747597777.11,-0.008,-0.003,-0.002,-0.053,0.134,-0.010,-83.786,-42.740,-54.490
1747597777.13,0.001,-0.009,-0.014,-0.060,0.127,0.015,-83.832,-42.974,-54.879
1747597777.15,0.015,-0.025,-0.031,-0.067,0.102,0.012,-83.898,-43.158,-55.200
1747597777.17,0.022,0.018,-0.028,-0.059,0.057,-0.002,-83.953,-43.531,-55.664
1747597777.19,0.025,0.002,-0.027,-0.040,0.037,-0.009,-83.984,-43.902,-56.091
1747597777.21,0.021,-0.009,-0.028,-0.027,0.019,-0.028,-83.995,-44.257,-56.484
1747597777.23,0.024,-0.012,-0.039,0.002,-0.036,-0.060,-83.967,-44.626,-56.849
1747597777.25,0.023,-0.001,-0.047,0.057,-0.122,-0.087,-83.884,-44.981,-57.116
1747597777.27,0.011,0.004,-0.070,0.139,-0.196,-0.109,-83.726,-45.068,-57.025
1747597777.29,0.016,0.028,-0.083,0.203,-0.279,-0.113,-83.499,-44.834,-56.518
1747597777.31,0.024,0.085,-0.076,0.301,-0.349,-0.144,-83.194,-44.300,-55.619
1747597777.33,0.017,0.133,-0.078,0.409,-0.512,-0.142,-82.788,-43.449,-54.282
1747597777.35,-0.001,0.098,-0.098,0.475,-0.754,-0.136,-82.304,-42.400,-52.491
1747597777.37,-0.029,0.002,-0.096,0.486,-0.791,-0.181,-81.773,-41.612,-50.782
1747597777.39,-0.060,-0.022,-0.041,0.442,-0.654,-0.207,-81.220,-41.196,-49.518
1747597777.41,-0.047,-0.020,-0.029,0.401,-0.601,-0.121,-80.744,-40.952,-48.585
1747597777.43,-0.036,-0.012,-0.052,0.572,-0.805,-0.017,-80.277,-39.910,-46.703
1747597777.45,-0.010,0.042,0.032,0.513,-0.792,-0.030,-79.768,-38.662,-44.497
1747597777.47,-0.005,-0.074,0.138,0.362,-0.617,-0.043,-79.341,-37.934,-42.914
1747597777.49,-0.042,-0.186,0.223,-0.008,-0.240,-0.073,-79.129,-37.988,-42.463
1747597777.51,-0.080,-0.198,0.241,-0.328,0.099,-0.116,-79.228,-39.203,-43.635
1747597777.53,-0.116,-0.122,0.219,-0.407,0.158,-0.099,-79.480,-41.048,-45.689
1747597777.55,-0.123,-0.094,0.143,-0.429,0.078,-0.037,-79.779,-42.936,-47.752
1747597777.57,-0.111,-0.092,0.083,-0.517,0.033,0.017,-80.158,-45.031,-49.912
1747597777.59,-0.066,-0.074,0.060,-0.562,0.229,0.058,-80.626,-47.386,-52.459
1747597777.61,-0.108,-0.034,-0.002,-0.483,0.345,0.038,-81.068,-49.607,-55.029
1747597777.63,-0.173,-0.004,-0.042,-0.345,0.679,0.009,-81.396,-51.357,-57.387
1747597777.65,-0.189,0.008,-0.131,-0.025,0.816,0.054,-81.549,-51.441,-58.372
1747597777.67,-0.139,0.112,-0.168,-0.241,0.542,0.163,-81.700,-50.590,-58.299
1747597777.69,0.018,0.160,-0.081,-0.440,0.914,0.294,-82.178,-51.104,-59.606
1747597777.71,0.193,0.006,-0.055,-0.272,0.590,0.363,-82.742,-50.638,-60.142
1747597777.73,0.127,0.036,-0.217,-0.218,-0.209,0.164,-83.150,-50.510,-60.161
1747597777.75,0.064,0.106,-0.088,-0.201,0.093,0.154,-83.422,-51.508,-61.029
1747597777.77,0.080,-0.079,0.085,-0.283,0.064,0.277,-83.784,-51.736,-61.449
1747597777.79,0.036,-0.081,0.124,-0.300,-0.475,0.204,-84.218,-52.864,-62.341
1747597777.81,0.086,-0.013,0.005,-0.354,-0.643,0.131,-84.595,-55.533,-64.332
1747597777.83,0.144,0.020,0.031,-0.141,-0.658,0.002,-84.828,-58.597,-66.692
1747597777.85,-0.043,0.090,-0.020,0.088,-0.672,-0.089,-84.779,-59.880,-67.181
1747597777.87,0.007,0.066,-0.062,0.133,-0.357,0.073,-84.687,-59.271,-65.972
1747597777.89,0.142,0.033,0.008,0.046,-0.164,0.257,-84.797,-57.412,-63.808
1747597777.91,0.157,-0.002,0.092,-0.049,0.055,0.292,-85.075,-55.505,-61.849
1747597777.93,0.066,0.004,0.123,-0.101,0.123,0.183,-85.358,-54.334,-60.775
1747597777.95,0.044,-0.005,0.108,-0.120,0.103,0.051,-85.539,-54.567,-61.156
1747597777.97,0.071,0.033,0.073,-0.119,0.006,-0.016,-85.627,-55.903,-62.553
1747597777.99,0.106,0.022,0.051,-0.101,0.013,-0.004,-85.687,-57.425,-64.084
1747597778.01,0.109,-0.003,0.028,-0.056,0.036,-0.005,-85.731,-58.444,-65.132
1747597778.03,0.076,0.003,-0.023,0.027,0.161,-0.011,-85.731,-58.563,-65.359
1747597778.05,0.034,0.012,-0.044,0.070,0.175,-0.036,-85.685,-57.919,-64.916
1747597778.07,0.012,0.006,-0.038,0.090,0.194,-0.078,-85.587,-57.205,-64.410
1747597778.09,0.041,0.016,-0.019,0.159,0.166,-0.120,-85.416,-56.293,-63.703
1747597778.11,0.085,0.009,0.003,0.207,0.154,-0.113,-85.188,-54.990,-62.572
1747597778.13,0.167,0.010,0.062,0.212,0.182,-0.002,-84.983,-52.880,-60.659
1747597778.15,0.198,0.017,0.118,0.236,-0.039,0.064,-84.868,-50.245,-58.112
1747597778.17,0.118,-0.036,0.101,0.282,-0.153,-0.013,-84.707,-47.692,-55.421
1747597778.19,0.035,-0.028,0.066,0.370,-0.348,-0.170,-84.379,-45.811,-53.260
1747597778.21,-0.060,0.012,-0.047,0.361,-0.660,-0.309,-83.888,-45.285,-52.160
1747597778.23,-0.124,0.024,-0.127,0.559,-0.495,-0.521,-83.220,-45.895,-52.012
1747597778.25,-0.210,0.047,-0.100,0.658,0.276,-0.615,-82.202,-45.628,-51.590
1747597778.27,-0.319,0.001,0.101,0.262,0.635,-0.120,-81.505,-44.488,-51.036
1747597778.29,-0.245,-0.132,0.061,-0.160,1.070,0.165,-81.510,-43.164,-50.640
1747597778.31,0.240,-0.095,0.153,-0.101,0.919,0.308,-81.847,-41.277,-50.011
1747597778.33,0.313,0.049,-0.084,0.107,0.014,0.046,-81.988,-39.509,-48.737
1747597778.35,0.244,0.051,-0.223,0.236,-0.240,-0.245,-81.751,-39.461,-48.521
1747597778.37,0.043,0.044,-0.195,0.398,-0.429,-0.385,-81.242,-40.191,-48.891
1747597778.39,-0.076,0.096,-0.151,0.502,-0.703,-0.528,-80.502,-41.167,-49.210
1747597778.41,0.024,0.155,-0.015,0.506,-0.687,-0.598,-79.637,-42.619,-49.848
1747597778.43,0.046,0.116,0.029,0.660,-0.629,-0.547,-78.712,-43.516,-50.011
1747597778.45,-0.036,0.100,-0.050,0.586,-1.068,-0.431,-77.762,-43.896,-49.433
1747597778.47,-0.081,-0.019,-0.125,0.466,-1.036,-0.264,-77.092,-44.684,-48.940
1747597778.49,-0.189,-0.088,0.011,0.890,-0.456,-0.257,-76.390,-44.227,-47.577
1747597778.51,-0.298,0.010,0.157,1.239,0.313,-0.427,-75.163,-41.956,-45.129
1747597778.53,-0.200,-0.144,0.306,0.647,0.728,-0.181,-74.073,-39.766,-43.522
1747597778.55,-0.055,-0.267,0.269,0.351,0.751,0.166,-73.660,-37.686,-42.255
1747597778.57,0.037,-0.187,0.312,0.055,0.648,0.163,-73.604,-35.800,-41.150
1747597778.59,0.107,-0.176,0.335,-0.039,0.225,0.042,-73.687,-35.008,-40.859
1747597778.61,0.072,-0.257,0.216,0.204,0.028,0.060,-73.639,-34.657,-40.601
1747597778.63,0.066,-0.282,0.095,0.464,-0.110,0.346,-73.449,-33.350,-39.215
1747597778.65,-0.043,-0.005,-0.125,0.783,-0.402,0.345,-73.095,-31.116,-36.585
1747597778.67,-0.399,0.501,-0.446,1.137,-0.690,0.008,-72.241,-29.452,-34.157
1747597778.69,-0.569,0.567,-0.456,1.152,-0.211,-0.029,-71.016,-28.169,-32.170
1747597778.71,-0.360,0.095,0.083,0.828,1.204,0.034,-70.037,-26.226,-30.646
1747597778.73,-0.168,-0.283,0.365,0.785,1.878,0.382,-69.283,-22.734,-28.987
1747597778.75,-0.012,-0.338,0.247,0.767,1.164,0.719,-68.707,-18.593,-26.401
1747597778.77,0.330,-0.095,0.017,0.963,0.647,0.582,-67.990,-14.974,-23.576
1747597778.78,0.496,0.214,-0.077,1.109,0.214,0.100,-66.925,-12.777,-21.755
1747597778.81,0.237,0.232,-0.104,1.144,-0.046,-0.146,-65.632,-12.257,-21.205
1747597778.82,-0.015,-0.061,0.088,1.031,-0.291,0.079,-64.385,-12.031,-20.696
1747597778.84,0.144,-0.149,0.126,1.006,-0.291,0.251,-63.324,-11.458,-19.641
1747597778.86,0.259,0.045,0.097,1.016,-0.308,0.101,-62.212,-10.942,-18.632
1747597778.88,0.104,0.117,0.108,1.043,-0.298,0.103,-61.092,-10.743,-17.924
1747597778.90,-0.035,0.008,0.001,1.072,0.166,0.225,-59.923,-10.107,-17.013
1747597778.92,-0.242,-0.074,-0.065,1.106,0.331,0.042,-58.731,-9.133,-16.232
1747597778.94,-0.318,-0.124,-0.159,1.111,0.332,-0.075,-57.469,-8.526,-15.860
1747597778.96,-0.016,-0.061,0.042,1.127,0.347,-0.115,-56.191,-7.990,-15.666
1747597778.98,0.221,0.013,-0.014,1.073,0.099,0.018,-54.944,-7.610,-15.422
1747597779.00,0.452,-0.043,-0.064,1.140,-0.201,0.201,-53.721,-7.233,-14.810
1747597779.02,0.236,-0.074,-0.113,1.181,-0.421,0.089,-52.421,-7.127,-14.143
1747597779.04,-0.038,-0.040,-0.045,1.142,-0.234,0.038,-51.105,-7.275,-13.689
1747597779.06,-0.027,-0.036,0.058,1.088,-0.046,0.089,-49.851,-7.101,-13.218
1747597779.08,-0.070,-0.065,-0.023,1.083,0.002,0.129,-48.637,-6.808,-12.690
1747597779.10,-0.067,0.022,0.025,1.093,-0.076,-0.035,-47.421,-6.593,-12.267
1747597779.12,-0.050,0.097,0.050,1.063,-0.027,-0.185,-46.179,-6.644,-12.169
1747597779.14,0.009,0.044,0.050,1.040,0.060,-0.278,-44.957,-6.747,-12.220
1747597779.16,0.019,0.042,0.063,1.101,0.047,-0.331,-43.698,-6.877,-12.372
1747597779.18,-0.020,0.104,0.048,1.107,-0.018,-0.251,-42.408,-7.007,-12.530
1747597779.20,-0.031,0.087,-0.010,1.070,0.017,-0.222,-41.140,-7.146,-12.614
1747597779.22,-0.010,-0.014,0.022,1.054,0.042,-0.267,-39.898,-7.212,-12.696
1747597779.24,-0.010,-0.055,-0.008,1.052,-0.012,-0.206,-38.668,-7.308,-12.744
1747597779.26,0.127,0.022,0.058,1.028,0.002,-0.328,-37.447,-7.421,-12.846
1747597779.28,0.185,0.060,0.080,1.101,-0.056,-0.299,-36.193,-7.579,-13.007
1747597779.30,0.115,0.013,-0.018,1.071,-0.232,-0.184,-34.915,-7.824,-13.025
1747597779.32,0.004,-0.031,-0.026,1.037,-0.202,-0.132,-33.706,-8.081,-12.920
1747597779.34,-0.017,0.050,0.063,1.019,-0.076,-0.109,-32.528,-8.220,-12.791
1747597779.36,0.052,0.111,0.019,1.051,-0.178,-0.119,-31.334,-8.328,-12.641
1747597779.38,0.099,0.096,-0.004,1.072,-0.317,-0.132,-30.116,-8.599,-12.499
1747597779.40,0.038,0.017,0.018,1.081,-0.313,-0.148,-28.882,-8.950,-12.340
1747597779.42,-0.069,-0.039,0.046,1.092,-0.257,-0.225,-27.613,-9.275,-12.223
1747597779.44,-0.107,-0.078,0.023,1.053,-0.113,-0.306,-26.344,-9.557,-12.210
1747597779.46,-0.023,-0.119,0.002,1.058,-0.101,-0.243,-25.116,-9.707,-12.191
1747597779.48,0.103,-0.059,-0.064,1.004,-0.092,-0.099,-23.921,-9.780,-12.020
1747597779.50,0.152,0.085,-0.023,1.040,-0.279,-0.002,-22.762,-9.950,-11.726
1747597779.52,0.134,0.159,0.049,1.108,-0.359,-0.033,-21.552,-10.231,-11.361
1747597779.54,0.015,0.088,0.024,1.167,-0.305,-0.113,-20.251,-10.573,-11.069
1747597779.56,-0.069,-0.067,-0.022,1.089,-0.116,-0.184,-18.944,-10.787,-10.859
1747597779.58,-0.131,-0.173,-0.055,1.018,0.029,-0.168,-17.723,-10.812,-10.705
1747597779.60,-0.054,-0.061,0.017,0.951,-0.014,-0.115,-16.593,-10.776,-10.524
1747597779.62,0.104,0.164,0.076,1.007,-0.182,-0.138,-15.470,-10.861,-10.310
1747597779.64,0.062,0.178,-0.016,1.083,-0.362,-0.214,-14.261,-11.189,-10.135
1747597779.66,-0.051,0.040,-0.008,1.069,-0.094,-0.318,-12.994,-11.489,-10.057
1747597779.68,-0.121,-0.088,0.003,1.030,0.101,-0.351,-11.743,-11.491,-10.062
1747597779.70,-0.096,-0.039,0.045,1.014,0.068,-0.358,-10.524,-11.420,-10.088
1747597779.72,0.023,0.072,0.050,1.099,-0.086,-0.439,-9.255,-11.463,-10.183
1747597779.74,0.044,0.112,0.012,1.176,-0.074,-0.487,-7.871,-11.607,-10.325
1747597779.76,-0.024,0.024,-0.044,1.200,-0.029,-0.504,-6.399,-11.728,-10.561
1747597779.78,-0.111,-0.033,-0.002,1.184,0.137,-0.407,-4.984,-11.681,-10.661
1747597779.80,-0.047,0.065,0.129,1.174,0.166,-0.477,-3.579,-11.505,-10.763
1747597779.82,0.101,0.057,-0.008,1.197,-0.137,-0.561,-2.146,-11.505,-10.997
1747597779.84,0.098,0.038,-0.036,1.223,-0.102,-0.603,-0.670,-11.689,-11.319
1747597779.86,-0.080,-0.056,0.007,1.179,0.121,-0.543,0.824,-11.673,-11.676
1747597779.88,-0.075,-0.102,-0.022,1.101,0.224,-0.445,2.174,-11.422,-11.913
1747597779.90,-0.018,0.064,0.040,1.140,0.161,-0.464,3.545,-11.187,-12.153
1747597779.92,0.092,0.208,0.001,1.157,-0.119,-0.374,4.936,-11.117,-12.425
1747597779.94,0.081,0.097,-0.055,1.145,-0.292,-0.483,6.332,-11.347,-12.697
1747597779.96,0.108,-0.050,-0.053,1.126,-0.266,-0.440,7.720,-11.627,-12.977
1747597779.98,-0.007,-0.101,-0.062,1.120,0.030,-0.265,9.059,-11.785,-13.120
1747597780.00,-0.010,0.070,-0.043,1.134,0.068,-0.289,10.393,-11.655,-13.180
1747597780.02,0.059,0.140,0.001,1.108,0.151,-0.276,11.694,-11.489,-13.222
1747597780.04,0.033,0.050,-0.079,1.068,-0.119,-0.278,12.996,-11.478,-13.366
1747597780.06,0.081,0.050,-0.146,1.060,-0.296,-0.248,14.236,-11.677,-13.454
1747597780.08,0.001,0.051,-0.100,1.010,-0.373,-0.219,15.450,-12.104,-13.507
1747597780.10,-0.066,-0.006,-0.020,0.939,-0.125,-0.227,16.588,-12.409,-13.567
1747597780.12,-0.037,0.056,-0.051,0.927,-0.093,-0.288,17.705,-12.473,-13.693
1747597780.14,-0.002,-0.003,-0.056,0.855,-0.098,-0.307,18.765,-12.515,-13.874
1747597780.16,0.000,-0.075,-0.050,0.785,-0.097,-0.294,19.746,-12.576,-14.093
1747597780.18,0.086,-0.005,-0.098,0.771,-0.245,-0.196,20.673,-12.748,-14.226
1747597780.20,0.007,-0.057,-0.051,0.761,-0.164,-0.144,21.553,-13.010,-14.245
1747597780.22,-0.051,-0.095,-0.030,0.660,-0.136,-0.151,22.384,-13.183,-14.322
1747597780.24,0.051,-0.070,-0.073,0.585,-0.063,0.065,23.068,-13.352,-14.349
1747597780.26,0.036,-0.104,-0.043,0.525,0.026,0.132,23.672,-13.417,-14.231
1747597780.28,0.041,0.002,-0.086,0.519,-0.029,0.141,24.220,-13.551,-13.999
1747597780.30,0.013,0.009,-0.043,0.458,0.052,0.078,24.738,-13.645,-13.800
1747597780.32,-0.023,-0.028,-0.043,0.387,0.105,0.130,25.169,-13.661,-13.599
1747597780.34,-0.049,-0.060,-0.049,0.319,0.110,0.182,25.514,-13.639,-13.404
1747597780.36,-0.036,0.015,-0.102,0.266,0.067,0.138,25.792,-13.684,-13.213
1747597780.38,-0.039,0.008,-0.073,0.204,0.030,0.079,26.023,-13.721,-13.071
1747597780.40,-0.092,-0.041,-0.036,0.152,0.101,0.050,26.194,-13.695,-13.019
1747597780.42,-0.056,0.006,-0.054,0.120,0.076,0.006,26.343,-13.628,-13.016
1747597780.44,-0.018,0.024,-0.066,0.075,0.021,-0.003,26.450,-13.578,-13.033
1747597780.46,-0.054,-0.009,-0.070,0.064,-0.018,-0.004,26.529,-13.584,-13.141
1747597780.48,-0.030,0.004,-0.041,0.013,0.048,0.004,26.574,-13.578,-13.195
1747597780.50,-0.027,-0.021,0.016,-0.041,0.055,-0.010,26.558,-13.508,-13.254
1747597780.52,0.006,-0.007,-0.002,-0.059,0.002,-0.032,26.502,-13.453,-13.351
1747597780.54,0.001,0.007,-0.025,-0.038,-0.004,-0.027,26.457,-13.443,-13.441
1747597780.56,-0.016,-0.012,0.012,-0.022,0.089,-0.009,26.430,-13.375,-13.513
1747597780.58,0.019,-0.010,0.033,0.028,0.157,0.012,26.432,-13.235,-13.561
1747597780.60,0.056,-0.004,-0.017,0.049,0.036,0.026,26.470,-13.139,-13.565
1747597780.62,0.010,0.021,-0.016,0.067,0.039,0.030,26.528,-13.125,-13.572
1747597780.64,-0.026,0.017,0.011,0.112,0.070,0.036,26.614,-13.099,-13.557
1747597780.66,-0.008,0.001,0.020,0.110,0.061,0.001,26.741,-13.048,-13.557
1747597780.68,0.034,-0.021,0.005,0.095,0.044,-0.032,26.868,-12.984,-13.604
1747597780.70,0.001,-0.010,0.010,0.055,0.152,-0.076,26.968,-12.840,-13.704
1747597780.72,-0.114,-0.008,-0.065,-0.051,0.256,-0.105,26.991,-12.583,-13.861
1747597780.74,-0.135,-0.079,-0.131,-0.248,0.264,-0.105,26.856,-12.200,-14.098
1747597780.76,-0.094,-0.166,-0.111,-0.502,0.344,-0.123,26.469,-11.721,-14.387
1747597780.78,-0.060,-0.171,-0.146,-0.778,0.319,-0.061,25.756,-11.255,-14.707
1747597780.80,-0.080,-0.084,-0.126,-0.949,0.460,-0.022,24.804,-10.713,-14.981
1747597780.82,-0.122,-0.072,-0.159,-1.139,0.585,0.018,23.625,-10.031,-15.254
1747597780.84,-0.057,-0.073,-0.149,-1.295,0.509,0.099,22.242,-9.298,-15.457
1747597780.86,0.049,-0.070,-0.207,-1.471,0.270,0.307,20.651,-8.829,-15.501
1747597780.88,0.113,-0.080,-0.247,-1.532,-0.000,0.501,18.874,-8.766,-15.269
1747597780.90,0.096,-0.064,-0.213,-1.486,-0.246,0.608,17.069,-9.026,-14.845
1747597780.92,0.051,-0.034,-0.037,-1.629,0.069,0.574,15.163,-9.229,-14.398
1747597780.94,-0.016,-0.077,-0.058,-1.716,0.181,0.605,13.174,-9.155,-13.959
1747597780.96,0.044,-0.036,-0.109,-1.741,0.071,0.701,11.108,-9.084,-13.426
1747597780.98,0.063,-0.050,-0.101,-1.753,-0.003,0.721,9.010,-9.154,-12.863
1747597781.00,0.094,-0.079,-0.055,-1.771,-0.098,0.690,6.888,-9.253,-12.297
1747597781.02,0.056,-0.080,-0.033,-1.766,-0.097,0.627,4.781,-9.436,-11.775
1747597781.04,0.054,-0.067,-0.034,-1.805,-0.218,0.608,2.657,-9.624,-11.291
1747597781.06,0.044,-0.064,-0.037,-1.798,-0.164,0.617,0.513,-9.865,-10.810
1747597781.08,0.020,-0.055,0.001,-1.801,-0.132,0.539,-1.632,-10.035,-10.363
1747597781.10,0.020,-0.085,-0.004,-1.838,-0.087,0.607,-3.778,-10.126,-9.920
1747597781.12,0.013,-0.095,-0.004,-1.857,-0.164,0.601,-5.984,-10.259,-9.411
1747597781.14,-0.049,-0.085,0.030,-1.838,-0.143,0.423,-8.170,-10.416,-9.001
1747597781.16,-0.101,-0.126,0.072,-1.908,-0.110,0.280,-10.331,-10.535,-8.803
1747597781.18,-0.042,-0.159,0.053,-1.922,-0.207,0.345,-12.552,-10.739,-8.664
1747597781.20,0.043,-0.092,0.096,-1.902,-0.179,0.432,-14.785,-10.943,-8.414
1747597781.22,0.059,-0.026,0.007,-1.854,-0.223,0.372,-16.985,-11.162,-8.160
1747597781.24,0.064,-0.060,-0.012,-1.820,-0.313,0.361,-19.116,-11.473,-7.969
1747597781.26,0.095,-0.126,0.058,-1.753,-0.252,0.438,-21.208,-11.787,-7.724
1747597781.28,0.118,-0.137,0.056,-1.697,-0.170,0.587,-23.255,-11.967,-7.332
1747597781.30,0.105,-0.073,0.045,-1.612,-0.011,0.649,-25.238,-11.928,-6.787
1747597781.32,0.032,0.002,-0.026,-1.657,0.042,0.625,-27.222,-11.727,-6.227
1747597781.34,-0.020,0.011,-0.024,-1.653,0.004,0.605,-29.208,-11.522,-5.674
1747597781.36,0.045,-0.009,0.016,-1.615,-0.102,0.563,-31.176,-11.423,-5.153
1747597781.38,0.089,-0.038,0.102,-1.592,-0.045,0.497,-33.085,-11.357,-4.714
1747597781.40,0.040,-0.057,0.031,-1.576,-0.067,0.487,-34.952,-11.294,-4.303
1747597781.42,-0.028,-0.025,0.058,-1.596,0.103,0.470,-36.851,-11.154,-3.884
1747597781.44,-0.143,0.057,0.097,-1.589,0.273,0.468,-38.740,-10.770,-3.504
1747597781.46,-0.132,0.118,0.037,-1.580,0.229,0.474,-40.611,-10.335,-3.103
1747597781.48,0.121,0.059,0.028,-1.578,0.253,0.392,-42.475,-9.880,-2.719
1747597781.50,0.185,-0.032,0.011,-1.599,0.030,0.407,-44.328,-9.571,-2.428
1747597781.52,0.142,-0.061,0.011,-1.657,-0.056,0.529,-46.250,-9.388,-1.997
1747597781.54,0.122,0.013,0.081,-1.684,-0.017,0.490,-48.230,-9.094,-1.477
1747597781.56,-0.025,0.110,0.061,-1.685,-0.239,0.503,-50.234,-8.931,-1.029
1747597781.58,0.014,0.153,0.032,-1.691,-0.464,0.738,-52.252,-8.848,-0.309
1747597781.60,0.154,0.051,0.016,-1.595,-0.461,0.583,-54.231,-8.694,0.613
1747597781.62,0.010,-0.132,-0.055,-1.510,-0.710,0.337,-56.063,-9.004,1.101
1747597781.64,-0.279,-0.203,-0.001,-1.466,-0.688,0.159,-57.787,-9.853,1.191
1747597781.66,-0.434,-0.123,0.073,-1.450,-0.403,0.022,-59.441,-10.809,0.872
1747597781.68,-0.409,-0.053,0.055,-1.514,0.040,0.146,-61.093,-11.475,0.444
1747597781.70,-0.223,-0.060,0.080,-1.427,0.152,0.320,-62.834,-11.451,0.359
1747597781.72,-0.057,-0.057,-0.109,-1.294,0.076,0.415,-64.402,-11.093,0.708
1747597781.74,0.169,-0.011,-0.087,-1.335,0.284,0.294,-65.975,-10.578,1.127
1747597781.76,0.124,-0.030,0.047,-1.265,0.344,0.171,-67.489,-10.241,1.149
1747597781.78,0.083,-0.157,0.049,-1.270,0.278,0.207,-68.942,-9.987,1.048
1747597781.80,0.313,-0.241,-0.124,-1.217,0.025,0.439,-70.413,-9.491,1.456
1747597781.81,0.340,-0.035,-0.227,-1.131,-0.317,0.174,-71.813,-9.113,2.044
1747597781.83,-0.110,0.241,-0.127,-0.885,-0.489,-0.153,-72.933,-10.323,1.365
1747597781.85,-0.191,-0.028,0.022,-0.737,-0.059,-0.077,-73.803,-11.774,0.235
1747597781.87,-0.095,-0.204,0.076,-0.756,0.337,0.105,-74.627,-12.096,-0.263
1747597781.89,-0.048,-0.042,0.046,-0.812,0.421,0.146,-75.540,-11.828,-0.411
1747597781.91,0.193,0.016,-0.048,-0.748,0.593,0.201,-76.462,-11.158,-0.288
1747597781.93,0.291,0.036,-0.020,-0.616,0.219,0.040,-77.259,-10.629,-0.267
1747597781.95,0.089,0.072,-0.024,-0.475,-0.081,-0.194,-77.850,-11.525,-1.241
1747597781.97,-0.029,0.023,0.013,-0.400,0.029,-0.316,-78.273,-13.556,-3.258
1747597781.99,0.000,0.020,0.150,-0.422,0.169,-0.185,-78.643,-15.369,-5.297
1747597782.01,-0.031,0.001,0.131,-0.458,0.219,-0.076,-79.082,-16.581,-6.771
1747597782.03,0.052,0.051,0.136,-0.546,0.407,0.008,-79.628,-17.285,-7.892
1747597782.05,0.056,0.030,0.086,-0.503,0.419,-0.064,-80.212,-17.817,-8.956
1747597782.07,-0.006,-0.046,0.133,-0.511,0.218,0.100,-80.747,-18.454,-10.054
1747597782.09,-0.020,-0.130,-0.100,-0.538,0.037,0.076,-81.367,-18.941,-10.691
1747597782.11,0.162,-0.003,-0.129,-0.383,-0.013,-0.013,-81.896,-19.781,-11.631
1747597782.13,0.051,0.138,-0.077,-0.157,-0.224,-0.186,-82.131,-21.510,-13.273
1747597782.15,-0.087,0.068,-0.053,-0.063,-0.210,-0.180,-82.157,-23.564,-15.143
1747597782.17,-0.195,-0.058,-0.059,-0.004,-0.128,-0.092,-82.127,-24.931,-16.360
1747597782.19,-0.257,-0.129,0.032,0.020,0.128,-0.108,-82.066,-25.513,-17.006
1747597782.21,-0.214,-0.025,0.024,0.027,0.449,-0.123,-81.994,-26.104,-17.972
1747597782.23,-0.023,0.101,-0.006,0.099,0.638,-0.000,-81.888,-25.666,-18.251
1747597782.25,0.099,0.072,-0.017,0.088,0.460,0.035,-81.805,-24.511,-17.773
1747597782.27,0.142,-0.025,0.076,0.071,0.281,-0.027,-81.725,-23.761,-17.504
1747597782.29,0.073,-0.041,0.135,0.088,0.059,-0.100,-81.616,-23.805,-17.828
1747597782.31,0.023,-0.035,0.044,0.076,-0.116,-0.105,-81.476,-24.326,-18.379
1747597782.33,0.035,0.022,0.030,0.060,-0.170,-0.085,-81.370,-24.946,-18.913
1747597782.35,0.034,0.012,-0.027,0.123,-0.207,-0.031,-81.242,-25.293,-19.097
1747597782.37,0.073,-0.025,-0.034,0.165,-0.113,0.032,-81.096,-25.041,-18.713
1747597782.39,0.026,-0.082,-0.068,0.296,-0.014,0.017,-80.887,-24.230,-17.860
1747597782.41,-0.037,-0.011,-0.113,0.451,0.156,-0.064,-80.479,-23.250,-16.999
1747597782.43,-0.082,0.096,-0.054,0.462,0.129,-0.097,-79.949,-22.389,-16.392
1747597782.45,-0.145,0.048,0.058,0.361,0.041,-0.084,-79.463,-21.887,-16.015
1747597782.47,-0.038,-0.085,0.167,0.311,0.222,0.029,-79.111,-21.176,-15.515
1747597782.49,0.086,-0.061,0.102,0.423,0.119,0.053,-78.745,-19.940,-14.586
1747597782.51,0.085,0.070,-0.003,0.627,0.082,-0.020,-78.190,-18.762,-13.529
1747597782.53,-0.006,0.087,0.077,0.688,0.094,-0.106,-77.438,-17.854,-12.768
1747597782.55,-0.104,-0.003,0.070,0.675,0.011,-0.156,-76.643,-17.401,-12.408
1747597782.57,-0.116,-0.047,0.091,0.649,-0.003,-0.169,-75.877,-17.208,-12.282
1747597782.59,-0.122,-0.014,0.011,0.718,0.065,-0.153,-75.080,-16.989,-12.109
1747597782.61,-0.059,0.010,0.029,0.827,0.244,-0.135,-74.186,-16.467,-11.806
1747597782.63,-0.024,0.003,-0.025,0.816,0.420,0.019,-73.248,-15.466,-11.211
1747597782.65,0.035,-0.036,0.049,0.840,0.539,0.190,-72.367,-13.728,-10.042
1747597782.67,0.113,-0.043,-0.005,0.841,0.518,0.249,-71.493,-11.681,-8.581
1747597782.69,0.159,-0.029,0.012,0.881,0.250,0.066,-70.570,-10.097,-7.478
1747597782.71,0.041,0.015,-0.083,1.007,-0.114,-0.136,-69.497,-9.687,-7.148
1747597782.73,-0.027,0.013,-0.020,0.966,-0.005,-0.170,-68.338,-9.771,-7.194
1747597782.75,-0.110,-0.016,0.073,0.950,0.086,-0.057,-67.225,-9.601,-7.112
1747597782.77,-0.097,-0.018,0.057,0.902,0.329,0.059,-66.194,-8.943,-6.710
1747597782.79,0.037,0.016,0.048,0.933,0.384,0.077,-65.179,-7.990,-6.178
1747597782.81,0.088,0.041,0.041,0.960,0.295,-0.046,-64.092,-7.235,-5.835
1747597782.83,-0.027,-0.005,0.040,0.914,0.241,-0.172,-63.016,-6.923,-5.872
1747597782.85,-0.124,0.007,0.020,0.857,0.366,-0.181,-61.993,-6.799,-6.112
1747597782.87,0.045,0.036,0.057,0.889,0.364,-0.142,-60.971,-6.438,-6.262
1747597782.89,0.160,0.065,0.020,0.885,0.170,-0.103,-59.963,-6.200,-6.373
1747597782.91,0.227,-0.021,0.015,0.892,-0.096,-0.051,-58.944,-6.111,-6.354
1747597782.93,0.178,-0.083,-0.036,0.866,-0.205,-0.000,-57.928,-6.186,-6.257
1747597782.95,0.040,-0.070,-0.038,0.839,-0.199,0.100,-56.965,-6.195,-5.992
1747597782.97,0.030,-0.003,-0.004,0.794,-0.035,0.075,-56.066,-5.986,-5.640
1747597782.99,-0.002,0.046,0.020,0.821,-0.068,0.007,-55.157,-5.844,-5.420
1747597783.01,-0.007,0.019,0.023,0.901,-0.013,-0.021,-54.177,-5.762,-5.263
1747597783.03,-0.040,-0.022,-0.038,0.905,0.049,-0.075,-53.130,-5.679,-5.183
1747597783.05,-0.090,-0.038,0.024,0.825,0.013,-0.066,-52.145,-5.604,-5.185
1747597783.07,-0.047,-0.003,-0.006,0.785,-0.029,-0.028,-51.230,-5.575,-5.115
1747597783.09,0.017,0.051,0.039,0.856,-0.105,-0.093,-50.295,-5.617,-5.073
1747597783.11,0.019,0.061,0.015,0.904,-0.017,-0.190,-49.265,-5.773,-5.148
1747597783.13,0.014,0.031,-0.011,0.828,0.004,-0.168,-48.266,-5.914,-5.335
1747597783.15,0.061,-0.034,0.018,0.830,0.027,0.033,-47.317,-5.866,-5.257
1747597783.17,0.122,-0.012,0.032,0.942,-0.062,0.016,-46.325,-5.724,-5.013
1747597783.19,0.040,0.008,0.010,0.981,-0.163,-0.098,-45.224,-5.789,-4.911
1747597783.21,-0.103,-0.018,-0.007,0.950,-0.051,-0.181,-44.107,-5.993,-4.977
1747597783.23,-0.129,-0.052,0.028,0.892,0.055,-0.085,-43.030,-6.020,-5.020
1747597783.25,-0.057,-0.033,-0.003,0.828,0.077,0.023,-42.070,-5.859,-4.889
1747597783.27,0.018,0.038,0.042,0.895,-0.032,-0.044,-41.088,-5.749,-4.743
1747597783.29,-0.059,0.112,0.037,0.939,-0.083,-0.171,-40.031,-5.846,-4.747
1747597783.31,-0.105,0.091,0.049,0.915,0.035,-0.274,-38.936,-5.993,-4.913
1747597783.33,-0.058,-0.001,0.032,0.867,0.038,-0.221,-37.895,-6.098,-5.120
1747597783.35,0.034,-0.040,0.008,0.843,-0.042,-0.086,-36.914,-6.148,-5.174
1747597783.37,0.129,-0.002,0.013,0.906,-0.104,-0.012,-35.919,-6.189,-5.059
1747597783.39,0.101,0.066,-0.005,0.956,-0.201,-0.056,-34.859,-6.303,-4.909
1747597783.41,0.060,0.082,-0.015,0.985,-0.208,-0.081,-33.746,-6.520,-4.822
1747597783.43,0.059,0.032,0.007,0.923,-0.178,-0.087,-32.649,-6.722,-4.755
1747597783.45,0.038,-0.010,0.017,0.915,-0.212,0.001,-31.604,-6.904,-4.632
1747597783.47,0.011,-0.005,0.054,0.962,-0.169,-0.038,-30.542,-7.038,-4.439
1747597783.49,-0.127,0.035,0.021,0.999,-0.184,-0.218,-29.404,-7.243,-4.401
1747597783.51,-0.131,0.063,0.038,0.991,-0.064,-0.335,-28.235,-7.491,-4.553
1747597783.53,-0.059,0.106,0.057,0.953,-0.146,-0.230,-27.086,-7.690,-4.728
1747597783.55,0.093,0.070,-0.016,0.931,-0.233,-0.030,-26.001,-7.941,-4.638
1747597783.57,0.135,0.042,-0.013,0.974,-0.272,-0.087,-24.921,-8.154,-4.471
1747597783.59,0.010,-0.022,0.029,1.005,-0.231,-0.128,-23.782,-8.457,-4.340
1747597783.61,0.106,-0.053,0.056,1.068,-0.103,-0.160,-22.587,-8.630,-4.257
1747597783.63,0.118,0.003,0.011,1.093,-0.298,-0.090,-21.346,-8.813,-4.140
1747597783.65,0.078,0.067,-0.022,1.101,-0.338,0.009,-20.107,-9.151,-3.888
1747597783.67,-0.001,0.027,0.041,1.101,-0.167,-0.106,-18.852,-9.380,-3.652
1747597783.69,-0.065,-0.102,0.057,1.135,-0.053,-0.151,-17.568,-9.498,-3.518
1747597783.71,0.053,-0.136,0.055,1.172,0.023,-0.194,-16.242,-9.482,-3.442
1747597783.73,0.077,-0.015,-0.020,1.223,-0.157,-0.128,-14.858,-9.558,-3.347
1747597783.75,0.074,0.105,-0.003,1.232,-0.145,-0.059,-13.453,-9.713,-3.153
1747597783.77,0.054,-0.008,0.015,1.231,-0.085,-0.018,-12.072,-9.787,-2.893
1747597783.79,0.047,-0.195,-0.057,1.313,-0.087,0.043,-10.644,-9.857,-2.533
1747597783.81,0.033,-0.055,0.052,1.422,-0.052,-0.187,-9.092,-9.903,-2.281
1747597783.83,-0.151,0.168,0.050,1.345,-0.059,-0.297,-7.483,-9.967,-2.201
1747597783.85,-0.234,0.168,0.009,1.249,0.056,-0.438,-5.944,-9.988,-2.304
1747597783.87,-0.158,0.042,-0.026,1.165,0.093,-0.548,-4.487,-9.938,-2.566
1747597783.89,0.013,-0.081,-0.035,1.217,-0.029,-0.579,-3.071,-9.925,-2.935
1747597783.91,0.139,0.001,0.031,1.266,-0.101,-0.588,-1.556,-10.019,-3.292
1747597783.93,0.049,0.117,0.035,1.297,-0.049,-0.590,0.014,-10.127,-3.688
1747597783.95,-0.059,0.052,-0.030,1.241,-0.004,-0.433,1.554,-10.168,-3.992
1747597783.97,-0.020,-0.084,-0.051,1.206,0.099,-0.386,3.014,-10.070,-4.205
1747597783.99,0.146,-0.105,-0.034,1.172,-0.093,-0.304,4.411,-10.023,-4.368
1747597784.01,0.127,0.032,-0.054,1.256,-0.229,-0.305,5.840,-10.197,-4.448
1747597784.03,0.013,0.097,-0.035,1.226,-0.343,-0.251,7.292,-10.536,-4.498
1747597784.05,-0.128,0.108,-0.042,1.198,-0.259,-0.358,8.722,-10.876,-4.600
1747597784.07,-0.112,0.025,-0.024,1.079,-0.266,-0.482,10.102,-11.120,-4.857
1747597784.09,0.056,-0.126,-0.063,1.004,-0.333,-0.380,11.345,-11.425,-5.168
1747597784.11,0.048,-0.008,-0.079,0.979,-0.378,-0.331,12.532,-11.797,-5.364
1747597784.13,-0.061,0.108,-0.062,0.953,-0.240,-0.454,13.714,-12.119,-5.631
1747597784.15,-0.103,0.027,0.039,0.840,0.003,-0.581,14.842,-12.182,-6.074
1747597784.17,-0.010,-0.038,-0.049,0.741,0.040,-0.473,15.841,-11.995,-6.584
1747597784.19,0.086,-0.047,-0.145,0.695,-0.139,-0.342,16.735,-11.962,-6.966
1747597784.21,0.083,-0.023,-0.148,0.657,-0.143,-0.220,17.566,-12.099,-7.219
1747597784.23,-0.009,-0.001,-0.073,0.597,-0.007,-0.159,18.310,-12.180,-7.385
1747597784.25,-0.011,0.011,-0.057,0.540,-0.027,-0.150,18.978,-12.172,-7.548
1747597784.27,-0.014,-0.014,-0.079,0.486,-0.100,-0.167,19.587,-12.219,-7.721
1747597784.29,0.002,-0.009,-0.087,0.411,-0.108,-0.161,20.128,-12.321,-7.941
1747597784.31,-0.007,-0.026,-0.071,0.338,-0.062,-0.161,20.583,-12.387,-8.174
1747597784.33,-0.026,0.026,-0.054,0.292,-0.008,-0.183,20.974,-12.384,-8.408
1747597784.35,-0.028,0.011,-0.043,0.255,0.039,-0.185,21.322,-12.299,-8.662
1747597784.37,-0.028,-0.007,-0.057,0.232,0.043,-0.185,21.635,-12.186,-8.953
1747597784.39,0.013,-0.009,-0.059,0.204,0.007,-0.159,21.924,-12.096,-9.209
1747597784.41,0.060,-0.022,-0.060,0.170,0.004,-0.107,22.162,-12.052,-9.432
1747597784.43,0.056,0.014,-0.083,0.129,-0.043,-0.025,22.345,-12.059,-9.593
1747597784.45,0.003,-0.025,-0.081,0.097,0.001,0.021,22.473,-12.093,-9.656
1747597784.47,-0.026,-0.025,-0.044,0.047,0.057,0.012,22.548,-12.085,-9.706
1747597784.49,0.016,-0.049,-0.016,-0.065,0.058,-0.024,22.544,-11.998,-9.820
1747597784.51,-0.005,-0.073,-0.139,-0.222,0.014,-0.009,22.388,-11.949,-10.059
1747597784.53,-0.071,-0.076,-0.161,-0.362,0.110,-0.006,22.068,-11.833,-10.226
1747597784.55,-0.095,-0.104,-0.159,-0.558,0.245,0.049,21.551,-11.615,-10.416
1747597784.57,-0.058,-0.126,-0.122,-0.784,0.315,0.120,20.780,-11.275,-10.539
1747597784.59,-0.003,-0.129,-0.137,-0.957,0.327,0.249,19.744,-10.889,-10.560
1747597784.61,-0.019,-0.115,-0.165,-1.217,0.415,0.480,18.477,-10.552,-10.457
1747597784.63,-0.035,-0.057,-0.183,-1.305,0.356,0.467,16.993,-10.170,-10.219
1747597784.65,-0.080,-0.008,-0.182,-1.400,0.298,0.535,15.376,-9.889,-9.913
1747597784.67,-0.044,-0.013,-0.125,-1.468,0.182,0.553,13.651,-9.699,-9.524
1747597784.69,-0.029,-0.039,-0.083,-1.504,0.102,0.514,11.871,-9.629,-9.138
1747597784.70,-0.078,-0.042,-0.072,-1.527,0.062,0.485,10.060,-9.589,-8.788
1747597784.72,-0.126,0.020,-0.011,-1.536,0.117,0.470,8.250,-9.520,-8.478
1747597784.74,-0.038,0.000,-0.070,-1.547,0.068,0.541,6.408,-9.453,-8.105
1747597784.76,0.060,-0.004,-0.032,-1.540,0.038,0.502,4.567,-9.409,-7.684
1747597784.78,0.055,-0.035,-0.006,-1.527,0.005,0.457,2.745,-9.422,-7.330
1747597784.80,0.039,-0.065,0.010,-1.578,0.023,0.477,0.911,-9.396,-6.981
1747597784.82,-0.000,-0.053,-0.049,-1.581,0.054,0.516,-0.961,-9.364,-6.579
1747597784.84,0.036,-0.062,0.007,-1.580,0.086,0.428,-2.842,-9.247,-6.177
1747597784.86,0.013,-0.081,-0.009,-1.531,-0.014,0.304,-4.656,-9.227,-5.912
1747597784.88,0.019,-0.116,0.045,-1.557,-0.011,0.265,-6.446,-9.238,-5.724
1747597784.90,0.067,-0.139,-0.023,-1.554,0.043,0.382,-8.264,-9.214,-5.457
1747597784.92,0.094,-0.112,0.053,-1.482,0.190,0.390,-10.050,-9.055,-5.104
1747597784.94,0.021,-0.080,-0.022,-1.490,0.151,0.378,-11.784,-8.816,-4.763
1747597784.96,0.069,-0.096,0.098,-1.506,0.160,0.458,-13.557,-8.578,-4.345
1747597784.98,0.090,-0.098,0.056,-1.533,0.068,0.399,-15.349,-8.385,-3.932
1747597785.00,0.004,-0.094,0.014,-1.514,0.106,0.308,-17.109,-8.259,-3.626
1747597785.02,-0.039,-0.086,0.034,-1.543,0.072,0.357,-18.892,-8.125,-3.344
1747597785.04,-0.010,-0.050,0.001,-1.578,0.120,0.407,-20.720,-7.927,-3.009
1747597785.06,0.134,-0.015,0.012,-1.558,-0.017,0.383,-22.565,-7.772,-2.646
1747597785.08,0.131,-0.039,-0.036,-1.516,-0.098,0.396,-24.360,-7.781,-2.307
1747597785.10,0.108,-0.081,0.003,-1.508,-0.090,0.376,-26.128,-7.776,-1.938
1747597785.12,0.019,-0.087,-0.010,-1.539,-0.114,0.381,-27.903,-7.811,-1.609
1747597785.14,-0.034,-0.091,-0.008,-1.577,0.006,0.447,-29.742,-7.744,-1.199
1747597785.16,-0.067,-0.078,0.034,-1.603,0.106,0.402,-31.616,-7.518,-0.751
1747597785.18,-0.108,-0.012,0.069,-1.556,0.107,0.249,-33.460,-7.312,-0.452
1747597785.20,-0.130,0.029,-0.006,-1.551,0.059,0.155,-35.251,-7.214,-0.325
1747597785.22,-0.041,-0.010,0.010,-1.497,0.117,0.153,-36.999,-7.153,-0.258
1747597785.24,0.056,-0.036,0.039,-1.442,0.121,0.197,-38.690,-7.028,-0.168
1747597785.26,0.088,-0.035,-0.013,-1.444,0.032,0.275,-40.351,-6.864,0.017
1747597785.28,-0.008,-0.022,-0.068,-1.464,-0.064,0.222,-42.038,-6.811,0.214
1747597785.30,-0.123,-0.029,-0.001,-1.491,0.064,0.092,-43.743,-6.842,0.284
1747597785.32,-0.141,-0.037,0.058,-1.483,0.179,0.067,-45.429,-6.813,0.194
1747597785.34,-0.075,-0.017,0.001,-1.511,0.183,0.100,-47.132,-6.709,0.114
1747597785.36,0.098,0.026,0.042,-1.506,0.091,0.181,-48.875,-6.600,0.089
1747597785.38,0.235,0.035,0.005,-1.544,-0.131,0.209,-50.618,-6.565,0.218
1747597785.40,0.197,-0.001,-0.038,-1.544,-0.348,0.147,-52.405,-6.836,0.281
1747597785.42,0.059,-0.046,-0.000,-1.555,-0.288,0.091,-54.179,-7.375,0.125
1747597785.44,-0.021,-0.080,0.041,-1.546,-0.178,0.140,-55.924,-7.767,-0.018
1747597785.46,-0.051,-0.064,-0.001,-1.623,-0.135,0.182,-57.765,-8.054,-0.107
1747597785.48,0.033,-0.031,-0.001,-1.558,-0.162,0.235,-59.604,-8.259,-0.119
1747597785.50,0.124,0.010,0.005,-1.507,-0.206,0.203,-61.365,-8.503,-0.199
1747597785.52,0.101,-0.009,-0.021,-1.415,-0.299,0.122,-63.043,-8.877,-0.318
1747597785.54,0.001,-0.043,-0.052,-1.401,-0.203,0.071,-64.637,-9.520,-0.715
1747597785.56,-0.084,-0.095,-0.013,-1.447,-0.116,0.035,-66.268,-10.153,-1.274
1747597785.58,-0.126,-0.069,-0.032,-1.444,-0.145,0.108,-67.887,-10.892,-1.903
1747597785.60,-0.002,-0.010,0.050,-1.407,-0.018,0.080,-69.527,-11.433,-2.447
1747597785.62,-0.023,0.097,-0.066,-1.319,-0.043,-0.244,-71.016,-12.579,-3.674
1747597785.64,-0.027,0.123,-0.050,-1.195,0.032,-0.302,-72.341,-14.593,-5.790
1747597785.66,0.043,-0.068,0.002,-1.191,0.135,-0.192,-73.564,-16.587,-8.061
1747597785.68,0.015,-0.209,-0.046,-1.202,0.171,-0.069,-74.825,-18.268,-10.038
1747597785.70,-0.022,-0.095,0.040,-1.272,0.038,0.014,-76.144,-20.085,-12.107
1747597785.72,0.062,-0.023,0.031,-1.291,-0.008,0.077,-77.547,-22.051,-14.188
1747597785.74,0.018,-0.035,0.018,-1.187,0.099,0.086,-78.882,-24.419,-16.713
1747597785.76,-0.076,-0.013,-0.058,-1.036,0.275,0.084,-80.066,-26.662,-19.255
1747597785.78,-0.063,0.035,-0.055,-0.922,0.577,0.058,-81.090,-28.897,-22.076
1747597785.80,-0.040,0.023,0.024,-0.965,0.505,0.044,-82.036,-31.593,-25.532
1747597785.82,-0.050,-0.007,0.077,-0.944,0.322,-0.009,-82.958,-35.526,-30.079
1747597785.84,0.043,-0.067,0.092,-0.947,0.219,-0.054,-83.783,-41.344,-36.315
1747597785.86,0.120,-0.031,0.070,-0.927,0.086,-0.044,-84.496,-49.035,-44.336
1747597785.88,0.040,0.042,0.023,-0.761,-0.007,-0.068,-85.024,-58.100,-53.557
1747597785.90,-0.020,0.064,-0.025,-0.572,0.143,-0.089,-85.290,-66.260,-61.911
1747597785.92,0.002,-0.016,0.013,-0.471,0.279,-0.064,-85.411,-73.365,-69.385
1747597785.94,-0.011,-0.060,0.022,-0.311,-0.009,-0.022,-85.477,-78.605,-74.928
1747597785.96,-0.077,-0.000,-0.015,-0.268,0.019,-0.092,-85.460,-82.824,-79.245
1747597785.98,-0.036,0.018,0.006,-0.276,0.207,-0.061,-85.400,-86.551,-83.246
1747597786.00,0.000,0.023,-0.013,-0.273,0.312,-0.032,-85.352,-90.310,-87.424
1747597786.02,0.062,-0.000,-0.001,-0.125,0.329,0.033,-85.341,-92.691,-90.343
1747597786.04,0.051,0.027,0.067,-0.070,-0.012,0.027,-85.389,-93.809,-91.794
1747597786.06,-0.047,-0.000,0.051,-0.061,-0.138,-0.058,-85.359,-94.711,-92.698
1747597786.08,-0.001,-0.077,0.070,-0.144,-0.070,-0.088,-85.268,-96.248,-94.248
1747597786.10,0.056,0.011,-0.001,-0.044,-0.189,-0.121,-85.129,-97.657,-95.655
1747597786.12,0.053,0.060,-0.056,0.115,-0.224,-0.041,-85.042,-97.251,-95.117
1747597786.14,-0.023,0.007,-0.011,0.131,-0.185,-0.001,-85.044,-95.864,-93.576
1747597786.16,-0.108,-0.028,0.030,0.185,-0.026,-0.014,-85.046,-94.092,-91.788
1747597786.18,-0.110,-0.003,0.044,0.191,0.125,-0.010,-85.047,-91.408,-89.262
1747597786.20,-0.042,-0.021,0.066,0.197,0.226,0.035,-85.058,-88.722,-86.868
1747597786.22,0.085,-0.020,0.037,0.200,0.096,0.090,-85.122,-85.763,-84.211
1747597786.24,0.128,0.010,0.033,0.176,-0.138,0.070,-85.195,-83.177,-81.696
1747597786.26,0.117,-0.018,0.016,0.221,-0.287,0.034,-85.225,-80.763,-79.115
1747597786.28,0.048,-0.002,0.007,0.349,-0.379,-0.037,-85.166,-77.485,-75.530
1747597786.30,-0.057,0.035,0.001,0.480,-0.399,-0.065,-84.976,-72.634,-70.306
1747597786.32,-0.159,0.030,0.045,0.494,-0.329,-0.060,-84.719,-67.577,-64.858
1747597786.34,-0.155,-0.046,0.084,0.534,-0.065,0.008,-84.443,-62.370,-59.466
1747597786.36,-0.048,-0.028,0.090,0.582,0.100,0.045,-84.152,-56.637,-53.822
1747597786.38,0.003,0.008,0.044,0.744,0.084,0.028,-83.744,-50.624,-47.941
1747597786.40,0.047,0.013,0.059,0.761,0.074,0.071,-83.193,-44.551,-41.999
1747597786.42,-0.007,0.009,0.050,0.804,-0.087,0.025,-82.571,-39.377,-36.858
1747597786.44,-0.038,0.015,0.059,0.743,-0.005,-0.073,-81.863,-35.724,-33.174
1747597786.46,0.035,-0.008,0.028,0.893,0.039,-0.124,-81.033,-32.901,-30.486
1747597786.48,0.033,0.013,0.041,0.955,-0.044,-0.042,-80.066,-30.047,-27.633
1747597786.50,-0.015,0.014,0.031,1.038,0.073,0.027,-79.057,-27.093,-24.677
1747597786.52,-0.008,-0.009,0.066,0.944,0.278,0.059,-78.056,-24.239,-22.002
1747597786.54,-0.006,-0.042,0.095,0.932,0.335,0.062,-77.105,-21.676,-19.818
1747597786.56,-0.025,0.002,0.028,0.945,0.216,0.016,-76.113,-19.596,-18.040
1747597786.58,-0.003,0.042,0.055,0.976,0.201,-0.008,-75.074,-17.951,-16.661
1747597786.60,-0.019,0.026,0.004,0.999,0.131,-0.027,-73.995,-16.679,-15.553
1747597786.62,0.050,-0.031,0.046,1.063,0.291,-0.005,-72.864,-15.390,-14.516
1747597786.64,0.039,-0.037,-0.007,1.027,0.339,-0.003,-71.689,-14.106,-13.579
1747597786.66,0.021,0.017,-0.021,0.845,0.349,-0.122,-70.646,-13.094,-13.018
1747597786.68,0.152,0.070,-0.069,0.867,0.168,-0.098,-69.669,-12.579,-12.849
1747597786.70,0.255,-0.039,-0.026,1.115,-0.102,-0.072,-68.561,-12.155,-12.466
1747597786.72,0.065,-0.146,-0.024,1.267,-0.294,-0.067,-67.199,-11.888,-11.958
1747597786.74,-0.176,-0.118,-0.073,1.099,-0.178,0.016,-65.848,-11.624,-11.374
1747597786.76,-0.148,-0.047,0.015,0.892,0.404,0.170,-64.771,-10.784,-10.638
1747597786.78,-0.031,0.015,0.043,0.949,0.169,0.234,-63.773,-9.532,-9.696
1747597786.80,0.033,0.013,-0.014,1.024,0.029,0.095,-62.721,-8.673,-8.880
1747597786.82,0.043,-0.018,-0.090,1.159,-0.039,-0.157,-61.464,-8.430,-8.582
1747597786.84,-0.099,-0.039,0.003,1.114,0.186,-0.202,-60.134,-8.419,-8.671
1747597786.86,-0.189,-0.079,-0.015,0.965,0.379,0.055,-58.932,-7.985,-8.544
1747597786.88,0.027,-0.053,0.025,0.911,0.400,0.259,-57.918,-6.942,-7.917
1747597786.90,0.209,0.038,-0.011,1.036,0.124,0.100,-56.859,-6.094,-7.268
1747597786.92,0.183,0.042,0.038,1.160,-0.204,-0.143,-55.592,-5.995,-7.107
1747597786.94,-0.036,-0.023,-0.019,1.117,-0.178,-0.192,-54.266,-6.322,-7.224
1747597786.96,-0.136,-0.058,0.005,0.944,0.074,-0.039,-53.068,-6.419,-7.240
1747597786.98,0.028,0.012,0.032,0.898,0.059,0.115,-52.043,-6.094,-6.945
1747597787.00,0.149,0.099,0.066,0.980,-0.142,0.146,-51.007,-5.793,-6.492
1747597787.02,0.141,0.116,-0.003,1.029,-0.253,0.052,-49.860,-5.723,-6.075
1747597787.04,-0.004,0.052,-0.025,1.043,-0.149,-0.066,-48.679,-5.858,-5.878
1747597787.06,-0.142,-0.062,-0.012,0.958,-0.054,-0.063,-47.530,-5.936,-5.781
1747597787.08,-0.090,-0.126,0.021,0.946,0.004,-0.060,-46.452,-5.889,-5.648
1747597787.10,0.023,-0.070,0.031,1.037,-0.029,-0.123,-45.325,-5.888,-5.570
1747597787.12,0.061,0.027,0.003,1.106,-0.060,-0.208,-44.084,-5.986,-5.599
1747597787.14,-0.068,0.048,-0.015,1.073,-0.086,-0.196,-42.797,-6.214,-5.709
1747597787.16,-0.066,-0.014,0.004,1.031,0.002,-0.197,-41.588,-6.328,-5.770
1747597787.18,0.005,-0.075,0.066,1.045,0.092,-0.129,-40.399,-6.307,-5.766
1747597787.20,0.059,-0.041,0.073,1.089,0.118,-0.165,-39.169,-6.191,-5.738
1747597787.22,-0.017,0.069,0.030,1.129,0.061,-0.231,-37.877,-6.181,-5.796
1747597787.24,-0.020,0.140,0.078,1.037,-0.000,-0.237,-36.622,-6.221,-5.922
1747597787.26,0.042,0.089,0.008,1.008,-0.239,-0.070,-35.436,-6.434,-5.934
1747597787.28,0.186,0.062,-0.005,1.017,-0.177,-0.058,-34.289,-6.615,-5.763
1747597787.30,0.083,0.147,-0.006,1.082,-0.273,-0.155,-33.083,-6.846,-5.672
1747597787.32,-0.091,0.153,0.048,1.116,-0.283,-0.196,-31.813,-7.199,-5.657
1747597787.34,-0.101,0.042,0.047,1.076,-0.243,-0.156,-30.534,-7.537,-5.626
1747597787.36,0.065,-0.041,-0.039,0.985,-0.233,-0.158,-29.347,-7.798,-5.563
1747597787.38,0.091,-0.069,-0.047,1.006,-0.274,-0.188,-28.194,-8.120,-5.552
1747597787.40,0.062,-0.030,-0.003,0.944,-0.127,-0.255,-27.053,-8.387,-5.579
1747597787.42,-0.049,0.052,0.072,1.000,-0.054,-0.276,-25.915,-8.587,-5.684
1747597787.44,-0.022,0.050,0.072,1.004,-0.130,-0.229,-24.732,-8.741,-5.749
1747597787.46,0.072,0.073,-0.025,0.973,-0.189,-0.184,-23.575,-8.975,-5.747
1747597787.48,0.104,0.090,-0.084,0.952,-0.220,-0.145,-22.463,-9.213,-5.705
1747597787.50,-0.030,-0.002,-0.032,0.929,-0.148,-0.121,-21.384,-9.411,-5.599
1747597787.52,-0.018,-0.101,0.063,0.952,-0.045,-0.131,-20.306,-9.507,-5.456
1747597787.54,0.056,-0.057,0.096,0.992,-0.034,-0.151,-19.174,-9.528,-5.328
1747597787.56,0.063,0.062,0.023,1.049,-0.157,-0.182,-17.995,-9.633,-5.248
1747597787.58,0.015,0.023,0.030,1.095,-0.020,-0.247,-16.743,-9.764,-5.198
1747597787.60,-0.078,-0.110,0.031,1.141,0.117,-0.298,-15.447,-9.742,-5.200
1747597787.62,-0.031,-0.142,-0.000,1.179,0.231,-0.369,-14.071,-9.552,-5.266
1747597787.64,-0.013,-0.002,0.056,1.166,0.115,-0.288,-12.686,-9.375,-5.359
1747597787.66,0.143,0.150,0.038,1.175,-0.129,-0.113,-11.341,-9.392,-5.258
1747597787.68,0.180,0.162,-0.050,1.146,-0.264,-0.245,-10.009,-9.601,-5.162
1747597787.70,-0.076,-0.068,-0.067,1.085,-0.068,-0.265,-8.682,-9.850,-5.167
1747597787.72,-0.108,-0.209,0.005,1.107,0.242,-0.246,-7.420,-9.729,-5.211
1747597787.74,-0.016,-0.141,-0.094,1.078,0.019,-0.174,-6.138,-9.558,-5.166
1747597787.76,0.122,0.077,-0.005,1.084,-0.130,-0.241,-4.892,-9.626,-5.160
1747597787.77,0.093,0.200,0.014,1.096,-0.315,-0.251,-3.601,-9.903,-5.193
1747597787.79,-0.059,0.134,0.019,1.075,-0.172,-0.249,-2.316,-10.217,-5.200
1747597787.81,-0.219,-0.027,-0.048,1.021,0.128,-0.292,-1.096,-10.259,-5.254
1747597787.83,-0.103,-0.079,0.000,1.001,0.189,-0.354,0.088,-10.024,-5.376
1747597787.85,0.072,0.043,0.020,1.026,-0.180,-0.421,1.303,-9.996,-5.554
1747597787.87,0.112,0.146,-0.051,1.072,-0.528,-0.541,2.586,-10.416,-5.871
1747597787.89,-0.070,0.071,0.001,1.064,-0.284,-0.557,3.906,-10.898,-6.248
1747597787.91,-0.171,-0.022,0.032,1.000,0.127,-0.507,5.168,-10.945,-6.619
1747597787.93,0.004,-0.060,-0.006,1.034,0.233,-0.436,6.391,-10.642,-6.948
1747597787.95,0.185,0.013,-0.062,1.054,0.080,-0.307,7.638,-10.437,-7.191
1747597787.97,0.125,0.058,-0.014,1.062,-0.093,-0.228,8.883,-10.449,-7.293
1747597787.99,-0.000,0.085,-0.036,1.018,-0.034,-0.224,10.106,-10.525,-7.367
1747597788.01,-0.010,0.008,-0.094,0.957,-0.083,-0.193,11.256,-10.590,-7.453
1747597788.03,0.002,-0.080,-0.103,0.822,-0.067,-0.126,12.287,-10.680,-7.487
1747597788.05,0.015,-0.061,-0.100,0.767,-0.140,-0.004,13.186,-10.807,-7.416
1747597788.07,-0.000,0.041,-0.089,0.743,-0.163,-0.064,14.042,-11.022,-7.318
1747597788.09,-0.058,0.068,-0.044,0.708,0.042,-0.164,14.886,-11.112,-7.318
1747597788.11,-0.114,0.008,-0.066,0.613,0.142,-0.215,15.677,-10.964,-7.441
1747597788.13,-0.015,-0.060,-0.110,0.493,0.052,-0.213,16.348,-10.798,-7.636
1747597788.15,0.027,-0.062,-0.084,0.394,0.020,-0.187,16.873,-10.745,-7.845
1747597788.17,-0.023,0.048,-0.062,0.308,0.088,-0.178,17.311,-10.635,-8.048
1747597788.19,-0.046,0.026,-0.068,0.254,0.140,-0.165,17.659,-10.450,-8.262
1747597788.21,-0.020,-0.042,-0.072,0.191,0.097,-0.154,17.944,-10.263,-8.457
1747597788.23,0.047,-0.082,-0.077,0.129,-0.032,-0.088,18.145,-10.196,-8.631
1747597788.25,0.030,0.003,-0.042,0.099,-0.059,-0.036,18.289,-10.242,-8.713
1747597788.27,0.019,0.016,-0.042,0.062,-0.046,0.036,18.376,-10.285,-8.755
1747597788.29,0.036,-0.012,-0.055,0.075,-0.048,0.039,18.450,-10.352,-8.743
1747597788.31,0.012,-0.020,-0.045,0.077,-0.054,0.038,18.527,-10.450,-8.721
1747597788.33,-0.022,0.007,-0.003,0.037,-0.056,0.023,18.589,-10.503,-8.718
1747597788.35,0.017,0.017,-0.045,0.068,-0.091,0.001,18.635,-10.610,-8.732
1747597788.37,-0.009,0.053,-0.038,0.077,-0.097,-0.060,18.724,-10.719,-8.783
1747597788.39,-0.056,0.013,-0.009,0.036,-0.074,-0.079,18.806,-10.779,-8.891
1747597788.41,0.028,-0.048,-0.045,0.022,-0.158,-0.077,18.854,-10.877,-8.996
1747597788.43,0.024,-0.045,-0.087,-0.063,-0.287,-0.073,18.857,-11.090,-9.127
1747597788.45,-0.001,-0.086,-0.107,-0.197,-0.413,-0.015,18.719,-11.485,-9.245
1747597788.47,-0.011,-0.106,-0.093,-0.394,-0.173,-0.009,18.392,-11.821,-9.362
1747597788.49,0.038,-0.094,-0.149,-0.575,0.018,0.046,17.849,-11.851,-9.499
1747597788.51,-0.012,-0.145,-0.160,-0.754,0.215,0.170,17.067,-11.705,-9.545
1747597788.53,-0.120,-0.092,-0.134,-1.013,0.424,0.265,16.077,-11.382,-9.527
1747597788.55,-0.071,-0.022,-0.149,-1.136,0.394,0.278,14.830,-10.910,-9.451
1747597788.57,0.039,-0.057,-0.182,-1.237,0.257,0.376,13.401,-10.551,-9.281
1747597788.59,0.065,-0.019,-0.176,-1.305,0.057,0.509,11.873,-10.448,-9.020
1747597788.61,0.026,-0.021,-0.135,-1.359,0.192,0.617,10.265,-10.369,-8.640
1747597788.63,-0.023,-0.002,-0.100,-1.383,0.177,0.633,8.597,-10.228,-8.189
1747597788.65,0.011,0.014,-0.048,-1.405,0.126,0.630,6.905,-10.103,-7.725
1747597788.67,0.025,-0.010,-0.094,-1.439,-0.088,0.754,5.181,-10.133,-7.154
1747597788.69,0.080,-0.041,-0.109,-1.435,-0.138,0.778,3.402,-10.314,-6.498
1747597788.71,0.066,-0.058,-0.009,-1.359,-0.023,0.762,1.678,-10.453,-5.820
1747597788.73,0.050,-0.028,-0.004,-1.402,-0.095,0.694,-0.027,-10.500,-5.182
1747597788.75,-0.034,-0.054,-0.015,-1.423,-0.071,0.692,-1.744,-10.605,-4.580
1747597788.77,-0.028,-0.074,-0.024,-1.454,-0.107,0.618,-3.502,-10.683,-4.008
1747597788.79,-0.059,-0.069,0.067,-1.397,-0.116,0.441,-5.212,-10.789,-3.553
1747597788.81,-0.047,-0.060,0.086,-1.353,-0.110,0.251,-6.842,-10.923,-3.306
1747597788.83,-0.006,-0.096,0.046,-1.338,0.045,0.255,-8.414,-10.958,-3.166
1747597788.85,-0.014,-0.089,-0.020,-1.371,0.111,0.305,-9.969,-10.840,-2.979
1747597788.87,-0.033,0.003,-0.033,-1.397,-0.048,0.324,-11.591,-10.794,-2.775
1747597788.89,0.004,0.017,0.016,-1.413,-0.154,0.372,-13.254,-10.895,-2.510
1747597788.91,0.024,-0.075,-0.008,-1.437,-0.053,0.309,-14.917,-11.023,-2.262
1747597788.93,0.007,-0.146,0.024,-1.402,0.025,0.234,-16.570,-11.035,-2.101
1747597788.95,-0.048,-0.127,0.036,-1.430,0.115,0.266,-18.220,-10.947,-1.968
1747597788.97,-0.087,-0.037,0.003,-1.454,0.000,0.335,-19.896,-10.868,-1.785
1747597788.99,-0.018,0.007,-0.024,-1.456,-0.068,0.376,-21.614,-10.890,-1.525
1747597789.01,0.131,-0.050,-0.032,-1.454,-0.003,0.333,-23.325,-10.882,-1.268
1747597789.03,0.136,-0.145,-0.009,-1.435,-0.046,0.327,-25.007,-10.883,-1.043
1747597789.05,0.078,-0.170,0.035,-1.513,0.014,0.336,-26.722,-10.864,-0.855
1747597789.07,-0.038,-0.140,0.003,-1.529,-0.150,0.527,-28.520,-10.870,-0.544
1747597789.09,0.029,-0.055,-0.026,-1.496,0.042,0.659,-30.357,-10.764,-0.001
1747597789.11,0.154,0.033,-0.010,-1.478,0.154,0.450,-32.148,-10.407,0.476
1747597789.13,0.034,0.002,-0.005,-1.481,-0.085,0.359,-33.883,-10.276,0.736
1747597789.15,-0.073,-0.062,0.007,-1.501,-0.118,0.391,-35.634,-10.343,0.970
1747597789.17,-0.060,-0.082,-0.021,-1.538,-0.025,0.445,-37.438,-10.300,1.272
1747597789.19,-0.024,-0.036,0.002,-1.549,0.170,0.418,-39.269,-10.084,1.578
1747597789.21,-0.033,0.023,-0.005,-1.559,0.079,0.445,-41.094,-9.799,1.883
1747597789.23,0.003,0.030,0.017,-1.565,0.206,0.418,-42.940,-9.481,2.216
1747597789.25,0.032,0.006,0.033,-1.577,0.260,0.308,-44.767,-9.092,2.456
1747597789.27,-0.017,-0.035,-0.020,-1.580,0.054,0.237,-46.600,-8.880,2.567
1747597789.29,-0.008,-0.042,-0.022,-1.625,0.029,0.223,-48.451,-8.868,2.572
1747597789.31,-0.001,-0.016,-0.034,-1.598,-0.006,0.177,-50.305,-8.929,2.525
1747597789.33,0.028,-0.006,0.023,-1.603,0.113,0.141,-52.140,-9.012,2.380
1747597789.35,0.067,-0.023,0.054,-1.627,0.132,0.271,-53.990,-8.939,2.333
1747597789.37,0.050,-0.006,0.057,-1.685,0.125,0.214,-55.911,-8.761,2.373
1747597789.39,0.043,-0.024,-0.011,-1.643,0.013,0.180,-57.820,-8.810,2.251
1747597789.41,0.064,-0.047,-0.012,-1.614,-0.094,0.058,-59.684,-9.072,2.023
1747597789.43,0.026,-0.049,-0.035,-1.594,-0.178,0.023,-61.500,-9.732,1.476
1747597789.45,0.015,-0.040,0.004,-1.586,-0.177,0.029,-63.301,-10.500,0.849
1747597789.47,0.032,-0.034,0.028,-1.577,-0.056,0.107,-65.068,-11.187,0.245
1747597789.49,0.031,0.005,0.047,-1.650,0.032,0.146,-66.923,-11.697,-0.310
1747597789.51,-0.022,-0.014,0.010,-1.558,0.044,0.107,-68.743,-12.265,-1.003
1747597789.53,-0.046,-0.060,-0.022,-1.466,0.153,-0.001,-70.446,-12.994,-1.912
1747597789.55,-0.068,-0.064,-0.017,-1.399,0.218,-0.123,-72.006,-14.199,-3.454
1747597789.57,-0.046,-0.059,-0.020,-1.431,0.258,-0.085,-73.521,-15.618,-5.255
1747597789.59,0.024,-0.030,0.041,-1.392,0.271,-0.015,-75.064,-17.136,-7.193
1747597789.61,0.081,-0.003,0.005,-1.277,0.375,-0.052,-76.510,-18.705,-9.232
1747597789.63,0.093,-0.001,0.020,-1.295,0.406,0.001,-77.858,-20.650,-11.765
1747597789.65,-0.010,-0.035,0.006,-1.344,0.146,0.002,-79.272,-23.008,-14.589
1747597789.67,0.001,-0.063,-0.015,-1.357,0.238,-0.023,-80.672,-26.651,-18.578
1747597789.69,0.033,-0.011,-0.012,-1.197,0.270,-0.072,-81.947,-31.053,-23.438
1747597789.71,-0.029,0.023,-0.045,-1.102,0.338,-0.187,-82.941,-37.350,-30.227
1747597789.73,0.032,-0.003,0.009,-1.024,0.156,-0.130,-83.731,-45.037,-38.404
1747597789.75,0.035,-0.020,-0.069,-0.909,-0.037,-0.082,-84.370,-53.916,-47.488
1747597789.77,0.076,-0.019,-0.084,-0.813,-0.011,-0.065,-84.801,-63.251,-56.937
1747597789.79,-0.005,-0.042,-0.046,-0.690,0.141,0.020,-85.126,-72.399,-66.286
1747597789.81,-0.104,-0.050,-0.015,-0.553,0.300,-0.030,-85.292,-80.344,-74.655
1747597789.83,-0.142,-0.010,0.021,-0.639,0.315,-0.093,-85.275,-88.115,-82.914
1747597789.85,-0.073,0.001,0.043,-0.531,0.552,-0.098,-85.145,-95.701,-91.162
1747597789.87,-0.053,0.055,0.039,-0.527,0.447,-0.133,-84.921,-101.742,-97.941
1747597789.89,0.017,0.025,0.007,-0.411,0.212,-0.095,-84.654,-106.808,-103.540
1747597789.91,0.087,0.007,-0.027,-0.275,-0.087,-0.055,-84.457,-110.236,-107.203
1747597789.93,0.042,-0.029,0.057,-0.207,-0.329,-0.113,-84.270,-112.744,-109.602
1747597789.95,-0.001,-0.067,0.054,-0.077,-0.302,-0.080,-84.112,-114.267,-110.884
1747597789.97,-0.044,0.005,0.054,0.055,-0.243,-0.077,-84.027,-114.209,-110.641
1747597789.99,-0.088,0.045,0.063,-0.034,-0.098,-0.038,-83.975,-113.931,-110.280
1747597790.01,-0.058,-0.004,0.069,-0.159,0.093,-0.002,-83.904,-114.817,-111.289
1747597790.03,0.032,-0.010,0.052,-0.162,0.196,0.029,-83.830,-116.456,-113.222
1747597790.05,0.072,0.022,0.031,-0.017,0.105,0.057,-83.836,-117.263,-114.326
1747597790.07,-0.020,0.021,0.033,-0.028,0.029,-0.011,-83.854,-117.511,-114.728
1747597790.09,-0.055,-0.027,0.038,-0.046,0.134,-0.039,-83.796,-117.657,-115.083
1747597790.11,-0.029,-0.011,0.042,-0.022,0.111,-0.048,-83.728,-117.682,-115.370
1747597790.13,0.012,-0.006,0.017,0.066,0.028,-0.011,-83.707,-117.325,-115.211
1747597790.15,0.056,0.016,-0.000,0.136,-0.176,0.037,-83.776,-116.503,-114.448
1747597790.17,0.040,-0.004,-0.010,0.162,-0.241,0.033,-83.885,-115.551,-113.317
1747597790.19,0.031,-0.023,0.021,0.194,-0.057,-0.020,-83.971,-114.121,-111.816
1747597790.21,-0.020,0.000,0.003,0.236,0.032,-0.021,-84.032,-111.868,-109.647
1747597790.23,-0.030,-0.007,0.014,0.226,-0.040,0.063,-84.161,-109.561,-107.440
1747597790.25,-0.012,-0.025,-0.009,0.240,-0.029,0.075,-84.328,-107.478,-105.386
1747597790.27,0.028,0.018,-0.000,0.352,0.031,0.039,-84.496,-104.510,-102.503
1747597790.29,-0.048,0.036,0.013,0.419,0.078,-0.008,-84.603,-99.865,-97.991
1747597790.31,-0.099,-0.019,0.038,0.415,0.037,-0.031,-84.638,-94.800,-93.046
1747597790.33,-0.019,-0.031,0.011,0.454,0.001,-0.022,-84.624,-89.490,-87.813
1747597790.35,0.077,0.003,-0.002,0.556,-0.117,-0.052,-84.556,-83.685,-81.997
1747597790.37,0.082,0.021,-0.062,0.779,-0.129,-0.098,-84.330,-76.080,-74.297
1747597790.39,0.015,0.011,-0.025,0.937,-0.173,-0.044,-83.939,-67.569,-65.642
1747597790.41,-0.049,-0.016,0.054,0.931,-0.187,-0.001,-83.434,-59.027,-56.915
1747597790.43,-0.092,-0.026,0.068,0.899,0.078,-0.069,-82.812,-52.171,-50.031
1747597790.45,-0.067,-0.026,0.079,0.829,0.248,-0.079,-82.107,-46.750,-44.842
1747597790.47,0.011,0.015,0.065,1.024,0.242,-0.111,-81.288,-42.084,-40.490
1747597790.49,0.111,0.064,0.089,1.008,0.110,-0.027,-80.307,-37.487,-36.125
1747597790.51,0.029,-0.021,0.187,0.901,-0.094,0.029,-79.445,-33.947,-32.634
1747597790.53,-0.089,-0.052,0.041,0.872,-0.015,0.017,-78.599,-31.113,-29.696
1747597790.55,-0.002,0.024,0.105,0.921,0.213,-0.052,-77.727,-28.626,-27.386
1747597790.57,0.051,0.064,-0.003,1.069,-0.010,-0.139,-76.660,-26.661,-25.555
1747597790.59,0.044,0.039,0.052,1.063,0.018,-0.064,-75.496,-24.933,-23.859
1747597790.61,-0.034,-0.027,0.121,0.941,0.068,0.063,-74.439,-23.181,-22.147
1747597790.63,-0.057,-0.092,0.039,0.941,0.084,0.112,-73.492,-21.293,-20.370
1747597790.65,0.023,-0.036,-0.046,0.954,0.088,0.082,-72.534,-19.632,-18.783
1747597790.67,0.107,0.006,-0.080,1.120,-0.006,-0.058,-71.401,-18.292,-17.525
1747597790.69,0.061,0.042,-0.063,1.107,-0.000,-0.029,-70.175,-17.450,-16.632
1747597790.71,0.003,-0.023,0.063,1.080,0.088,0.186,-68.998,-16.185,-15.406
1747597790.72,-0.090,-0.123,-0.010,1.049,0.187,0.246,-67.897,-14.565,-13.859
1747597790.74,-0.094,-0.072,-0.049,1.075,0.295,0.107,-66.783,-13.095,-12.597
1747597790.76,-0.068,-0.002,-0.071,1.119,0.178,-0.146,-65.548,-12.218,-11.984
1747597790.78,-0.076,0.012,-0.027,1.131,0.285,-0.190,-64.228,-11.895,-11.905
1747597790.80,-0.078,-0.068,0.062,1.012,0.430,0.006,-63.026,-11.178,-11.599
1747597790.82,-0.066,-0.066,0.025,0.894,0.466,0.189,-61.990,-10.084,-10.962
1747597790.84,0.164,0.015,0.013,0.927,0.294,0.288,-60.998,-8.766,-10.001
1747597790.86,0.312,0.094,-0.021,0.962,-0.074,0.099,-59.986,-7.965,-9.256
1747597790.88,0.201,0.077,0.013,1.084,-0.338,0.035,-58.828,-7.859,-8.835
1747597790.90,0.026,0.003,0.013,1.067,-0.209,0.079,-57.599,-7.835,-8.415
1747597790.92,-0.033,-0.070,-0.009,1.001,-0.152,0.123,-56.466,-7.588,-7.911
1747597790.94,0.021,-0.102,-0.036,1.003,-0.094,0.161,-55.356,-7.274,-7.347
1747597790.96,0.060,-0.060,-0.008,1.092,-0.100,0.063,-54.193,-6.984,-6.838
1747597790.98,-0.023,-0.012,-0.002,1.079,-0.040,-0.010,-52.960,-6.853,-6.522
1747597791.00,-0.114,0.008,0.066,0.966,0.142,0.008,-51.803,-6.580,-6.266
1747597791.02,-0.125,-0.008,-0.016,0.975,0.053,0.028,-50.707,-6.291,-6.026
1747597791.04,-0.037,-0.005,-0.016,0.998,-0.070,-0.069,-49.586,-6.177,-5.818
1747597791.06,-0.028,0.011,0.036,1.084,-0.095,-0.228,-48.398,-6.312,-5.830
1747597791.08,-0.068,0.004,0.024,1.146,0.084,-0.285,-47.079,-6.530,-6.058
1747597791.10,-0.019,0.001,0.043,1.023,0.327,-0.259,-45.797,-6.486,-6.328
1747597791.12,0.060,0.021,0.028,0.917,0.217,-0.054,-44.685,-6.193,-6.376
1747597791.14,0.175,0.068,0.035,0.949,-0.003,0.101,-43.648,-5.899,-6.097
1747597791.16,0.157,0.121,0.006,1.034,-0.240,-0.055,-42.525,-5.897,-5.853
1747597791.18,0.013,0.115,-0.023,1.101,-0.300,-0.259,-41.289,-6.295,-5.896
1747597791.20,-0.038,0.023,0.058,0.995,-0.086,-0.281,-40.060,-6.655,-6.105
1747597791.22,-0.016,-0.075,0.017,0.946,-0.096,-0.067,-38.944,-6.813,-6.165
1747597791.24,0.064,-0.052,0.022,0.983,-0.100,0.044,-37.855,-6.821,-5.930
1747597791.26,0.055,0.041,0.004,1.028,-0.246,-0.055,-36.714,-6.897,-5.667
1747597791.28,0.024,0.054,0.013,1.064,-0.219,-0.183,-35.509,-7.171,-5.569
1747597791.30,-0.025,-0.041,0.011,0.998,-0.152,-0.128,-34.309,-7.406,-5.533
1747597791.32,-0.020,-0.091,0.031,0.967,-0.064,0.021,-33.192,-7.482,-5.340
1747597791.34,0.047,0.006,0.032,0.999,-0.062,0.061,-32.093,-7.411,-5.042
1747597791.36,0.067,0.115,0.037,1.069,-0.086,-0.064,-30.927,-7.389,-4.774
1747597791.38,-0.004,0.154,0.040,1.121,-0.235,-0.247,-29.657,-7.580,-4.735
1747597791.40,0.016,0.051,0.005,1.063,-0.228,-0.203,-28.385,-7.904,-4.767
1747597791.42,0.002,-0.028,0.005,1.025,-0.297,-0.148,-27.179,-8.224,-4.733
1747597791.44,-0.084,-0.023,0.027,1.024,-0.146,-0.122,-26.001,-8.453,-4.594
1747597791.46,-0.117,0.030,0.030,1.086,-0.023,-0.255,-24.783,-8.550,-4.528
1747597791.48,-0.022,0.038,0.033,1.102,0.013,-0.421,-23.475,-8.638,-4.662
1747597791.50,0.031,-0.016,-0.003,1.057,-0.185,-0.402,-22.183,-8.841,-4.922
1747597791.52,0.044,-0.061,-0.018,1.036,-0.292,-0.246,-20.945,-9.210,-5.065
1747597791.54,0.103,-0.020,-0.046,1.037,-0.195,-0.199,-19.740,-9.512,-5.043
1747597791.56,0.055,0.062,-0.010,1.082,-0.128,-0.180,-18.519,-9.705,-4.987
1747597791.58,0.041,0.081,0.133,1.219,0.055,-0.180,-17.191,-9.751,-4.878
1747597791.60,0.030,0.083,0.005,1.218,-0.138,-0.227,-15.746,-9.760,-4.792
1747597791.62,-0.063,-0.025,-0.061,1.182,-0.108,-0.260,-14.368,-9.945,-4.737
1747597791.64,-0.045,-0.060,0.009,1.144,0.033,-0.320,-13.010,-9.997,-4.755
1747597791.66,-0.017,0.005,0.042,1.197,-0.023,-0.280,-11.650,-9.999,-4.793
1747597791.68,0.048,0.105,0.117,1.260,0.066,-0.395,-10.181,-10.017,-4.867
1747597791.70,-0.068,0.219,0.078,1.239,0.066,-0.460,-8.696,-9.965,-5.070
1747597791.72,-0.224,0.071,-0.046,1.154,0.210,-0.444,-7.247,-9.859,-5.295
1747597791.74,-0.078,-0.046,-0.076,1.100,0.094,-0.474,-5.882,-9.688,-5.596
1747597791.76,0.096,-0.076,-0.044,1.135,-0.093,-0.492,-4.542,-9.723,-5.925
1747597791.78,0.062,-0.067,0.047,1.185,-0.056,-0.484,-3.130,-9.882,-6.199
1747597791.80,-0.066,0.028,0.060,1.173,0.178,-0.443,-1.726,-9.817,-6.466
1747597791.82,-0.113,0.037,-0.086,1.103,0.246,-0.409,-0.355,-9.563,-6.697
1747597791.84,0.031,-0.006,-0.099,1.030,0.135,-0.336,0.914,-9.321,-6.915
1747597791.86,0.109,-0.009,-0.036,1.093,-0.183,-0.405,2.195,-9.336,-7.158
1747597791.88,0.047,0.066,-0.021,1.086,-0.346,-0.363,3.496,-9.665,-7.375
1747597791.90,-0.111,0.084,-0.016,1.034,-0.238,-0.480,4.769,-9.982,-7.636
1747597791.92,-0.030,-0.065,-0.027,0.946,-0.060,-0.453,5.979,-10.119,-8.001
1747597791.94,0.127,-0.063,-0.101,0.965,-0.355,-0.435,7.151,-10.308,-8.351
1747597791.96,0.112,-0.060,-0.101,0.895,-0.257,-0.294,8.273,-10.668,-8.582
1747597791.98,0.028,-0.036,-0.042,0.832,-0.081,-0.194,9.290,-10.835,-8.724
1747597792.00,0.068,-0.023,-0.023,0.802,-0.048,-0.106,10.235,-10.884,-8.760
1747597792.02,0.108,0.010,-0.075,0.766,-0.097,-0.044,11.134,-11.003,-8.706
1747597792.04,0.077,-0.003,-0.055,0.717,-0.088,0.049,11.964,-11.139,-8.580
1747597792.06,-0.027,-0.021,-0.096,0.670,-0.059,0.116,12.725,-11.282,-8.349
1747597792.08,-0.067,0.025,-0.078,0.613,-0.041,0.092,13.419,-11.403,-8.107
1747597792.10,-0.065,-0.003,-0.017,0.527,0.095,-0.030,14.054,-11.399,-7.975
1747597792.12,-0.018,-0.020,-0.063,0.447,-0.007,-0.120,14.613,-11.353,-7.993
1747597792.14,-0.019,0.036,-0.075,0.410,-0.044,-0.167,15.123,-11.372,-8.108
1747597792.16,-0.078,0.034,-0.061,0.393,0.011,-0.198,15.615,-11.373,-8.279
1747597792.18,-0.042,-0.012,-0.039,0.339,0.084,-0.192,16.075,-11.259,-8.482
1747597792.20,0.003,-0.041,-0.073,0.240,0.017,-0.168,16.428,-11.175,-8.672
1747597792.22,0.013,-0.024,-0.026,0.211,-0.033,-0.201,16.719,-11.106,-8.896
1747597792.24,0.057,0.016,-0.095,0.195,-0.180,-0.159,16.988,-11.204,-9.104
1747597792.26,0.007,-0.015,-0.037,0.162,-0.066,-0.075,17.213,-11.326,-9.244
1747597792.28,0.015,-0.021,-0.030,0.156,-0.023,-0.019,17.396,-11.368,-9.298
1747597792.30,0.053,-0.015,-0.055,0.147,-0.016,0.027,17.568,-11.403,-9.288
1747597792.32,0.046,-0.028,-0.020,0.139,0.028,0.047,17.712,-11.418,-9.222
1747597792.34,0.047,-0.019,-0.011,0.151,0.018,0.073,17.859,-11.417,-9.141
1747597792.36,0.015,0.006,-0.012,0.148,-0.005,0.074,18.005,-11.443,-9.030
1747597792.38,-0.012,0.003,0.002,0.155,0.004,0.024,18.161,-11.462,-8.963
1747597792.40,0.014,0.009,-0.011,0.159,-0.024,0.018,18.336,-11.482,-8.935
1747597792.42,0.024,-0.002,-0.001,0.177,-0.007,0.032,18.520,-11.506,-8.893
1747597792.44,0.024,0.015,-0.008,0.200,0.015,0.024,18.717,-11.518,-8.846
1747597792.46,0.020,0.016,-0.002,0.217,0.056,-0.005,18.940,-11.503,-8.806
1747597792.48,0.008,0.002,-0.000,0.204,0.069,-0.038,19.168,-11.426,-8.824
1747597792.50,0.019,0.011,-0.011,0.201,0.050,-0.057,19.399,-11.346,-8.873
1747597792.52,0.012,0.010,-0.011,0.163,0.071,-0.063,19.606,-11.248,-8.923
1747597792.54,-0.032,-0.023,-0.064,0.074,0.134,-0.078,19.738,-11.094,-9.013
1747597792.56,-0.020,-0.107,-0.111,-0.042,0.025,0.040,19.755,-10.988,-9.076
1747597792.58,0.057,-0.127,-0.132,-0.165,0.068,0.100,19.628,-10.973,-9.037
1747597792.60,0.015,-0.105,-0.121,-0.377,0.200,0.153,19.299,-10.856,-8.998
1747597792.62,-0.012,-0.142,-0.141,-0.620,0.356,0.288,18.692,-10.576,-8.867
1747597792.64,-0.020,-0.118,-0.208,-0.829,0.395,0.430,17.802,-10.213,-8.613
1747597792.66,-0.007,-0.112,-0.216,-1.049,0.368,0.508,16.653,-9.895,-8.239
1747597792.68,-0.031,-0.123,-0.179,-1.241,0.343,0.483,15.254,-9.583,-7.873
1747597792.70,-0.059,-0.081,-0.153,-1.353,0.238,0.423,13.710,-9.316,-7.561
1747597792.72,-0.042,-0.024,-0.111,-1.459,0.217,0.390,12.051,-9.105,-7.313
1747597792.74,-0.074,0.007,-0.128,-1.524,0.208,0.430,10.292,-8.913,-7.058
1747597792.76,-0.036,0.010,-0.142,-1.548,0.112,0.397,8.490,-8.746,-6.801
1747597792.78,-0.036,0.000,-0.093,-1.568,0.032,0.411,6.674,-8.691,-6.526
1747597792.80,-0.047,-0.036,-0.084,-1.625,-0.171,0.389,4.810,-8.790,-6.281
1747597792.82,0.038,-0.052,-0.077,-1.650,-0.269,0.498,2.892,-9.047,-5.981
1747597792.84,0.073,0.006,-0.047,-1.642,-0.291,0.568,0.932,-9.391,-5.531
1747597792.86,0.005,0.047,0.006,-1.633,-0.109,0.549,-1.018,-9.626,-5.132
1747597792.88,-0.035,0.003,-0.020,-1.573,-0.026,0.534,-2.921,-9.680,-4.743
1747597792.90,0.002,-0.098,-0.062,-1.549,-0.064,0.487,-4.775,-9.731,-4.392
1747597792.92,0.122,-0.126,0.052,-1.532,-0.104,0.470,-6.604,-9.802,-4.055
1747597792.94,0.098,-0.112,0.051,-1.527,-0.061,0.323,-8.389,-9.881,-3.776
1747597792.96,-0.081,-0.147,0.007,-1.544,-0.031,0.315,-10.172,-9.934,-3.625
1747597792.98,-0.184,-0.174,0.064,-1.599,-0.046,0.252,-11.996,-9.982,-3.493
1747597793.00,-0.040,-0.144,0.008,-1.623,0.019,0.349,-13.875,-9.997,-3.359
1747597793.02,0.079,-0.048,0.039,-1.626,0.025,0.356,-15.773,-9.938,-3.163
1747597793.04,0.002,-0.011,0.022,-1.614,-0.023,0.398,-17.667,-9.907,-2.931
1747597793.06,0.041,-0.050,-0.008,-1.676,0.043,0.440,-19.601,-9.827,-2.654
1747597793.08,0.142,-0.104,-0.008,-1.707,-0.104,0.493,-21.596,-9.802,-2.343
1747597793.10,0.100,-0.101,0.006,-1.645,-0.223,0.519,-23.578,-9.900,-1.951
1747597793.12,0.013,-0.068,-0.019,-1.673,-0.169,0.485,-25.538,-10.025,-1.577
1747597793.14,0.003,-0.062,0.028,-1.684,0.003,0.501,-27.529,-10.015,-1.214
1747597793.16,0.001,-0.054,0.066,-1.673,-0.078,0.576,-29.525,-9.889,-0.782
1747597793.18,0.011,-0.005,0.018,-1.627,0.015,0.621,-31.512,-9.731,-0.258
1747597793.20,0.042,0.068,0.034,-1.531,0.052,0.521,-33.393,-9.451,0.282
1747597793.22,0.010,0.061,-0.007,-1.581,-0.120,0.445,-35.225,-9.304,0.726
1747597793.24,0.115,-0.057,-0.049,-1.575,-0.240,0.524,-37.105,-9.368,1.137
1747597793.26,0.202,-0.141,0.030,-1.568,-0.176,0.539,-38.971,-9.344,1.655
1747597793.28,0.051,-0.137,0.036,-1.526,-0.172,0.528,-40.808,-9.272,2.200
1747597793.30,-0.161,-0.073,-0.023,-1.624,-0.152,0.481,-42.688,-9.200,2.700
1747597793.32,-0.240,-0.021,0.000,-1.656,0.033,0.356,-44.603,-9.104,3.064
1747597793.34,-0.107,0.016,0.051,-1.672,0.164,0.315,-46.551,-8.878,3.294
1747597793.36,0.003,0.017,0.030,-1.629,0.065,0.257,-48.463,-8.702,3.412
1747597793.38,0.050,-0.030,-0.020,-1.595,-0.168,0.204,-50.334,-8.795,3.444
1747597793.40,0.073,-0.080,-0.029,-1.539,-0.122,0.124,-52.124,-9.126,3.313
1747597793.42,0.086,-0.089,-0.021,-1.552,0.033,0.150,-53.887,-9.345,3.155
1747597793.44,0.045,-0.059,-0.022,-1.557,0.057,0.182,-55.664,-9.442,3.006
1747597793.46,0.013,0.000,-0.007,-1.567,0.060,0.260,-57.463,-9.435,3.001
1747597793.48,0.052,0.044,0.046,-1.609,0.070,0.180,-59.309,-9.395,2.996
1747597793.50,0.039,0.024,0.051,-1.552,-0.115,0.094,-61.113,-9.702,2.700
1747597793.52,-0.041,-0.033,0.043,-1.490,-0.123,0.052,-62.849,-10.252,2.249
1747597793.54,-0.081,-0.046,-0.033,-1.565,-0.143,-0.024,-64.547,-11.036,1.579
1747597793.56,-0.026,-0.016,0.016,-1.573,0.044,0.017,-66.316,-11.892,0.717
1747597793.58,0.037,0.029,0.046,-1.530,0.176,0.046,-68.059,-12.560,-0.154
1747597793.60,0.057,0.012,0.034,-1.497,0.200,0.036,-69.767,-13.194,-1.069
1747597793.62,-0.025,-0.026,-0.030,-1.531,0.111,-0.030,-71.427,-14.253,-2.382
1747597793.64,-0.086,-0.074,0.006,-1.553,0.460,-0.073,-73.123,-15.492,-3.994
1747597793.66,-0.068,-0.059,0.078,-1.471,0.531,-0.066,-74.768,-16.870,-6.090
1747597793.68,-0.030,-0.015,-0.033,-1.406,0.472,-0.087,-76.290,-18.554,-8.447
1747597793.69,0.103,0.018,0.002,-1.401,0.428,-0.058,-77.782,-20.713,-11.238
1747597793.71,0.156,0.001,-0.009,-1.344,0.306,-0.014,-79.207,-23.465,-14.532
1747597793.73,0.039,-0.042,-0.002,-1.337,0.165,-0.027,-80.588,-26.923,-18.373
1747597793.75,-0.061,-0.062,0.007,-1.315,0.260,-0.108,-81.867,-31.931,-23.763
1747597793.77,-0.072,-0.035,0.043,-1.348,0.371,-0.112,-83.043,-38.957,-31.261
1747597793.79,-0.052,-0.022,0.070,-1.353,0.417,-0.118,-84.062,-48.872,-41.782
1747597793.81,0.043,0.006,-0.024,-1.277,0.458,-0.013,-84.843,-61.742,-55.277
1747597793.83,0.063,0.034,-0.011,-1.212,0.337,-0.074,-85.327,-76.915,-71.043
1747597793.85,-0.038,-0.062,0.007,-1.092,0.356,-0.069,-85.369,-92.814,-87.451
1747597793.87,-0.082,-0.087,0.048,-1.087,0.422,-0.083,-85.070,-106.803,-102.043
1747597793.89,-0.043,-0.036,-0.011,-0.981,0.485,-0.120,-84.512,-117.927,-113.855
1747597793.91,0.038,0.008,-0.067,-0.853,0.208,-0.093,-83.848,-125.544,-122.024
1747597793.93,0.074,0.029,-0.055,-0.786,0.194,-0.057,-83.195,-131.352,-128.185
1747597793.95,0.017,0.012,-0.052,-0.671,0.327,-0.049,-82.587,-135.605,-132.896
1747597793.97,-0.040,0.007,-0.076,-0.530,0.217,-0.068,-82.031,-138.365,-136.135
1747597793.99,-0.040,0.023,-0.111,-0.402,0.036,-0.114,-81.570,-140.065,-138.103
1747597794.01,0.027,0.019,-0.059,-0.285,-0.026,-0.080,-81.184,-141.114,-139.279
1747597794.03,0.071,0.037,-0.052,-0.104,-0.147,-0.045,-80.968,-141.787,-139.977
1747597794.05,0.006,0.034,-0.032,-0.006,-0.192,-0.043,-80.900,-141.897,-139.999
1747597794.07,-0.034,-0.026,0.027,-0.053,-0.115,-0.053,-80.838,-141.949,-139.988
1747597794.09,-0.029,-0.045,0.042,0.013,-0.015,-0.046,-80.773,-141.843,-139.925
1747597794.11,-0.037,-0.013,0.058,0.068,0.029,-0.032,-80.792,-141.399,-139.606
1747597794.13,-0.058,-0.015,0.064,0.012,-0.025,-0.007,-80.822,-141.116,-139.451
1747597794.15,-0.032,-0.009,0.015,0.035,0.024,-0.013,-80.815,-141.021,-139.449
1747597794.17,0.008,0.019,-0.007,0.099,0.134,0.034,-80.886,-140.638,-139.265
1747597794.19,-0.017,-0.003,0.043,0.030,0.106,0.023,-80.957,-140.390,-139.266
1747597794.21,-0.031,-0.020,0.047,0.005,0.046,-0.010,-80.938,-140.293,-139.347
1747597794.23,-0.009,0.000,0.034,0.084,0.060,-0.005,-80.937,-139.973,-139.168
1747597794.25,0.014,-0.017,0.027,0.100,0.106,0.032,-81.037,-139.484,-138.870
1747597794.27,-0.010,-0.031,0.024,0.096,0.077,0.034,-81.135,-139.134,-138.718
1747597794.29,-0.012,-0.007,-0.023,0.134,0.027,-0.012,-81.198,-138.674,-138.401
1747597794.31,0.016,0.017,-0.048,0.238,0.069,-0.014,-81.330,-137.633,-137.478
1747597794.33,0.034,0.020,-0.010,0.308,0.032,0.023,-81.560,-136.227,-136.202
1747597794.35,0.001,-0.002,0.050,0.286,-0.049,0.022,-81.824,-134.753,-134.779
1747597794.37,-0.043,-0.007,0.078,0.256,-0.024,-0.017,-82.032,-133.264,-133.295
1747597794.39,-0.031,-0.007,0.072,0.227,0.048,0.006,-82.221,-131.683,-131.795
1747597794.41,-0.002,-0.013,0.078,0.201,0.052,0.018,-82.394,-130.368,-130.615
1747597794.43,0.035,-0.058,0.065,0.213,-0.065,0.018,-82.557,-129.168,-129.483
1747597794.45,0.039,-0.023,0.030,0.333,-0.179,-0.002,-82.735,-127.607,-127.839
1747597794.47,0.042,0.047,-0.021,0.538,-0.266,-0.021,-83.010,-124.579,-124.606
1747597794.49,0.010,0.059,0.000,0.605,-0.335,0.025,-83.370,-120.184,-119.906
1747597794.51,-0.021,-0.020,0.042,0.567,-0.302,0.060,-83.727,-115.586,-114.974
1747597794.53,-0.028,-0.063,0.079,0.587,-0.217,0.083,-84.064,-110.479,-109.626
1747597794.55,-0.039,-0.050,0.062,0.595,-0.222,0.081,-84.359,-104.701,-103.620
1747597794.57,-0.004,-0.008,0.020,0.727,-0.172,0.043,-84.576,-97.599,-96.343
1747597794.59,0.005,0.073,-0.057,0.973,-0.241,-0.023,-84.628,-87.512,-86.029
1747597794.61,0.006,0.095,0.005,1.005,-0.374,0.016,-84.443,-75.867,-74.026
1747597794.63,-0.075,-0.020,0.084,0.886,-0.248,0.049,-84.134,-65.886,-63.673
1747597794.65,-0.112,-0.108,0.073,0.841,-0.066,0.059,-83.721,-57.674,-55.291
1747597794.67,0.002,-0.056,0.028,0.845,0.009,0.059,-83.218,-50.620,-48.194
1747597794.69,0.121,0.014,-0.002,1.007,0.066,0.016,-82.541,-44.065,-41.719
1747597794.71,0.083,0.074,-0.012,1.120,-0.324,0.014,-81.624,-38.353,-35.853
1747597794.73,-0.018,0.041,0.027,0.969,-0.329,-0.036,-80.642,-34.194,-31.283
1747597794.75,-0.046,-0.088,0.092,0.902,-0.222,-0.012,-79.733,-31.404,-28.191
1747597794.77,-0.006,-0.062,0.006,1.010,-0.101,0.017,-78.807,-28.683,-25.275
1747597794.79,0.019,0.057,-0.050,1.186,0.003,-0.111,-77.669,-26.202,-22.735
1747597794.81,-0.033,0.049,-0.010,1.114,0.110,-0.044,-76.403,-24.102,-20.675
1747597794.83,-0.091,-0.069,0.100,0.987,0.166,0.093,-75.346,-21.961,-18.698
1747597794.85,-0.135,-0.063,-0.010,0.939,0.234,0.238,-74.362,-19.680,-16.560
1747597794.87,0.108,-0.022,0.046,0.964,0.420,0.223,-73.451,-17.144,-14.379
1747597794.89,0.146,0.046,-0.031,1.118,0.201,0.024,-72.336,-15.275,-12.840
1747597794.91,0.046,0.040,0.011,1.082,0.205,0.043,-71.100,-14.031,-11.752
1747597794.93,-0.024,-0.066,0.043,0.984,0.131,0.164,-69.998,-12.738,-10.607
1747597794.95,-0.015,-0.126,-0.064,0.978,0.156,0.194,-68.960,-11.393,-9.327
1747597794.97,0.073,-0.071,-0.088,1.138,0.129,0.119,-67.800,-10.177,-8.223
1747597794.99,0.079,0.035,-0.072,1.168,0.195,-0.012,-66.509,-9.369,-7.502
1747597795.01,0.023,0.036,0.081,1.045,0.287,0.042,-65.251,-8.617,-7.034
1747597795.03,0.007,-0.037,-0.009,0.906,0.060,0.176,-64.157,-7.832,-6.363
1747597795.05,0.131,-0.023,0.120,0.947,-0.091,0.072,-63.153,-7.186,-5.685
1747597795.07,0.011,0.012,-0.060,1.018,-0.455,-0.185,-62.016,-7.359,-5.525
1747597795.09,-0.203,0.034,-0.070,1.126,-0.192,-0.345,-60.768,-8.092,-5.832
1747597795.11,-0.216,0.028,0.101,1.140,0.536,-0.324,-59.401,-8.249,-6.232
1747597795.13,-0.139,-0.013,0.119,0.940,0.629,-0.056,-58.196,-7.639,-6.355
1747597795.15,0.064,-0.082,0.010,0.870,0.477,0.178,-57.195,-6.651,-5.931
1747597795.17,0.300,-0.042,-0.034,1.036,0.151,0.009,-56.136,-5.886,-5.473
1747597795.19,0.136,0.076,-0.090,1.048,-0.211,-0.264,-54.921,-6.017,-5.518
1747597795.21,-0.058,0.063,0.044,1.054,-0.010,-0.255,-53.679,-6.449,-5.859
1747597795.23,-0.037,-0.044,0.064,0.875,0.235,-0.103,-52.568,-6.384,-5.972
1747597795.25,0.026,-0.059,0.007,0.859,0.133,0.071,-51.592,-6.035,-5.832
1747597795.27,0.014,0.031,-0.015,0.960,-0.063,-0.024,-50.570,-5.831,-5.582
1747597795.29,-0.014,0.071,-0.010,1.049,0.001,-0.152,-49.410,-5.867,-5.552
1747597795.31,-0.041,0.028,0.021,0.979,0.126,-0.165,-48.230,-5.885,-5.664
1747597795.33,0.085,-0.049,0.046,0.901,0.189,0.027,-47.160,-5.647,-5.610
1747597795.35,0.232,-0.044,-0.012,0.907,-0.100,0.091,-46.149,-5.406,-5.363
1747597795.37,0.215,0.032,-0.014,1.032,-0.356,0.040,-45.058,-5.498,-5.088
1747597795.39,0.036,0.071,0.045,1.088,-0.368,-0.086,-43.843,-5.845,-4.948
1747597795.41,-0.075,-0.013,0.022,1.074,-0.179,-0.105,-42.590,-6.131,-4.914
1747597795.43,-0.075,-0.104,-0.078,0.926,-0.103,-0.029,-41.453,-6.256,-4.801
1747597795.45,0.033,-0.082,0.030,0.925,-0.031,-0.001,-40.413,-6.229,-4.612
1747597795.47,0.003,0.044,0.026,0.970,-0.178,-0.014,-39.333,-6.253,-4.412
1747597795.49,-0.038,0.139,0.037,1.085,-0.150,-0.179,-38.164,-6.414,-4.311
1747597795.51,-0.105,0.104,0.058,1.059,-0.185,-0.301,-36.899,-6.725,-4.427
1747597795.53,-0.069,-0.043,0.040,1.020,-0.169,-0.183,-35.685,-7.048,-4.549
1747597795.55,0.072,-0.055,-0.012,0.975,-0.100,-0.103,-34.545,-7.186,-4.495
1747597795.57,0.101,0.044,-0.014,1.063,-0.163,-0.126,-33.385,-7.320,-4.395
1747597795.59,0.043,0.081,0.048,1.087,-0.194,-0.198,-32.138,-7.530,-4.351
1747597795.61,0.048,0.006,-0.006,1.003,-0.164,-0.252,-30.901,-7.814,-4.402
1747597795.63,0.046,-0.066,-0.015,0.970,-0.191,-0.161,-29.758,-8.060,-4.430
1747597795.65,-0.010,-0.020,-0.016,0.976,-0.177,-0.005,-28.651,-8.243,-4.276
1747597795.67,0.020,0.125,0.043,1.017,-0.189,-0.022,-27.529,-8.375,-4.009
1747597795.69,0.073,0.127,0.062,1.136,-0.193,-0.191,-26.298,-8.561,-3.866
1747597795.71,0.021,0.015,0.020,1.087,-0.280,-0.287,-25.004,-8.857,-3.888
1747597795.73,-0.086,-0.088,-0.035,1.073,-0.236,-0.188,-23.736,-9.222,-3.909
1747597795.75,-0.189,-0.051,0.016,1.038,-0.115,-0.169,-22.511,-9.426,-3.841
1747597795.77,-0.109,0.083,0.047,1.037,-0.015,-0.257,-21.320,-9.492,-3.755
1747597795.79,0.019,0.119,0.074,1.148,-0.131,-0.337,-20.041,-9.626,-3.837
1747597795.81,-0.014,0.026,0.048,1.196,-0.064,-0.500,-18.636,-9.837,-4.000
1747597795.83,0.025,-0.058,0.016,1.176,0.030,-0.326,-17.200,-9.935,-4.193
1747597795.85,0.070,0.065,-0.048,1.150,-0.024,-0.153,-15.856,-9.924,-4.184
1747597795.87,0.055,0.143,-0.033,1.186,-0.109,-0.105,-14.519,-9.983,-4.001
1747597795.89,0.028,0.076,0.019,1.203,-0.096,-0.216,-13.145,-10.105,-3.839
1747597795.91,0.056,-0.115,0.054,1.221,-0.074,-0.265,-11.737,-10.203,-3.811
1747597795.93,0.058,-0.176,0.022,1.162,-0.066,-0.243,-10.336,-10.287,-3.795
1747597795.95,-0.005,-0.061,-0.005,1.167,0.009,-0.174,-8.996,-10.333,-3.733
1747597795.97,-0.044,0.090,0.013,1.224,0.118,-0.167,-7.615,-10.234,-3.567
1747597795.99,-0.082,0.105,0.028,1.247,0.113,-0.261,-6.190,-10.073,-3.475
1747597796.01,-0.033,-0.097,0.014,1.232,0.048,-0.344,-4.731,-10.006,-3.496
1747597796.03,0.107,-0.148,-0.017,1.170,-0.089,-0.410,-3.288,-10.005,-3.642
1747597796.05,0.013,-0.032,-0.044,1.168,-0.140,-0.252,-1.904,-10.176,-3.711
1747597796.07,-0.121,0.116,0.026,1.193,0.108,-0.224,-0.523,-10.193,-3.669
1747597796.09,-0.156,0.020,0.005,1.108,0.244,-0.191,0.812,-9.966,-3.647
1747597796.11,0.007,-0.105,-0.051,1.112,0.062,-0.226,2.097,-9.763,-3.641
1747597796.13,0.135,0.004,-0.080,1.143,-0.301,-0.249,3.387,-9.884,-3.648
1747597796.15,0.031,0.076,-0.062,1.105,-0.366,-0.222,4.696,-10.308,-3.673
1747597796.17,-0.082,0.045,-0.037,1.034,-0.111,-0.276,5.952,-10.589,-3.698
1747597796.19,-0.125,0.029,-0.032,1.034,0.045,-0.302,7.156,-10.595,-3.810
1747597796.21,0.043,0.022,-0.085,1.014,-0.071,-0.250,8.374,-10.574,-3.899
1747597796.23,0.068,0.061,-0.058,0.967,-0.214,-0.232,9.534,-10.742,-3.979
1747597796.25,-0.001,0.062,-0.051,0.931,-0.181,-0.232,10.649,-10.980,-4.051
1747597796.27,-0.049,-0.001,-0.048,0.902,-0.057,-0.231,11.726,-11.087,-4.107
1747597796.29,-0.030,0.019,-0.038,0.844,-0.109,-0.316,12.766,-11.146,-4.216
1747597796.31,0.049,0.006,-0.093,0.738,-0.277,-0.367,13.733,-11.315,-4.448
1747597796.33,0.077,-0.056,-0.088,0.674,-0.373,-0.286,14.601,-11.651,-4.676
1747597796.35,-0.023,-0.060,-0.045,0.577,-0.182,-0.260,15.365,-11.954,-4.871
1747597796.37,-0.035,-0.019,-0.031,0.534,-0.015,-0.248,16.037,-11.995,-5.042
1747597796.39,0.017,-0.002,-0.080,0.481,-0.032,-0.216,16.667,-11.964,-5.208
1747597796.41,0.037,-0.088,-0.106,0.379,-0.080,-0.160,17.186,-12.015,-5.343
1747597796.43,0.033,-0.073,-0.079,0.299,-0.074,-0.110,17.596,-12.061,-5.446
1747597796.45,0.021,-0.023,-0.106,0.257,-0.133,-0.072,17.922,-12.168,-5.497
1747597796.47,0.004,-0.012,-0.080,0.191,-0.088,-0.067,18.190,-12.306,-5.539
1747597796.49,-0.001,-0.033,-0.038,0.077,0.007,-0.002,18.347,-12.344,-5.568
1747597796.51,0.008,-0.050,-0.078,0.028,-0.031,0.041,18.397,-12.364,-5.532
1747597796.53,0.009,-0.009,-0.123,-0.044,-0.163,0.046,18.386,-12.487,-5.499
1747597796.55,0.024,-0.035,-0.112,-0.143,-0.129,0.103,18.261,-12.690,-5.453
1747597796.57,0.000,-0.041,-0.074,-0.219,-0.025,0.136,18.030,-12.804,-5.358
1747597796.59,-0.015,-0.039,-0.075,-0.319,0.107,0.134,17.704,-12.786,-5.256
1747597796.61,-0.050,-0.062,-0.067,-0.468,0.152,0.087,17.241,-12.630,-5.225
1747597796.63,-0.038,-0.088,-0.087,-0.620,0.087,0.073,16.614,-12.480,-5.276
1747597796.65,0.039,-0.101,-0.114,-0.721,0.126,0.225,15.830,-12.362,-5.267
1747597796.67,0.061,-0.099,-0.107,-0.805,0.299,0.380,14.903,-12.157,-5.072
1747597796.69,0.012,-0.085,-0.130,-0.930,0.316,0.473,13.834,-11.870,-4.753
1747597796.71,-0.049,-0.082,-0.131,-1.063,0.408,0.486,12.609,-11.532,-4.389
1747597796.72,0.010,-0.059,-0.149,-1.175,0.349,0.521,11.234,-11.157,-4.017
1747597796.74,0.005,-0.034,-0.095,-1.239,0.235,0.490,9.773,-10.872,-3.639
1747597796.76,-0.106,-0.001,-0.091,-1.351,0.156,0.346,8.233,-10.698,-3.383
1747597796.78,-0.084,-0.041,-0.086,-1.474,0.192,0.440,6.557,-10.500,-3.185
1747597796.80,0.021,-0.017,-0.122,-1.490,0.149,0.480,4.786,-10.336,-2.845
1747597796.82,-0.009,-0.037,-0.031,-1.475,0.152,0.331,3.046,-10.180,-2.585
1747597796.84,0.004,-0.084,-0.027,-1.464,0.153,0.373,1.327,-9.988,-2.370
1747597796.86,-0.022,-0.047,-0.093,-1.483,-0.028,0.483,-0.415,-9.933,-2.086
1747597796.88,0.042,-0.030,-0.056,-1.501,0.022,0.467,-2.189,-9.939,-1.716
1747597796.90,0.015,-0.058,-0.037,-1.502,0.043,0.299,-3.937,-9.901,-1.482
1747597796.92,0.003,-0.137,0.011,-1.515,-0.060,0.288,-5.692,-9.891,-1.351
1747597796.94,0.068,-0.187,-0.038,-1.546,-0.109,0.424,-7.485,-9.993,-1.133
1747597796.96,0.078,-0.069,-0.015,-1.534,-0.003,0.478,-9.310,-10.043,-0.794
1747597796.98,-0.033,0.006,0.051,-1.556,0.043,0.445,-11.139,-9.965,-0.444
1747597797.00,-0.060,-0.015,0.017,-1.579,-0.002,0.437,-12.997,-9.895,-0.018
1747597797.02,-0.010,-0.068,-0.042,-1.619,-0.034,0.411,-14.874,-9.889,0.249
1747597797.04,0.047,-0.110,-0.011,-1.633,-0.084,0.383,-16.790,-9.922,0.469
1747597797.06,0.000,-0.090,0.037,-1.626,-0.139,0.357,-18.708,-10.034,0.661
1747597797.08,0.044,-0.089,0.045,-1.646,-0.103,0.384,-20.607,-10.120,0.824
1747597797.10,0.013,-0.054,0.010,-1.643,-0.068,0.494,-22.552,-10.174,1.095
1747597797.12,-0.003,-0.034,0.025,-1.635,0.019,0.469,-24.489,-10.086,1.449
1747597797.14,-0.019,-0.063,-0.024,-1.672,0.026,0.417,-26.426,-9.983,1.734
1747597797.16,0.007,-0.085,0.018,-1.642,-0.043,0.455,-28.376,-9.918,1.990
1747597797.18,0.084,-0.063,0.067,-1.597,-0.002,0.472,-30.295,-9.829,2.318
1747597797.20,0.130,-0.029,-0.017,-1.577,-0.024,0.490,-32.163,-9.697,2.681
1747597797.22,0.110,-0.010,-0.028,-1.593,-0.051,0.502,-34.046,-9.573,3.075
1747597797.24,0.026,-0.016,0.027,-1.577,0.010,0.516,-35.919,-9.411,3.484
1747597797.26,-0.027,-0.037,-0.023,-1.590,-0.040,0.496,-37.796,-9.229,3.905
1747597797.28,0.022,-0.050,0.023,-1.594,0.072,0.492,-39.674,-9.007,4.317
1747597797.30,0.070,-0.035,0.049,-1.613,0.144,0.455,-41.579,-8.644,4.733
1747597797.32,-0.011,-0.009,0.002,-1.629,0.079,0.403,-43.473,-8.340,5.070
1747597797.34,-0.018,-0.020,-0.029,-1.667,0.060,0.345,-45.400,-8.091,5.366
1747597797.36,0.015,-0.034,-0.003,-1.621,0.009,0.259,-47.298,-7.971,5.537
1747597797.38,0.081,-0.031,-0.010,-1.683,-0.020,0.279,-49.214,-7.906,5.684
1747597797.40,0.035,-0.039,0.003,-1.652,-0.066,0.185,-51.133,-7.967,5.739
1747597797.42,-0.020,-0.030,0.053,-1.645,0.010,0.156,-53.018,-8.077,5.688
1747597797.44,-0.079,-0.034,0.028,-1.637,0.003,0.126,-54.890,-8.197,5.562
1747597797.46,-0.047,-0.033,-0.011,-1.648,0.048,0.166,-56.783,-8.338,5.414
1747597797.48,-0.008,-0.026,-0.015,-1.634,0.054,0.079,-58.649,-8.486,5.194
1747597797.50,0.029,-0.023,-0.006,-1.638,0.014,0.010,-60.514,-8.846,4.755
1747597797.52,0.044,-0.029,-0.037,-1.651,-0.030,0.087,-62.365,-9.295,4.311
1747597797.54,0.075,-0.023,0.021,-1.658,0.093,0.077,-64.250,-9.696,3.814
1747597797.56,0.082,-0.048,0.070,-1.601,0.172,0.037,-66.110,-10.060,3.222
1747597797.58,0.052,-0.087,-0.055,-1.643,0.003,0.096,-67.926,-10.554,2.551
1747597797.60,-0.056,-0.059,-0.091,-1.557,-0.011,-0.014,-69.753,-11.337,1.715
1747597797.62,-0.087,-0.015,-0.035,-1.466,0.180,-0.119,-71.431,-12.502,0.365
1747597797.64,-0.012,-0.009,0.055,-1.487,0.246,-0.045,-73.019,-13.759,-1.290
1747597797.66,-0.009,-0.029,0.033,-1.500,0.112,0.012,-74.682,-15.066,-2.919
1747597797.68,0.020,-0.039,-0.010,-1.476,0.231,-0.032,-76.323,-16.666,-4.806
1747597797.70,-0.018,-0.028,0.037,-1.373,0.386,-0.036,-77.845,-18.579,-7.212
1747597797.72,-0.092,-0.038,0.069,-1.428,0.397,-0.034,-79.344,-21.001,-10.207
1747597797.74,-0.076,-0.030,0.002,-1.359,0.401,-0.087,-80.782,-24.404,-14.211
1747597797.76,-0.002,0.015,-0.032,-1.285,0.362,-0.136,-82.093,-29.292,-19.671
1747597797.78,0.096,-0.027,0.006,-1.247,0.345,-0.078,-83.232,-35.590,-26.520
1747597797.80,0.086,-0.025,0.066,-1.149,0.319,-0.093,-84.241,-43.980,-35.429
1747597797.82,-0.002,0.006,0.046,-1.139,0.258,-0.009,-85.056,-54.418,-46.337
1747597797.84,-0.101,-0.043,0.006,-1.108,0.278,-0.034,-85.637,-68.378,-60.728
1747597797.86,0.010,-0.084,-0.008,-1.095,0.509,-0.047,-85.902,-84.579,-77.533
1747597797.88,0.019,0.060,0.009,-0.902,0.370,-0.176,-85.714,-99.658,-93.317
1747597797.90,-0.035,0.050,-0.031,-0.934,0.157,-0.108,-85.277,-111.376,-105.448
1747597797.92,0.035,-0.068,-0.040,-0.941,0.314,-0.028,-84.721,-121.838,-116.331
1747597797.94,0.041,0.007,-0.089,-0.769,0.407,-0.048,-84.108,-129.375,-124.424
1747597797.96,0.005,0.022,-0.062,-0.609,0.491,-0.043,-83.553,-133.804,-129.539
1747597797.98,-0.044,-0.023,-0.036,-0.613,0.293,-0.039,-83.026,-137.232,-133.567
1747597798.00,-0.018,-0.000,-0.093,-0.597,0.108,-0.083,-82.467,-140.179,-136.846
1747597798.02,0.092,0.021,-0.056,-0.594,0.181,-0.069,-81.863,-142.676,-139.653
1747597798.04,0.131,0.024,-0.097,-0.344,0.152,-0.104,-81.362,-144.128,-141.462
1747597798.06,0.046,-0.000,-0.042,-0.139,-0.166,-0.079,-81.093,-144.493,-141.987
1747597798.08,-0.066,-0.036,0.015,-0.132,-0.408,-0.075,-80.921,-144.970,-142.236
1747597798.10,-0.046,0.028,-0.036,-0.062,-0.281,-0.066,-80.773,-145.385,-142.364
1747597798.12,-0.012,0.004,-0.039,0.120,-0.045,0.012,-80.793,-145.225,-142.145
1747597798.14,-0.095,0.005,0.076,0.018,-0.014,0.018,-80.889,-145.023,-142.040
1747597798.16,-0.130,0.003,0.125,-0.128,0.009,-0.024,-80.832,-145.262,-142.401
1747597798.18,0.013,-0.043,0.077,-0.183,0.134,-0.028,-80.657,-145.665,-143.016
1747597798.20,0.062,-0.021,0.031,-0.085,0.058,0.000,-80.516,-146.001,-143.602
1747597798.22,-0.009,-0.029,0.013,0.017,-0.076,0.003,-80.487,-146.131,-143.824
1747597798.24,-0.055,-0.000,0.018,0.036,-0.136,-0.023,-80.492,-146.086,-143.741
1747597798.26,-0.018,0.013,0.009,0.095,-0.100,0.018,-80.536,-145.966,-143.589
1747597798.28,0.023,-0.013,-0.003,0.145,-0.050,0.039,-80.678,-145.769,-143.422
1747597798.30,-0.007,-0.026,0.023,0.010,-0.060,0.019,-80.769,-145.720,-143.415
1747597798.32,0.030,-0.025,0.024,-0.052,-0.239,0.018,-80.749,-146.082,-143.725
1747597798.34,0.053,0.001,0.017,0.061,-0.159,-0.013,-80.745,-146.318,-143.811
1747597798.36,0.010,0.011,0.039,0.056,-0.045,-0.031,-80.794,-146.056,-143.522
1747597798.38,-0.060,-0.014,0.018,0.034,-0.063,-0.017,-80.819,-145.781,-143.282
1747597798.40,-0.052,-0.003,-0.026,0.034,0.071,0.025,-80.850,-145.725,-143.286
1747597798.42,-0.012,0.019,-0.049,0.096,0.180,0.016,-80.929,-145.497,-143.303
1747597798.44,0.029,0.019,-0.032,0.071,0.191,0.018,-81.020,-145.031,-143.164
1747597798.46,0.061,-0.013,-0.015,0.074,0.144,0.006,-81.088,-144.639,-143.029
1747597798.48,0.077,-0.002,-0.004,0.112,0.133,-0.013,-81.159,-144.035,-142.686
1747597798.50,0.014,0.005,0.008,0.162,0.075,-0.013,-81.278,-143.162,-142.007
1747597798.52,-0.053,-0.012,0.022,0.104,0.122,0.021,-81.414,-142.457,-141.473
1747597798.54,-0.039,-0.004,0.035,0.002,0.210,0.033,-81.485,-142.237,-141.539
1747597798.56,0.002,-0.006,0.038,0.009,0.151,-0.008,-81.498,-142.187,-141.790
1747597798.58,-0.011,-0.019,0.055,0.013,0.064,-0.050,-81.490,-141.803,-141.615
1747597798.60,-0.011,-0.020,0.028,0.015,0.005,-0.040,-81.462,-141.408,-141.329
1747597798.62,0.041,0.011,-0.007,0.089,-0.064,-0.026,-81.470,-141.028,-140.997
1747597798.64,0.063,0.016,-0.004,0.123,-0.185,-0.029,-81.542,-140.522,-140.412
1747597798.66,0.025,0.017,-0.012,0.210,-0.252,-0.068,-81.643,-139.763,-139.462
1747597798.68,-0.035,0.017,0.024,0.295,-0.128,-0.100,-81.789,-138.161,-137.671
1747597798.70,-0.081,-0.034,0.071,0.290,-0.038,-0.067,-81.970,-136.139,-135.614
1747597798.72,-0.086,-0.036,0.064,0.288,0.044,-0.022,-82.170,-134.278,-133.796
1747597798.74,-0.012,-0.024,0.065,0.314,0.038,0.013,-82.397,-132.405,-132.028
1747597798.76,0.046,-0.015,0.044,0.450,-0.094,0.006,-82.685,-130.047,-129.686
1747597798.78,0.049,0.016,0.012,0.582,-0.203,0.004,-83.055,-126.498,-125.986
1747597798.80,0.008,0.005,0.029,0.653,-0.271,0.043,-83.478,-121.840,-121.105
1747597798.82,-0.026,-0.027,0.041,0.634,-0.275,0.076,-83.901,-116.617,-115.588
1747597798.84,-0.009,-0.041,0.042,0.689,-0.232,0.073,-84.279,-110.692,-109.419
1747597798.86,0.021,0.010,-0.013,0.795,-0.426,0.034,-84.587,-102.863,-101.260
1747597798.88,0.035,0.042,-0.022,0.928,-0.502,0.067,-84.771,-93.197,-91.023
1747597798.90,0.034,0.016,0.004,0.934,-0.386,0.147,-84.845,-81.452,-78.790
1747597798.92,-0.049,-0.020,0.063,0.805,-0.312,0.124,-84.768,-71.055,-67.983
1747597798.94,-0.031,-0.061,0.055,0.858,-0.120,0.114,-84.507,-61.432,-58.115
1747597798.96,-0.030,0.026,-0.006,0.966,-0.132,0.046,-84.021,-52.471,-48.992
1747597798.98,-0.007,0.066,-0.004,1.015,-0.061,0.001,-83.276,-44.703,-41.122
1747597799.00,0.038,-0.012,0.016,0.978,-0.055,0.021,-82.426,-38.651,-34.982
1747597799.02,0.037,-0.044,0.013,0.994,-0.049,0.036,-81.553,-33.837,-30.082
1747597799.04,0.000,0.009,-0.023,1.103,-0.038,-0.026,-80.529,-29.768,-25.934
1747597799.06,0.034,0.017,0.003,1.100,0.054,-0.064,-79.386,-26.690,-22.869
1747597799.08,0.029,-0.035,0.010,1.078,-0.202,-0.006,-78.259,-24.296,-20.376
1747597799.10,-0.030,-0.065,0.015,1.140,-0.127,0.053,-77.095,-22.074,-17.901
1747597799.12,0.009,-0.028,0.004,1.115,-0.023,0.058,-75.919,-19.972,-15.677
1747597799.14,0.028,0.011,0.019,1.119,0.085,0.065,-74.750,-18.107,-13.831
1747597799.16,0.044,0.013,-0.006,1.236,0.151,0.037,-73.465,-16.327,-12.133
1747597799.18,-0.014,0.017,0.061,1.211,0.184,-0.018,-72.136,-14.914,-10.855
1747597799.20,-0.109,-0.059,0.032,1.166,0.212,0.010,-70.801,-13.698,-9.790
1747597799.22,-0.127,-0.050,-0.007,1.151,0.414,-0.010,-69.524,-12.512,-8.907
1747597799.24,-0.105,0.013,-0.004,1.168,0.498,-0.038,-68.214,-11.292,-8.178
1747597799.26,-0.043,0.015,0.014,1.215,0.550,-0.111,-66.883,-10.363,-7.759
1747597799.28,0.094,-0.013,0.132,1.075,0.672,0.020,-65.556,-9.240,-7.334
1747597799.30,0.046,-0.057,0.035,1.006,0.491,0.019,-64.379,-8.092,-6.804
1747597799.32,0.049,-0.016,0.002,1.014,0.365,0.000,-63.267,-7.262,-6.412
1747597799.34,0.081,0.036,-0.029,1.106,0.128,-0.207,-62.050,-6.857,-6.309
1747597799.36,-0.030,0.076,-0.052,1.181,-0.055,-0.406,-60.704,-7.224,-6.757
1747597799.38,-0.095,0.027,0.041,1.166,0.164,-0.325,-59.314,-7.622,-7.253
1747597799.40,-0.109,-0.061,0.039,1.084,0.323,-0.124,-57.983,-7.434,-7.404
1747597799.42,0.005,-0.078,-0.036,0.986,0.310,0.047,-56.821,-6.940,-7.238
1747597799.44,0.190,-0.078,-0.015,1.024,0.240,0.047,-55.691,-6.332,-6.881
1747597799.46,0.185,-0.015,0.030,1.126,0.154,0.023,-54.479,-5.851,-6.586
1747597799.48,0.056,0.019,0.016,1.099,0.138,0.020,-53.194,-5.501,-6.327
1747597799.50,0.027,-0.005,-0.046,0.987,0.019,0.003,-52.024,-5.221,-6.112
1747597799.52,-0.021,-0.054,-0.073,1.052,-0.200,-0.043,-50.858,-5.235,-5.937
1747597799.54,-0.027,-0.064,-0.022,1.046,-0.135,-0.037,-49.654,-5.357,-5.817
1747597799.56,-0.019,-0.044,-0.008,0.986,0.009,0.047,-48.491,-5.315,-5.632
1747597799.58,0.097,-0.002,0.032,0.912,0.132,0.145,-47.426,-4.977,-5.297
1747597799.60,0.182,0.048,0.010,0.865,-0.080,0.168,-46.435,-4.648,-4.878
1747597799.62,0.127,0.072,0.000,0.882,-0.412,0.158,-45.457,-4.642,-4.456
1747597799.64,-0.018,0.061,-0.045,0.924,-0.495,0.082,-44.448,-4.973,-4.078
1747597799.66,-0.089,0.018,0.015,0.913,-0.293,-0.003,-43.400,-5.305,-3.835
1747597799.68,-0.074,-0.006,0.033,0.913,-0.010,-0.015,-42.367,-5.394,-3.685
1747597799.70,-0.049,0.004,0.018,0.882,-0.021,0.006,-41.343,-5.312,-3.498
1747597799.72,-0.041,0.026,0.024,0.884,-0.058,0.018,-40.348,-5.251,-3.247
1747597799.74,-0.030,0.057,0.030,0.822,-0.075,-0.058,-39.356,-5.283,-3.080
1747597799.76,-0.084,0.044,-0.025,0.871,-0.213,-0.079,-38.423,-5.418,-3.003
1747597799.77,-0.150,0.049,0.018,0.921,-0.080,-0.185,-37.381,-5.676,-2.989
1747597799.79,-0.004,0.048,0.074,1.012,-0.014,-0.257,-36.254,-5.818,-3.098
1747597799.81,-0.015,0.028,0.010,0.989,-0.051,-0.272,-35.072,-5.975,-3.205
1747597799.83,-0.052,-0.022,-0.035,0.935,-0.105,-0.210,-33.953,-6.201,-3.327
1747597799.85,-0.022,-0.053,0.036,0.910,-0.029,-0.206,-32.881,-6.342,-3.381
1747597799.87,0.047,0.031,0.041,0.896,-0.150,-0.168,-31.837,-6.493,-3.383
1747597799.89,0.108,0.077,0.017,0.882,-0.227,-0.198,-30.811,-6.775,-3.371
1747597799.91,0.147,-0.004,-0.025,0.924,-0.166,-0.201,-29.744,-7.087,-3.389
1747597799.93,0.118,-0.127,-0.052,0.794,-0.198,-0.090,-28.762,-7.302,-3.356
1747597799.95,0.038,-0.123,-0.001,0.823,-0.040,0.086,-27.847,-7.392,-3.107
1747597799.97,0.066,0.064,0.057,0.864,-0.064,0.047,-26.908,-7.310,-2.769
1747597799.99,0.047,0.140,0.006,0.911,-0.181,-0.039,-25.902,-7.393,-2.519
1747597800.01,0.020,0.064,0.007,0.955,-0.186,-0.170,-24.833,-7.611,-2.406
1747597800.03,-0.067,-0.059,-0.009,0.954,-0.128,-0.236,-23.713,-7.809,-2.395
1747597800.05,-0.099,-0.140,0.006,0.876,-0.073,-0.167,-22.654,-7.957,-2.405
1747597800.07,0.094,-0.101,-0.032,0.953,-0.087,-0.091,-21.631,-8.066,-2.330
1747597800.09,0.235,0.082,-0.043,1.211,-0.309,-0.160,-20.364,-8.238,-2.189
1747597800.11,0.069,0.131,0.017,1.193,-0.246,-0.151,-18.968,-8.601,-2.102
1747597800.13,0.009,-0.064,0.030,1.132,-0.041,-0.111,-17.634,-8.737,-1.967
1747597800.15,0.025,-0.148,0.044,1.119,0.015,-0.059,-16.368,-8.706,-1.771
1747597800.17,0.061,-0.052,0.040,1.155,-0.022,-0.067,-15.078,-8.659,-1.551
1747597800.19,0.005,0.047,0.046,1.162,0.004,-0.107,-13.751,-8.665,-1.351
1747597800.21,-0.051,0.063,0.036,1.119,0.036,-0.167,-12.436,-8.621,-1.208
1747597800.23,-0.099,-0.021,-0.000,1.059,0.013,-0.243,-11.173,-8.604,-1.181
1747597800.25,-0.083,-0.008,0.058,1.130,0.027,-0.378,-9.889,-8.606,-1.226
1747597800.27,-0.064,0.073,0.061,1.091,-0.116,-0.365,-8.556,-8.685,-1.388
1747597800.29,-0.006,0.017,-0.038,1.147,-0.097,-0.483,-7.214,-8.876,-1.600
1747597800.31,0.070,-0.007,-0.007,1.147,-0.122,-0.460,-5.841,-9.034,-1.853
1747597800.33,0.062,0.049,0.004,1.190,0.107,-0.317,-4.463,-9.087,-1.996
1747597800.35,0.118,0.137,-0.014,1.273,0.113,-0.336,-3.007,-8.951,-2.090
1747597800.37,0.067,0.080,-0.008,1.263,0.086,-0.290,-1.516,-8.817,-2.135
1747597800.39,-0.051,-0.058,-0.056,1.193,-0.012,-0.212,-0.088,-8.795,-2.166
1747597800.41,0.029,-0.058,-0.040,1.154,-0.056,-0.245,1.270,-8.828,-2.154
1747597800.43,0.089,0.023,-0.035,1.152,-0.247,-0.216,2.615,-9.005,-2.162
1747597800.45,0.001,0.058,-0.051,1.207,-0.170,-0.202,4.019,-9.271,-2.146
1747597800.47,-0.165,0.005,-0.029,1.190,0.040,-0.247,5.384,-9.363,-2.130
1747597800.49,-0.144,-0.026,-0.019,1.102,0.167,-0.253,6.720,-9.195,-2.189
1747597800.51,-0.059,0.024,-0.081,1.056,-0.012,-0.314,7.997,-9.088,-2.336
1747597800.53,0.012,0.037,-0.069,1.003,-0.191,-0.327,9.207,-9.203,-2.504
1747597800.55,-0.033,0.091,-0.052,0.919,-0.212,-0.317,10.355,-9.399,-2.721
1747597800.57,-0.080,0.051,-0.065,0.893,-0.104,-0.307,11.419,-9.569,-2.903
1747597800.59,0.001,0.067,-0.051,0.893,-0.065,-0.307,12.498,-9.587,-3.111
1747597800.61,0.037,0.009,-0.055,0.846,-0.142,-0.209,13.533,-9.676,-3.281
1747597800.63,0.019,-0.032,-0.071,0.785,-0.158,-0.177,14.492,-9.834,-3.344
1747597800.65,-0.016,0.001,-0.071,0.727,-0.141,-0.207,15.373,-10.009,-3.421
1747597800.67,0.006,0.005,-0.065,0.668,-0.214,-0.182,16.208,-10.187,-3.563
1747597800.69,-0.050,-0.001,-0.037,0.596,-0.130,-0.195,16.965,-10.370,-3.667
1747597800.71,-0.018,-0.040,-0.042,0.582,0.025,-0.205,17.668,-10.376,-3.813
1747597800.73,0.005,-0.023,-0.091,0.505,-0.081,-0.159,18.317,-10.394,-3.967
1747597800.75,-0.025,-0.006,-0.053,0.431,-0.034,-0.252,18.898,-10.404,-4.183
1747597800.77,0.000,-0.057,-0.055,0.337,-0.051,-0.223,19.371,-10.370,-4.450
1747597800.79,0.026,-0.048,-0.081,0.292,-0.060,-0.192,19.776,-10.396,-4.674
1747597800.81,0.012,-0.019,-0.071,0.173,-0.046,-0.145,20.069,-10.398,-4.887
1747597800.83,-0.017,-0.067,-0.073,0.122,0.088,-0.068,20.259,-10.353,-5.004
1747597800.85,0.028,-0.039,-0.054,0.079,0.083,-0.085,20.389,-10.235,-5.114
1747597800.87,0.034,-0.023,-0.040,0.050,0.042,-0.103,20.476,-10.125,-5.246
1747597800.89,0.017,-0.016,-0.055,0.045,0.021,-0.099,20.545,-10.090,-5.375
1747597800.91,0.007,-0.008,-0.043,-0.032,0.036,-0.065,20.575,-10.037,-5.514
1747597800.93,0.007,-0.029,-0.016,-0.086,0.187,-0.091,20.529,-9.861,-5.640
1747597800.95,0.035,-0.020,-0.122,-0.155,0.039,-0.043,20.387,-9.707,-5.776
1747597800.97,0.040,-0.059,-0.083,-0.218,0.040,-0.085,20.197,-9.615,-5.904
1747597800.99,-0.040,-0.073,-0.080,-0.334,0.153,-0.118,19.912,-9.466,-6.122
1747597801.01,-0.042,-0.081,-0.040,-0.512,0.219,-0.158,19.462,-9.159,-6.409
1747597801.03,-0.003,-0.107,-0.121,-0.688,0.202,-0.145,18.816,-8.799,-6.751
1747597801.05,0.065,-0.174,-0.174,-0.826,0.174,0.035,17.966,-8.533,-7.009
1747597801.07,0.086,-0.128,-0.159,-0.952,0.256,0.258,16.938,-8.304,-7.015
1747597801.09,0.075,-0.111,-0.126,-1.095,0.304,0.443,15.719,-8.047,-6.806
1747597801.11,0.067,-0.117,-0.141,-1.226,0.273,0.525,14.324,-7.816,-6.425
1747597801.13,0.037,-0.083,-0.151,-1.334,0.223,0.599,12.784,-7.633,-5.963
1747597801.15,0.012,-0.015,-0.141,-1.382,0.200,0.614,11.152,-7.503,-5.424
1747597801.17,-0.098,0.050,-0.104,-1.450,0.120,0.521,9.461,-7.399,-4.935
1747597801.19,-0.139,-0.029,-0.055,-1.527,0.078,0.424,7.704,-7.345,-4.574
1747597801.21,-0.032,-0.087,-0.055,-1.539,0.034,0.499,5.888,-7.306,-4.227
1747597801.23,0.039,-0.016,-0.075,-1.554,-0.004,0.515,4.072,-7.319,-3.788
1747597801.25,-0.012,-0.014,-0.052,-1.603,-0.093,0.432,2.217,-7.400,-3.381
1747597801.27,-0.042,-0.119,-0.035,-1.677,-0.141,0.392,0.295,-7.534,-3.070
1747597801.29,0.014,-0.151,0.012,-1.680,-0.033,0.437,-1.664,-7.635,-2.734
1747597801.31,0.032,-0.098,-0.041,-1.685,0.026,0.441,-3.637,-7.640,-2.345
1747597801.33,0.000,-0.054,0.006,-1.735,-0.022,0.410,-5.637,-7.589,-1.882
1747597801.35,-0.055,-0.066,-0.021,-1.786,-0.164,0.488,-7.701,-7.692,-1.542
1747597801.37,0.108,-0.131,0.014,-1.724,-0.065,0.516,-9.774,-7.789,-1.112
1747597801.39,0.115,-0.099,0.095,-1.681,-0.072,0.341,-11.754,-7.800,-0.771
1747597801.41,-0.038,-0.067,0.030,-1.707,-0.103,0.361,-13.714,-7.885,-0.538
1747597801.43,-0.098,-0.074,-0.031,-1.754,-0.114,0.402,-15.739,-7.962,-0.264
1747597801.45,-0.063,-0.091,0.049,-1.758,-0.134,0.365,-17.788,-8.051,0.024
1747597801.47,0.029,-0.125,0.079,-1.658,-0.103,0.271,-19.771,-8.157,0.219
1747597801.49,0.010,-0.120,-0.003,-1.686,-0.105,0.277,-21.698,-8.258,0.394
1747597801.51,-0.007,-0.096,-0.008,-1.720,-0.005,0.354,-23.679,-8.299,0.577
1747597801.53,-0.036,-0.018,0.072,-1.702,0.043,0.394,-25.677,-8.196,0.845
1747597801.55,-0.054,0.067,0.048,-1.692,0.043,0.366,-27.658,-8.070,1.140
1747597801.57,0.033,0.064,0.055,-1.667,-0.044,0.300,-29.616,-8.000,1.385
1747597801.59,0.055,-0.007,0.022,-1.575,-0.187,0.236,-31.498,-8.101,1.536
1747597801.61,0.039,-0.076,-0.027,-1.559,-0.186,0.224,-33.279,-8.335,1.623
1747597801.63,0.025,-0.107,-0.025,-1.594,-0.165,0.288,-35.104,-8.509,1.739
1747597801.65,0.024,-0.113,-0.001,-1.634,-0.117,0.464,-37.008,-8.595,2.012
1747597801.67,0.069,-0.071,0.008,-1.618,0.066,0.441,-38.909,-8.400,2.403
1747597801.69,0.000,-0.003,-0.032,-1.620,0.033,0.453,-40.810,-8.161,2.801
1747597801.71,-0.001,0.047,0.016,-1.604,0.146,0.351,-42.695,-7.856,3.177
1747597801.73,0.019,0.053,0.012,-1.642,0.036,0.340,-44.580,-7.611,3.452
1747597801.75,0.013,0.004,0.006,-1.695,-0.116,0.303,-46.529,-7.541,3.674
1747597801.77,0.040,-0.065,0.035,-1.679,-0.105,0.395,-48.487,-7.547,3.902
1747597801.79,-0.010,-0.081,-0.006,-1.673,-0.041,0.346,-50.443,-7.405,4.255
1747597801.81,-0.026,-0.041,0.000,-1.658,0.007,0.238,-52.358,-7.365,4.389
1747597801.83,0.024,-0.026,0.020,-1.645,0.028,0.219,-54.279,-7.286,4.485
1747597801.85,0.011,0.004,-0.004,-1.602,-0.091,0.189,-56.135,-7.320,4.527
1747597801.87,0.019,-0.005,-0.016,-1.589,-0.116,0.097,-57.963,-7.563,4.458
1747597801.89,0.045,-0.044,-0.001,-1.575,-0.091,0.133,-59.765,-7.845,4.275
1747597801.91,0.005,-0.045,-0.015,-1.617,-0.069,0.117,-61.596,-8.161,4.036
1747597801.93,0.032,-0.032,0.045,-1.586,0.078,0.107,-63.424,-8.405,3.742
1747597801.95,0.045,0.008,0.066,-1.587,0.146,0.099,-65.238,-8.660,3.306
1747597801.97,-0.004,0.009,0.017,-1.623,-0.009,0.044,-67.043,-8.959,2.852
1747597801.99,-0.030,-0.035,-0.001,-1.587,0.056,0.050,-68.866,-9.619,2.156
1747597802.01,0.055,-0.041,0.039,-1.551,0.057,-0.029,-70.642,-10.259,1.366
1747597802.03,0.019,0.001,-0.004,-1.495,0.116,0.011,-72.351,-11.203,0.283
1747597802.05,0.010,-0.004,0.061,-1.546,0.254,-0.026,-74.043,-12.156,-0.989
1747597802.07,-0.027,-0.015,0.036,-1.488,0.242,-0.056,-75.731,-13.390,-2.578
1747597802.09,0.004,-0.011,0.034,-1.475,0.318,-0.001,-77.365,-14.991,-4.590
1747597802.11,0.012,-0.072,0.011,-1.504,0.349,-0.008,-78.998,-16.806,-6.890
1747597802.13,-0.020,-0.039,-0.020,-1.374,0.281,-0.091,-80.565,-19.551,-10.083
1747597802.15,-0.031,-0.011,-0.051,-1.268,0.383,-0.057,-81.927,-23.273,-14.255
1747597802.17,0.039,-0.040,-0.020,-1.205,0.403,-0.090,-83.174,-27.998,-19.545
1747597802.19,0.047,-0.037,-0.068,-1.004,0.351,-0.157,-84.174,-34.694,-26.785
1747597802.21,-0.011,-0.015,0.015,-1.121,0.368,-0.101,-85.008,-43.238,-35.848
1747597802.23,-0.037,-0.056,0.077,-1.122,0.396,-0.056,-85.787,-56.049,-49.211
1747597802.25,0.019,-0.022,-0.006,-1.105,0.504,-0.058,-86.275,-72.567,-66.361
1747597802.27,0.078,0.009,0.051,-1.135,0.505,-0.044,-86.404,-92.023,-86.550
1747597802.29,0.094,-0.016,-0.051,-0.935,0.195,-0.076,-86.093,-109.260,-104.346
1747597802.31,0.087,-0.066,-0.075,-0.786,0.004,-0.052,-85.629,-121.018,-116.300
1747597802.33,0.028,-0.022,-0.036,-0.654,-0.165,-0.151,-85.053,-128.745,-124.076
1747597802.35,-0.066,0.039,-0.158,-0.494,-0.164,-0.198,-84.480,-132.758,-127.979
1747597802.37,-0.058,0.062,-0.089,-0.364,-0.042,-0.150,-83.986,-135.012,-130.244
1747597802.39,-0.049,0.047,-0.091,-0.270,0.052,-0.084,-83.647,-136.359,-131.695
1747597802.41,0.021,-0.022,-0.050,-0.234,0.124,-0.062,-83.376,-137.523,-133.087
1747597802.43,0.044,0.023,-0.081,-0.078,-0.016,-0.071,-83.181,-138.051,-133.792
1747597802.45,0.038,0.051,-0.020,0.061,-0.041,-0.007,-83.171,-137.676,-133.474
1747597802.47,-0.020,-0.022,0.062,-0.052,0.013,-0.022,-83.170,-137.546,-133.438
1747597802.49,-0.033,-0.042,0.048,-0.142,-0.012,-0.077,-83.047,-137.889,-133.877
1747597802.51,-0.025,-0.023,0.044,-0.089,0.077,-0.092,-82.877,-138.010,-134.108
1747597802.53,-0.058,0.020,0.071,-0.042,0.065,-0.021,-82.791,-137.818,-134.124
1747597802.55,-0.084,-0.011,0.081,-0.134,-0.021,-0.017,-82.705,-138.239,-134.668
1747597802.57,0.013,-0.040,0.050,-0.148,-0.008,-0.030,-82.551,-138.961,-135.460
1747597802.59,0.048,-0.001,0.034,-0.122,-0.054,-0.039,-82.404,-139.523,-136.094
1747597802.61,-0.018,-0.001,0.018,-0.077,-0.073,-0.050,-82.271,-139.834,-136.415
1747597802.63,-0.020,0.001,-0.013,-0.020,0.014,-0.062,-82.159,-139.746,-136.367
1747597802.65,0.006,0.012,-0.004,0.012,0.037,-0.052,-82.111,-139.394,-136.130
1747597802.67,-0.022,0.006,0.017,0.002,0.002,-0.041,-82.082,-139.143,-135.978
1747597802.68,-0.032,-0.004,-0.011,-0.008,-0.011,-0.025,-82.054,-139.003,-135.908
1747597802.70,-0.006,-0.027,0.019,-0.059,0.107,-0.010,-82.009,-138.974,-136.028
1747597802.72,0.023,-0.011,0.024,-0.038,0.188,-0.002,-81.961,-139.065,-136.393
1747597802.74,0.013,0.023,0.003,0.023,0.140,-0.000,-81.944,-138.905,-136.509
1747597802.77,-0.017,0.001,0.013,0.044,0.105,-0.012,-81.962,-138.405,-136.235
1747597802.78,-0.026,-0.031,0.010,0.051,0.079,0.002,-81.980,-138.031,-136.064
1747597802.80,0.000,-0.039,0.001,0.081,0.054,0.018,-82.036,-137.830,-136.015
1747597802.82,0.037,-0.008,-0.000,0.139,0.037,0.004,-82.140,-137.378,-135.687
1747597802.84,0.029,0.047,-0.006,0.274,-0.027,-0.023,-82.296,-136.112,-134.515
1747597802.86,-0.007,0.028,0.014,0.300,-0.163,-0.023,-82.504,-134.283,-132.637
1747597802.88,0.003,-0.033,0.045,0.304,-0.183,-0.005,-82.722,-132.500,-130.724
1747597802.90,0.027,-0.030,0.053,0.380,-0.156,0.019,-82.982,-130.540,-128.641
1747597802.92,0.011,-0.002,0.083,0.470,-0.183,0.059,-83.332,-127.910,-125.890
1747597802.94,-0.035,-0.022,0.087,0.535,-0.205,0.051,-83.726,-124.420,-122.238
1747597802.96,-0.032,-0.028,0.040,0.634,-0.223,0.016,-84.109,-119.576,-117.210
1747597802.98,-0.003,0.025,0.000,0.771,-0.188,-0.001,-84.468,-112.585,-110.003
1747597803.00,0.024,0.036,0.041,0.924,-0.158,-0.001,-84.763,-102.990,-100.234
1747597803.02,-0.011,-0.000,0.039,1.025,-0.252,0.008,-84.895,-90.933,-87.969
1747597803.04,-0.054,-0.036,-0.013,1.082,-0.225,0.013,-84.796,-77.788,-74.531
1747597803.06,-0.034,-0.022,-0.001,1.103,-0.035,-0.008,-84.405,-65.478,-62.103
1747597803.08,-0.018,0.003,-0.042,1.230,-0.141,-0.023,-83.726,-54.523,-51.063
1747597803.10,-0.028,0.015,0.033,1.284,-0.003,-0.047,-82.768,-45.543,-41.963
1747597803.12,-0.004,-0.017,0.109,1.199,0.115,-0.018,-81.674,-38.600,-35.103
1747597803.14,-0.033,-0.065,0.031,1.086,-0.035,-0.025,-80.615,-33.755,-30.285
1747597803.16,0.009,-0.075,-0.027,1.155,0.187,-0.010,-79.517,-29.961,-26.545
1747597803.18,0.081,0.037,0.019,1.156,0.098,0.020,-78.368,-26.522,-23.312
1747597803.20,-0.018,0.077,-0.046,1.204,-0.030,0.010,-77.139,-23.829,-20.591
1747597803.22,-0.004,-0.018,0.040,1.172,0.189,0.111,-75.915,-21.313,-18.150
1747597803.24,-0.030,-0.089,0.031,1.200,0.187,0.127,-74.688,-18.781,-15.809
1747597803.26,-0.013,-0.064,-0.035,1.234,0.247,0.088,-73.403,-16.643,-13.862
1747597803.28,0.054,0.027,-0.010,1.277,0.209,0.000,-72.055,-15.016,-12.460
1747597803.30,0.027,0.036,0.073,1.207,0.296,0.123,-70.650,-13.488,-11.190
1747597803.32,-0.036,-0.000,0.121,1.045,0.176,0.283,-69.467,-11.802,-9.708
1747597803.34,0.072,-0.055,0.017,1.059,0.178,0.280,-68.373,-10.132,-8.166
1747597803.36,0.128,-0.036,-0.061,1.253,-0.116,0.034,-67.103,-9.077,-7.099
1747597803.38,-0.049,0.012,-0.096,1.385,-0.268,-0.296,-65.595,-9.170,-6.927
1747597803.40,-0.146,-0.010,0.105,1.253,0.331,-0.137,-64.007,-9.216,-7.033
1747597803.42,-0.202,-0.086,0.036,1.034,0.603,0.187,-62.723,-8.196,-6.536
1747597803.44,-0.030,-0.079,0.024,1.013,0.488,0.403,-61.646,-6.601,-5.477
1747597803.46,0.265,0.027,-0.004,1.153,0.178,0.208,-60.470,-5.252,-4.407
1747597803.48,0.198,0.063,-0.063,1.350,-0.318,-0.155,-59.027,-5.090,-4.126
1747597803.50,-0.092,-0.023,-0.041,1.419,-0.128,-0.274,-57.427,-5.666,-4.391
1747597803.52,-0.151,-0.112,0.070,1.164,0.376,-0.107,-55.908,-5.574,-4.513
1747597803.54,-0.120,-0.129,0.016,0.998,0.247,0.125,-54.722,-5.014,-4.289
1747597803.56,0.165,-0.047,0.002,1.038,-0.005,0.221,-53.589,-4.446,-3.728
1747597803.58,0.284,0.062,0.033,1.266,-0.257,0.097,-52.302,-4.210,-3.195
1747597803.60,0.053,0.107,0.030,1.339,-0.192,-0.108,-50.791,-4.387,-3.014
1747597803.62,-0.120,0.089,0.087,1.220,0.100,-0.092,-49.301,-4.444,-3.011
1747597803.64,-0.052,0.037,0.009,1.070,0.018,0.025,-48.027,-4.248,-2.870
1747597803.66,0.163,-0.037,0.012,1.148,-0.221,0.151,-46.766,-4.186,-2.565
1747597803.68,0.122,-0.003,0.025,1.219,-0.306,0.066,-45.429,-4.246,-2.163
1747597803.70,-0.094,0.108,0.058,1.208,-0.111,-0.068,-44.036,-4.403,-1.967
1747597803.72,-0.155,0.124,0.012,1.071,-0.019,-0.054,-42.726,-4.441,-1.885
1747597803.74,-0.034,0.030,-0.031,1.021,-0.206,0.077,-41.556,-4.460,-1.666
1747597803.76,0.103,-0.007,0.041,1.218,-0.386,-0.021,-40.298,-4.662,-1.392
1747597803.78,-0.002,-0.028,-0.005,1.274,-0.357,-0.181,-38.849,-5.119,-1.303
1747597803.80,-0.080,-0.116,-0.010,1.178,0.018,-0.130,-37.423,-5.377,-1.312
1747597803.82,0.050,-0.146,0.030,1.037,0.126,0.026,-36.186,-5.189,-1.166
1747597803.84,0.219,-0.024,0.037,1.128,-0.151,0.108,-34.977,-5.036,-0.818
1747597803.86,0.222,0.129,-0.002,1.218,-0.526,0.008,-33.644,-5.291,-0.470
1747597803.88,0.021,0.141,-0.007,1.227,-0.584,-0.167,-32.242,-5.946,-0.314
1747597803.90,-0.040,-0.011,0.024,1.168,-0.334,-0.142,-30.849,-6.484,-0.270
1747597803.92,-0.059,-0.129,-0.019,1.086,-0.167,0.048,-29.568,-6.736,-0.037
1747597803.94,0.031,-0.019,0.064,1.120,-0.043,0.021,-28.337,-6.690,0.298
1747597803.96,0.001,0.112,0.015,1.236,-0.201,-0.102,-27.003,-6.749,0.541
1747597803.98,-0.012,0.153,0.064,1.321,-0.245,-0.237,-25.505,-7.009,0.641
1747597804.00,0.031,0.075,-0.009,1.293,-0.341,-0.307,-23.979,-7.425,0.592
1747597804.02,-0.018,-0.058,-0.027,1.257,-0.230,-0.160,-22.503,-7.789,0.603
1747597804.04,-0.085,-0.037,0.043,1.253,0.025,-0.144,-21.067,-7.882,0.747
1747597804.06,-0.132,0.102,0.095,1.312,0.107,-0.264,-19.592,-7.808,0.814
1747597804.08,-0.068,0.101,0.065,1.295,0.036,-0.492,-18.044,-7.776,0.704
1747597804.10,-0.053,-0.045,-0.037,1.211,-0.191,-0.579,-16.548,-7.994,0.357
1747597804.12,-0.030,-0.144,-0.031,1.164,-0.267,-0.509,-15.128,-8.407,0.003
1747597804.14,0.036,-0.076,-0.042,1.168,-0.204,-0.453,-13.735,-8.771,-0.233
1747597804.16,0.030,0.077,0.036,1.221,-0.091,-0.405,-12.313,-8.997,-0.408
1747597804.18,-0.000,0.115,0.090,1.224,0.103,-0.362,-10.870,-9.022,-0.543
1747597804.20,0.069,-0.004,-0.003,1.225,0.122,-0.386,-9.421,-8.905,-0.611
1747597804.22,0.144,-0.085,-0.152,1.178,-0.013,-0.440,-7.991,-8.886,-0.771
1747597804.24,0.022,-0.087,-0.120,1.131,-0.065,-0.315,-6.625,-8.996,-0.948
1747597804.26,-0.057,0.070,0.093,1.127,0.154,-0.224,-5.311,-8.934,-0.980
1747597804.28,-0.108,0.214,0.118,1.210,0.111,-0.295,-3.965,-8.790,-0.968
1747597804.30,0.011,0.064,-0.058,1.220,0.202,-0.452,-2.508,-8.619,-1.134
1747597804.32,-0.054,-0.039,-0.103,1.082,0.157,-0.400,-1.106,-8.426,-1.428
1747597804.34,-0.134,-0.111,-0.077,0.949,0.158,-0.225,0.074,-8.232,-1.553
1747597804.36,0.058,-0.016,-0.053,0.921,-0.007,-0.226,1.151,-8.137,-1.619
1747597804.38,0.228,0.129,-0.016,0.979,-0.179,-0.290,2.258,-8.257,-1.711
1747597804.40,0.124,0.070,-0.036,0.972,-0.223,-0.224,3.406,-8.522,-1.841
1747597804.42,-0.091,-0.070,-0.037,0.963,0.114,-0.152,4.539,-8.575,-1.884
1747597804.44,-0.059,-0.069,-0.031,0.958,0.168,-0.162,5.652,-8.382,-1.894
1747597804.46,-0.009,0.000,0.040,0.970,0.055,-0.225,6.769,-8.252,-1.938
1747597804.48,0.024,0.062,-0.006,0.947,-0.237,-0.364,7.898,-8.310,-2.111
1747597804.50,0.010,0.010,-0.081,0.933,-0.318,-0.430,9.023,-8.609,-2.419
1747597804.52,-0.059,0.013,-0.032,0.908,-0.243,-0.444,10.150,-8.872,-2.778
1747597804.54,-0.010,-0.001,0.010,0.898,-0.143,-0.408,11.233,-9.034,-3.117
1747597804.56,0.102,-0.002,-0.008,0.916,-0.131,-0.373,12.314,-9.129,-3.423
1747597804.58,0.126,-0.015,-0.041,0.907,-0.141,-0.285,13.405,-9.237,-3.660
1747597804.60,0.051,-0.053,-0.039,0.911,-0.054,-0.169,14.480,-9.344,-3.776
1747597804.62,0.083,-0.084,0.008,0.919,0.151,-0.088,15.522,-9.304,-3.793
1747597804.64,0.184,-0.037,-0.018,0.925,0.060,0.033,16.571,-9.159,-3.671
1747597804.66,0.054,0.039,-0.085,0.929,-0.198,0.117,17.597,-9.385,-3.404
1747597804.68,-0.109,0.001,-0.034,0.849,-0.003,0.033,18.583,-9.612,-3.172
1747597804.70,-0.075,-0.029,-0.007,0.753,0.090,-0.021,19.490,-9.578,-3.078
1747597804.72,0.009,-0.065,-0.078,0.699,-0.067,-0.054,20.298,-9.626,-3.032
1747597804.74,-0.029,-0.012,-0.090,0.603,-0.052,-0.114,21.037,-9.724,-3.080
1747597804.76,-0.103,-0.015,-0.062,0.485,0.070,-0.101,21.663,-9.714,-3.159
1747597804.78,-0.110,0.003,-0.060,0.419,0.162,-0.157,22.196,-9.567,-3.287
1747597804.80,-0.035,-0.019,-0.131,0.294,0.035,-0.218,22.631,-9.386,-3.520
1747597804.82,-0.007,-0.025,-0.146,0.195,-0.037,-0.158,22.937,-9.329,-3.789
1747597804.84,-0.027,0.004,-0.181,0.062,-0.042,-0.120,23.105,-9.333,-4.018
1747597804.86,-0.048,-0.051,-0.148,-0.073,0.089,-0.147,23.137,-9.235,-4.263
1747597804.88,-0.029,-0.109,-0.135,-0.306,0.200,-0.125,22.948,-8.984,-4.576
1747597804.90,0.020,-0.133,-0.131,-0.509,0.218,-0.022,22.493,-8.665,-4.854
1747597804.92,0.043,-0.108,-0.215,-0.713,0.122,0.101,21.803,-8.465,-5.009
1747597804.94,-0.028,-0.163,-0.160,-0.932,0.367,0.163,20.853,-8.200,-5.067
1747597804.96,-0.001,-0.146,-0.136,-1.110,0.430,0.227,19.657,-7.750,-5.067
1747597804.98,0.064,-0.044,-0.151,-1.251,0.295,0.270,18.280,-7.356,-5.004
1747597805.00,-0.016,-0.041,-0.176,-1.387,0.261,0.304,16.744,-7.110,-4.882
1747597805.02,-0.035,-0.050,-0.126,-1.487,0.353,0.316,15.069,-6.802,-4.732
1747597805.04,0.065,-0.052,-0.069,-1.548,0.322,0.392,13.300,-6.439,-4.507
1747597805.06,0.080,-0.063,-0.117,-1.572,0.206,0.476,11.469,-6.220,-4.161
1747597805.08,0.046,-0.084,-0.101,-1.633,0.082,0.490,9.591,-6.111,-3.756
1747597805.10,0.008,-0.087,-0.094,-1.684,-0.043,0.518,7.639,-6.154,-3.335
1747597805.12,0.043,-0.081,-0.032,-1.719,-0.103,0.571,5.638,-6.262,-2.840
1747597805.14,-0.033,-0.037,-0.029,-1.718,-0.058,0.489,3.623,-6.421,-2.322
1747597805.16,-0.126,-0.092,-0.008,-1.749,-0.048,0.373,1.601,-6.486,-1.945
1747597805.18,-0.050,-0.173,-0.006,-1.814,-0.173,0.426,-0.470,-6.590,-1.617
1747597805.20,0.164,-0.188,-0.066,-1.814,-0.303,0.604,-2.599,-6.872,-1.166
1747597805.22,0.234,-0.144,-0.011,-1.736,-0.255,0.593,-4.707,-7.174,-0.615
1747597805.24,-0.050,-0.046,0.109,-1.723,-0.119,0.515,-6.731,-7.363,-0.169
1747597805.26,-0.058,-0.075,0.090,-1.744,-0.081,0.610,-8.764,-7.387,0.323
1747597805.28,0.001,-0.129,-0.010,-1.727,-0.128,0.494,-10.807,-7.433,0.852
1747597805.30,-0.090,-0.107,0.079,-1.696,-0.194,0.343,-12.800,-7.568,1.208
1747597805.32,-0.147,-0.070,0.092,-1.658,-0.232,0.241,-14.738,-7.810,1.432
1747597805.34,-0.050,-0.059,0.054,-1.647,-0.169,0.216,-16.642,-8.044,1.583
1747597805.36,0.043,-0.037,0.050,-1.630,-0.155,0.246,-18.535,-8.219,1.703
1747597805.38,-0.012,0.024,0.024,-1.606,-0.099,0.203,-20.410,-8.391,1.895
1747597805.40,0.073,-0.017,0.037,-1.574,0.036,0.234,-22.236,-8.398,1.989
1747597805.42,-0.010,0.004,0.063,-1.527,-0.003,0.266,-24.049,-8.370,2.184
1747597805.44,-0.008,0.001,0.006,-1.522,-0.016,0.239,-25.791,-8.351,2.369
1747597805.46,0.052,-0.041,-0.007,-1.498,0.074,0.282,-27.539,-8.338,2.543
1747597805.48,0.193,-0.058,-0.017,-1.501,0.070,0.354,-29.290,-8.151,2.804
1747597805.50,0.116,-0.054,-0.050,-1.513,-0.072,0.393,-31.062,-8.067,3.181
1747597805.52,-0.026,-0.031,0.017,-1.515,-0.065,0.345,-32.818,-8.027,3.519
1747597805.54,-0.156,-0.023,-0.027,-1.598,-0.080,0.299,-34.634,-8.053,3.760
1747597805.56,-0.113,-0.036,0.090,-1.535,0.087,0.349,-36.452,-7.964,4.003
1747597805.58,0.028,-0.040,-0.057,-1.619,-0.125,0.394,-38.280,-7.843,4.338
1747597805.60,0.178,-0.075,-0.097,-1.632,-0.061,0.331,-40.189,-7.804,4.675
1747597805.62,0.195,-0.090,0.007,-1.564,-0.233,0.323,-42.038,-7.873,4.937
1747597805.64,0.060,-0.053,0.002,-1.562,-0.253,0.360,-43.877,-8.028,5.250
1747597805.66,0.001,-0.004,0.039,-1.564,0.004,0.444,-45.699,-7.975,5.634
1747597805.68,-0.049,0.015,0.055,-1.582,-0.004,0.371,-47.541,-7.717,6.024
1747597805.70,-0.093,-0.032,-0.015,-1.679,-0.064,0.286,-49.441,-7.618,6.328
1747597805.71,-0.052,-0.090,-0.041,-1.622,-0.155,0.227,-51.322,-7.692,6.458
1747597805.73,-0.025,-0.067,0.001,-1.649,-0.063,0.204,-53.216,-7.883,6.503
1747597805.76,0.009,-0.002,0.042,-1.656,0.045,0.185,-55.107,-7.928,6.466
1747597805.78,0.037,0.058,0.035,-1.605,-0.010,0.137,-56.980,-8.004,6.369
1747597805.79,0.056,0.060,0.002,-1.600,-0.135,0.139,-58.810,-8.291,6.164
1747597805.81,0.062,0.016,0.019,-1.548,-0.174,0.105,-60.609,-8.681,5.954
1747597805.83,0.031,-0.022,0.038,-1.557,-0.111,0.071,-62.358,-9.209,5.519
1747597805.85,-0.051,-0.074,-0.038,-1.542,-0.176,0.157,-64.131,-9.685,5.187
1747597805.87,0.002,-0.084,-0.024,-1.592,0.016,0.167,-65.923,-10.055,4.895
1747597805.89,0.076,-0.030,0.047,-1.558,0.176,0.048,-67.731,-10.322,4.458
1747597805.91,0.017,0.010,0.035,-1.466,0.097,0.072,-69.439,-10.847,3.714
1747597805.93,-0.044,-0.032,-0.006,-1.518,0.108,0.054,-71.115,-11.444,2.956
1747597805.95,-0.069,-0.073,-0.009,-1.514,0.179,-0.066,-72.818,-12.337,1.810
1747597805.97,-0.051,-0.056,-0.021,-1.478,0.318,0.015,-74.494,-13.523,0.284
1747597805.99,0.003,-0.011,0.024,-1.461,0.335,-0.005,-76.105,-14.621,-1.301
1747597806.01,0.026,0.030,0.068,-1.534,0.388,0.012,-77.782,-16.214,-3.381
1747597806.03,0.096,-0.014,0.004,-1.477,0.399,0.005,-79.392,-18.369,-6.103
1747597806.05,0.061,-0.043,0.026,-1.404,0.348,0.033,-80.966,-20.945,-9.221
1747597806.07,-0.040,-0.057,-0.051,-1.412,0.224,-0.115,-82.404,-25.161,-13.846
1747597806.09,-0.057,-0.044,0.061,-1.556,0.246,0.003,-83.886,-32.302,-21.370
1747597806.11,0.027,-0.017,-0.034,-1.369,0.323,-0.004,-85.245,-42.569,-32.070
1747597806.13,0.064,0.011,-0.061,-1.165,0.404,-0.017,-86.150,-57.098,-47.139
1747597806.15,0.006,-0.013,-0.064,-1.023,0.485,-0.019,-86.644,-74.747,-65.399
1747597806.17,-0.104,-0.038,-0.027,-0.966,0.386,0.044,-86.775,-94.266,-85.592
1747597806.19,-0.153,-0.069,-0.181,-0.844,0.459,-0.095,-86.518,-110.603,-102.510
1747597806.21,-0.020,0.006,-0.048,-0.762,0.549,-0.069,-86.022,-122.070,-114.722
1747597806.23,0.035,0.035,-0.066,-0.685,0.377,-0.106,-85.449,-129.909,-123.210
1747597806.25,0.095,-0.010,-0.101,-0.607,0.328,-0.095,-84.850,-134.894,-128.725
1747597806.27,0.108,0.011,-0.079,-0.513,0.263,-0.111,-84.306,-138.419,-132.719
1747597806.29,0.091,0.058,-0.083,-0.346,0.148,-0.113,-83.848,-140.162,-134.854
1747597806.31,0.048,0.032,-0.029,-0.296,0.182,0.109,-83.540,-141.486,-136.440
1747597806.33,0.025,-0.024,0.023,-0.175,-0.053,-0.032,-83.376,-143.612,-138.739
1747597806.35,-0.107,-0.009,0.019,-0.169,-0.088,-0.105,-83.153,-144.044,-139.209
1747597806.37,-0.099,0.032,0.010,-0.054,-0.027,-0.120,-82.974,-143.864,-139.080
1747597806.39,-0.035,0.010,0.011,-0.040,0.012,-0.048,-82.888,-143.360,-138.702
1747597806.41,0.052,-0.018,0.023,-0.152,0.007,0.001,-82.777,-143.766,-139.243
1747597806.43,0.111,-0.001,0.028,-0.045,0.012,0.070,-82.685,-144.649,-140.287
1747597806.45,0.035,-0.007,0.062,0.143,-0.279,0.007,-82.777,-144.776,-140.407
1747597806.47,-0.096,-0.037,0.130,0.066,-0.269,-0.063,-82.866,-144.257,-139.642
1747597806.49,-0.053,-0.089,0.101,-0.078,-0.060,-0.072,-82.808,-144.013,-139.343
1747597806.51,-0.041,-0.006,0.018,-0.042,0.035,-0.051,-82.698,-143.978,-139.411
1747597806.53,-0.045,0.032,0.012,0.054,0.091,0.017,-82.701,-143.789,-139.413
1747597806.55,-0.057,0.014,0.037,0.026,0.061,-0.002,-82.744,-143.557,-139.386
1747597806.57,-0.000,-0.029,0.053,0.062,0.128,-0.023,-82.758,-143.151,-139.183
1747597806.59,0.033,-0.022,0.066,0.041,0.140,-0.031,-82.791,-142.440,-138.730
1747597806.61,0.040,-0.013,0.051,0.038,-0.012,-0.029,-82.786,-141.910,-138.384
1747597806.63,0.090,0.005,0.029,0.071,-0.165,-0.016,-82.819,-141.502,-137.983
1747597806.65,0.110,0.004,0.017,0.044,-0.245,-0.021,-82.853,-141.313,-137.641
1747597806.67,0.060,-0.006,-0.014,0.080,-0.228,-0.056,-82.869,-141.109,-137.245
1747597806.69,-0.015,0.006,-0.017,0.132,-0.189,-0.070,-82.916,-140.264,-136.259
1747597806.71,-0.040,-0.004,0.002,0.163,-0.127,-0.054,-82.995,-139.232,-135.130
1747597806.73,-0.024,0.007,0.015,0.241,-0.034,0.016,-83.156,-137.982,-133.887
1747597806.75,-0.055,-0.002,0.037,0.289,0.010,0.027,-83.405,-136.533,-132.504
1747597806.77,-0.076,-0.031,0.022,0.312,0.092,0.035,-83.678,-134.465,-130.577
1747597806.79,-0.032,-0.013,0.052,0.337,0.043,0.034,-83.958,-132.147,-128.417
1747597806.81,0.047,0.014,0.048,0.420,-0.119,0.032,-84.260,-129.264,-125.567
1747597806.83,0.077,0.022,0.026,0.514,-0.236,0.036,-84.620,-125.299,-121.448
1747597806.85,0.021,-0.021,0.038,0.579,-0.335,0.003,-84.976,-120.052,-115.926
1747597806.87,-0.021,-0.024,0.011,0.689,-0.349,-0.029,-85.284,-112.757,-108.281
1747597806.89,-0.018,0.012,-0.002,0.803,-0.267,-0.029,-85.512,-102.795,-98.019
1747597806.91,-0.050,0.057,-0.003,0.858,-0.283,-0.029,-85.592,-90.853,-85.792
1747597806.93,-0.061,0.019,0.067,0.830,-0.140,-0.003,-85.485,-78.675,-73.394
1747597806.95,-0.054,-0.048,0.084,0.888,0.014,-0.034,-85.186,-67.436,-62.113
1747597806.97,-0.053,-0.032,0.033,0.993,0.142,-0.024,-84.646,-56.874,-51.640
1747597806.99,-0.010,0.002,0.040,1.065,0.137,-0.033,-83.897,-47.416,-42.400
1747597807.01,-0.037,0.003,-0.008,1.107,0.051,-0.117,-82.942,-40.513,-35.559
1747597807.03,0.026,0.007,0.040,1.153,0.300,-0.086,-81.851,-35.052,-30.339
1747597807.05,-0.026,0.002,0.027,1.171,-0.019,-0.106,-80.658,-30.688,-26.182
1747597807.07,-0.063,-0.029,-0.055,1.063,0.121,-0.110,-79.495,-27.808,-23.290
1747597807.09,0.070,-0.060,0.063,1.160,0.386,-0.085,-78.319,-25.122,-20.969
1747597807.11,0.017,-0.001,-0.015,1.187,0.297,0.007,-77.056,-22.458,-18.679
1747597807.13,-0.007,0.014,0.006,1.106,0.238,0.102,-75.859,-19.892,-16.419
1747597807.15,0.041,-0.027,0.037,1.041,0.286,0.091,-74.757,-17.682,-14.498
1747597807.17,0.102,-0.061,0.017,1.189,0.157,0.044,-73.568,-15.900,-12.976
1747597807.19,0.070,0.025,0.009,1.214,0.178,0.050,-72.226,-14.365,-11.612
1747597807.21,0.038,0.030,0.056,1.036,0.097,0.053,-71.006,-13.124,-10.544
1747597807.23,0.028,-0.038,0.013,1.103,0.065,0.119,-69.853,-12.045,-9.532
1747597807.25,0.021,-0.054,-0.022,1.182,0.075,0.117,-68.607,-10.917,-8.453
1747597807.27,0.004,-0.061,-0.073,1.278,0.036,0.097,-67.221,-9.918,-7.499
1747597807.29,0.005,-0.031,-0.048,1.092,0.282,0.069,-65.904,-9.040,-6.745
1747597807.31,0.011,-0.029,0.001,1.097,0.311,0.080,-64.677,-8.114,-6.169
1747597807.33,0.058,-0.053,0.004,1.013,0.217,0.122,-63.517,-7.214,-5.578
1747597807.35,-0.004,-0.040,-0.089,1.137,-0.074,0.101,-62.303,-6.606,-5.001
1747597807.37,-0.013,-0.011,-0.078,1.147,-0.002,-0.037,-61.006,-6.305,-4.616
1747597807.39,-0.043,-0.030,0.026,1.227,0.288,-0.130,-59.654,-6.127,-4.548
1747597807.41,-0.105,-0.042,0.133,1.102,0.339,0.037,-58.300,-5.608,-4.398
1747597807.43,-0.076,-0.031,-0.016,1.018,0.172,0.239,-57.135,-4.882,-3.852
1747597807.45,0.121,0.002,-0.007,1.114,0.038,0.041,-55.949,-4.284,-3.281
1747597807.47,0.059,0.039,-0.093,1.177,-0.198,-0.262,-54.625,-4.469,-3.362
1747597807.49,-0.107,-0.016,0.055,1.151,0.154,-0.241,-53.272,-4.837,-3.693
1747597807.51,-0.083,-0.078,0.111,0.994,0.380,-0.004,-52.024,-4.529,-3.754
1747597807.53,0.081,-0.005,-0.056,0.849,0.108,0.292,-51.007,-3.920,-3.318
1747597807.55,0.299,0.130,0.050,1.000,-0.180,0.242,-49.988,-3.467,-2.672
1747597807.57,0.176,0.155,0.001,1.117,-0.518,0.007,-48.777,-3.621,-2.313
1747597807.59,-0.027,0.066,0.008,1.052,-0.422,-0.131,-47.530,-4.203,-2.284
1747597807.61,-0.045,-0.056,0.018,0.988,-0.096,-0.065,-46.356,-4.533,-2.283
1747597807.63,-0.037,-0.124,0.005,0.907,-0.052,0.099,-45.291,-4.470,-2.073
1747597807.65,-0.009,-0.054,-0.010,0.996,-0.121,0.106,-44.229,-4.354,-1.690
1747597807.67,-0.065,0.040,0.027,1.121,-0.111,-0.117,-43.020,-4.400,-1.500
1747597807.69,-0.138,0.037,0.045,1.116,0.081,-0.307,-41.708,-4.547,-1.646
1747597807.71,-0.100,-0.053,-0.034,0.975,-0.066,-0.174,-40.497,-4.694,-1.851
1747597807.73,0.108,-0.044,0.005,0.950,-0.113,-0.019,-39.409,-4.813,-1.799
1747597807.75,0.229,0.057,0.009,1.046,-0.250,-0.011,-38.280,-4.945,-1.618
1747597807.77,0.069,0.102,0.006,1.145,-0.356,-0.091,-37.026,-5.248,-1.480
1747597807.79,-0.052,0.014,0.024,1.154,-0.124,-0.192,-35.683,-5.576,-1.476
1747597807.81,-0.020,-0.162,-0.013,1.038,-0.034,-0.121,-34.421,-5.706,-1.522
1747597807.83,0.043,-0.189,-0.019,0.948,0.051,-0.003,-33.306,-5.640,-1.361
1747597807.85,0.159,0.085,0.020,1.040,-0.173,0.071,-32.189,-5.587,-1.123
1747597807.87,0.052,0.222,0.018,1.138,-0.385,0.008,-30.953,-5.820,-0.848
1747597807.89,-0.047,0.112,0.036,1.120,-0.321,-0.132,-29.654,-6.210,-0.701
1747597807.91,-0.083,-0.039,0.012,1.057,-0.186,-0.198,-28.392,-6.521,-0.684
1747597807.93,-0.121,-0.088,0.004,1.029,-0.059,-0.168,-27.185,-6.709,-0.564
1747597807.95,-0.115,0.049,0.065,1.040,-0.059,-0.145,-25.996,-6.801,-0.502
1747597807.97,-0.003,0.164,0.043,1.109,-0.117,-0.142,-24.757,-6.897,-0.396
1747597807.99,0.070,0.130,0.002,1.146,-0.189,-0.268,-23.447,-7.100,-0.362
1747597808.01,-0.006,0.009,0.018,1.092,-0.234,-0.332,-22.128,-7.424,-0.436
1747597808.03,-0.064,-0.108,-0.000,1.080,-0.124,-0.285,-20.850,-7.738,-0.543
1747597808.05,-0.037,-0.058,0.037,1.102,0.012,-0.371,-19.575,-7.831,-0.626
1747597808.07,0.019,0.088,0.045,1.160,-0.086,-0.389,-18.240,-7.947,-0.810
1747597808.09,0.005,0.117,0.041,1.248,-0.141,-0.498,-16.799,-8.202,-1.006
1747597808.11,0.043,0.045,0.018,1.239,-0.214,-0.540,-15.305,-8.500,-1.327
1747597808.13,-0.010,-0.140,-0.022,1.213,-0.175,-0.490,-13.833,-8.840,-1.604
1747597808.15,0.089,-0.138,-0.011,1.207,-0.065,-0.398,-12.408,-9.040,-1.772
1747597808.17,0.149,0.032,0.028,1.236,-0.108,-0.352,-10.971,-9.163,-1.910
1747597808.19,0.132,0.098,0.068,1.258,-0.160,-0.319,-9.484,-9.355,-1.952
1747597808.21,0.092,0.010,-0.009,1.219,-0.058,-0.417,-8.005,-9.523,-2.115
1747597808.23,-0.013,-0.142,-0.074,1.150,0.121,-0.353,-6.603,-9.532,-2.291
1747597808.25,-0.012,-0.016,-0.028,1.192,0.038,-0.288,-5.214,-9.449,-2.386
1747597808.27,0.017,0.141,-0.046,1.266,-0.090,-0.299,-3.787,-9.479,-2.431
1747597808.29,0.029,0.211,-0.005,1.393,-0.145,-0.393,-2.232,-9.646,-2.521
1747597808.31,-0.114,0.097,-0.056,1.306,-0.091,-0.445,-0.615,-9.777,-2.741
1747597808.33,-0.156,-0.024,-0.060,1.208,0.026,-0.487,0.906,-9.819,-2.996
1747597808.35,-0.153,0.043,-0.027,1.178,0.040,-0.600,2.354,-9.756,-3.376
1747597808.37,-0.038,0.051,0.014,1.116,0.044,-0.601,3.770,-9.683,-3.825
1747597808.39,0.014,0.065,0.051,1.151,-0.034,-0.604,5.161,-9.631,-4.296
1747597808.41,0.061,0.104,0.002,1.135,-0.070,-0.551,6.549,-9.637,-4.751
1747597808.43,0.056,0.016,-0.132,1.129,0.001,-0.499,7.942,-9.617,-5.170
1747597808.45,-0.015,-0.078,-0.057,1.118,0.041,-0.442,9.285,-9.547,-5.513
1747597808.47,0.022,-0.032,-0.023,1.058,0.048,-0.320,10.580,-9.453,-5.813
1747597808.49,0.019,0.032,0.013,1.035,-0.075,-0.394,11.838,-9.416,-6.110
1747597808.51,0.065,-0.016,-0.037,1.040,-0.048,-0.380,13.087,-9.460,-6.436
