Time,AccX,AccY,AccZ,GyroX,GyroY,GyroZ,Pitch,Roll,Yaw
1747597931.41,0.006,0.007,-0.007,0.009,0.109,-0.032,-86.992,-21.226,-17.797
1747597931.42,-0.006,-0.001,-0.008,0.011,0.142,-0.019,-86.967,-21.461,-18.176
1747597931.44,-0.017,-0.008,-0.003,-0.012,0.176,-0.003,-86.958,-21.360,-18.257
1747597931.46,0.002,-0.017,-0.010,-0.048,0.179,-0.003,-86.990,-21.504,-18.607
1747597931.48,0.019,0.005,-0.017,-0.031,0.164,-0.018,-87.030,-21.788,-19.085
1747597931.50,0.020,0.017,-0.019,-0.014,0.150,-0.023,-87.036,-22.182,-19.662
1747597931.52,0.016,-0.005,-0.015,-0.018,0.153,-0.019,-87.037,-22.675,-20.328
1747597931.54,0.021,-0.012,-0.016,-0.039,0.162,-0.006,-87.055,-22.930,-20.764
1747597931.56,0.023,0.003,-0.014,-0.032,0.136,-0.005,-87.091,-23.056,-21.065
1747597931.58,0.024,0.002,-0.017,-0.034,0.148,-0.012,-87.113,-23.095,-21.266
1747597931.60,0.015,-0.009,-0.013,-0.018,0.126,-0.020,-87.130,-23.349,-21.682
1747597931.62,0.003,0.002,-0.027,-0.010,0.107,-0.032,-87.130,-23.655,-22.113
1747597931.64,0.005,0.005,-0.009,-0.006,0.110,-0.035,-87.123,-24.042,-22.629
1747597931.66,-0.000,-0.005,-0.018,0.015,0.094,-0.038,-87.093,-24.380,-23.088
1747597931.68,0.009,0.014,-0.034,0.022,0.056,-0.054,-87.056,-24.799,-23.594
1747597931.70,-0.001,0.051,-0.047,0.049,-0.011,-0.112,-86.978,-25.795,-24.623
1747597931.72,-0.040,0.142,-0.083,0.127,-0.089,-0.218,-86.805,-28.242,-27.021
1747597931.74,-0.060,0.109,-0.136,0.251,-0.180,-0.192,-86.498,-30.206,-28.831
1747597931.76,-0.084,0.050,-0.187,0.419,-0.314,-0.172,-86.076,-30.227,-28.586
1747597931.78,-0.061,0.075,-0.217,0.635,-0.617,-0.189,-85.441,-29.171,-26.997
1747597931.80,0.048,0.024,-0.198,0.686,-0.713,-0.143,-84.670,-27.617,-24.648
1747597931.82,0.122,-0.062,-0.099,0.533,-0.592,-0.168,-83.968,-26.636,-22.901
1747597931.84,0.071,-0.080,-0.025,0.524,-0.436,-0.286,-83.329,-26.933,-22.607
1747597931.86,0.014,-0.109,0.041,0.498,-0.233,-0.247,-82.651,-27.494,-22.785
1747597931.88,-0.061,-0.120,0.136,0.228,-0.380,-0.132,-82.174,-27.597,-22.588
1747597931.90,-0.231,-0.034,0.152,-0.049,-0.588,-0.164,-82.039,-29.068,-23.481
1747597931.92,-0.197,-0.124,0.187,-0.236,-0.269,-0.183,-82.048,-31.310,-25.193
1747597931.94,-0.080,-0.174,0.323,-0.586,0.394,-0.126,-82.360,-34.283,-28.277
1747597931.96,-0.048,-0.089,0.247,-0.657,0.501,-0.117,-82.878,-37.896,-32.499
1747597931.98,-0.102,-0.079,0.172,-0.676,0.257,-0.050,-83.384,-42.133,-37.210
1747597932.00,-0.072,-0.140,0.202,-0.799,0.123,0.043,-83.987,-47.342,-42.636
1747597932.02,0.039,-0.110,0.173,-0.823,0.250,0.109,-84.641,-53.735,-49.273
1747597932.04,0.101,-0.065,0.153,-0.884,0.301,0.111,-85.272,-62.101,-58.003
1747597932.06,0.026,0.095,0.007,-0.539,0.214,0.209,-85.765,-70.948,-67.190
1747597932.08,0.021,0.280,-0.276,-0.334,-0.047,0.378,-86.226,-75.647,-71.985
1747597932.10,0.074,0.296,-0.405,-0.384,0.086,0.252,-86.688,-80.979,-77.313
1747597932.12,-0.028,-0.027,-0.215,-0.190,0.235,0.110,-86.921,-86.410,-82.961
1747597932.14,-0.140,-0.087,-0.046,-0.038,0.014,-0.005,-86.983,-88.447,-85.170
1747597932.16,-0.084,-0.028,-0.052,-0.068,0.029,0.114,-87.026,-89.049,-85.743
1747597932.18,0.099,0.006,-0.024,-0.212,0.259,0.241,-87.256,-92.483,-89.375
1747597932.20,0.166,0.058,-0.016,-0.131,0.064,0.116,-87.453,-97.338,-94.447
1747597932.22,0.229,0.079,-0.076,-0.011,-0.417,0.012,-87.507,-99.593,-96.503
1747597932.24,0.182,0.029,-0.044,-0.026,-0.654,0.012,-87.510,-100.324,-96.592
1747597932.26,0.069,-0.017,0.014,-0.082,-0.624,0.049,-87.528,-102.730,-98.247
1747597932.28,0.021,-0.008,0.054,-0.068,-0.505,0.066,-87.577,-105.696,-100.565
1747597932.30,-0.050,0.046,0.045,-0.027,-0.286,0.076,-87.633,-107.923,-102.333
1747597932.32,-0.079,0.016,0.053,-0.072,0.039,0.117,-87.727,-110.152,-104.425
1747597932.34,-0.064,-0.042,0.076,-0.166,0.259,0.136,-87.804,-114.769,-109.237
1747597932.36,0.035,-0.013,0.055,-0.184,0.334,0.107,-87.833,-120.823,-115.632
1747597932.38,0.105,0.023,0.031,-0.168,0.304,0.082,-87.805,-126.698,-121.881
1747597932.40,0.096,-0.002,-0.009,-0.165,0.292,0.082,-87.760,-131.657,-127.180
1747597932.42,0.072,-0.006,-0.034,-0.119,0.307,0.060,-87.706,-135.864,-131.731
1747597932.44,0.029,-0.014,-0.064,-0.048,0.370,0.025,-87.668,-137.976,-134.228
1747597932.46,0.030,0.013,-0.075,0.015,0.411,0.006,-87.668,-138.092,-134.798
1747597932.48,0.073,0.007,-0.076,-0.015,0.418,-0.011,-87.676,-137.396,-134.576
1747597932.50,0.146,-0.009,-0.055,-0.040,0.373,-0.052,-87.623,-136.948,-134.581
1747597932.52,0.148,0.027,-0.008,-0.023,0.369,-0.084,-87.544,-135.713,-133.760
1747597932.54,0.099,0.068,0.038,0.002,0.423,-0.109,-87.451,-133.669,-132.173
1747597932.56,0.046,-0.002,0.073,-0.012,0.406,-0.095,-87.366,-131.397,-130.378
1747597932.58,-0.013,-0.045,0.085,-0.082,0.317,-0.141,-87.233,-130.101,-129.481
1747597932.60,0.057,-0.036,0.075,-0.103,0.280,-0.180,-87.021,-129.113,-128.846
1747597932.62,0.150,0.023,0.049,-0.059,0.112,-0.244,-86.771,-127.613,-127.572
1747597932.64,0.203,0.027,-0.027,0.080,-0.078,-0.305,-86.522,-124.380,-124.355
1747597932.66,0.147,0.005,-0.105,0.290,-0.383,-0.436,-86.271,-118.405,-118.113
1747597932.68,0.074,0.075,-0.161,0.638,-0.599,-0.588,-85.934,-108.523,-107.618
1747597932.70,0.041,0.156,-0.164,0.874,-0.581,-0.612,-85.440,-95.756,-94.132
1747597932.72,-0.048,0.234,-0.192,1.023,-0.574,-0.661,-84.702,-83.873,-81.559
1747597932.74,-0.135,0.123,-0.254,1.073,-0.754,-0.417,-83.832,-73.897,-70.764
1747597932.76,-0.294,-0.114,-0.110,0.957,-0.352,-0.306,-83.084,-66.219,-62.336
1747597932.78,-0.414,-0.112,0.128,1.128,0.162,-0.470,-82.157,-59.823,-55.796
1747597932.80,-0.296,-0.104,0.289,0.962,0.618,-0.377,-81.039,-54.152,-50.515
1747597932.82,-0.069,-0.097,0.401,0.379,0.970,-0.110,-80.353,-50.591,-47.847
1747597932.84,0.073,-0.043,0.334,0.320,0.990,0.136,-80.157,-47.926,-46.308
1747597932.85,0.051,-0.025,0.241,0.522,1.097,0.274,-79.947,-43.616,-43.204
1747597932.87,-0.097,-0.147,0.320,-0.121,0.859,0.385,-80.002,-39.822,-40.583
1747597932.89,-0.164,-0.298,0.247,-0.694,0.690,0.435,-80.695,-38.701,-40.370
1747597932.91,0.058,-0.344,0.197,-0.932,0.681,0.432,-81.748,-39.260,-41.821
1747597932.93,0.280,-0.200,0.075,-0.756,0.184,0.411,-82.833,-40.760,-43.922
1747597932.95,0.299,0.179,-0.090,-0.502,-0.336,0.194,-83.602,-42.464,-45.617
1747597932.97,0.068,0.477,-0.295,-0.226,-0.793,-0.119,-83.936,-45.660,-48.260
1747597932.99,-0.128,0.298,-0.511,0.043,-1.217,-0.175,-83.854,-48.697,-50.215
1747597933.01,-0.142,0.023,-0.430,0.165,-1.235,-0.072,-83.657,-50.001,-50.147
1747597933.03,-0.154,-0.048,-0.218,0.154,-0.633,0.002,-83.503,-50.120,-49.192
1747597933.05,-0.136,-0.167,-0.013,0.093,0.177,0.347,-83.529,-48.409,-47.279
1747597933.07,0.073,-0.252,0.048,0.098,0.370,0.637,-83.908,-43.534,-42.810
1747597933.09,0.102,0.002,-0.179,0.331,-0.250,0.312,-84.104,-37.776,-37.172
1747597933.11,0.032,0.242,-0.233,0.450,-0.508,-0.059,-83.798,-34.734,-33.641
1747597933.13,-0.015,0.116,0.009,0.398,-0.267,-0.115,-83.320,-33.689,-32.164
1747597933.15,0.029,-0.048,0.145,0.351,0.056,0.069,-82.946,-32.134,-30.543
1747597933.17,0.076,-0.051,0.170,0.232,-0.034,0.265,-82.742,-29.301,-27.752
1747597933.19,0.087,-0.059,0.208,0.070,-0.197,0.294,-82.769,-26.487,-24.808
1747597933.21,0.063,0.009,0.109,0.037,-0.359,0.179,-82.833,-24.717,-22.710
1747597933.23,0.037,0.123,0.116,0.175,-0.372,0.047,-82.791,-23.769,-21.346
1747597933.25,-0.123,0.127,0.086,0.303,-0.316,-0.119,-82.518,-23.667,-20.825
1747597933.27,-0.265,0.001,0.121,0.350,0.010,-0.152,-82.093,-23.846,-20.819
1747597933.29,-0.264,-0.057,0.117,0.253,0.266,0.007,-81.739,-23.305,-20.472
1747597933.31,-0.095,-0.043,0.065,0.214,0.432,0.177,-81.546,-21.544,-19.084
1747597933.33,0.144,0.005,0.037,0.332,0.497,0.195,-81.345,-18.883,-16.972
1747597933.35,0.153,0.050,-0.030,0.529,0.403,0.049,-80.924,-16.515,-15.117
1747597933.37,0.022,0.074,-0.040,0.670,0.432,-0.089,-80.243,-15.080,-14.163
1747597933.39,-0.065,0.016,0.050,0.664,0.481,-0.098,-79.469,-14.095,-13.728
1747597933.41,-0.026,-0.071,0.056,0.618,0.431,-0.039,-78.735,-13.085,-13.282
1747597933.43,0.100,-0.048,0.071,0.590,0.303,-0.018,-78.071,-12.036,-12.699
1747597933.45,0.148,0.044,-0.028,0.750,-0.025,-0.055,-77.321,-11.386,-12.226
1747597933.47,0.132,0.024,0.010,0.904,-0.091,-0.093,-76.379,-11.033,-11.826
1747597933.49,0.033,-0.046,-0.050,0.938,-0.006,-0.112,-75.302,-10.735,-11.506
1747597933.51,-0.088,-0.036,-0.107,0.982,0.218,-0.109,-74.209,-10.383,-11.274
1747597933.53,-0.110,-0.040,0.009,1.023,0.317,-0.057,-73.065,-9.678,-10.944
1747597933.55,-0.065,-0.087,-0.062,1.102,0.205,0.059,-71.863,-8.789,-10.362
1747597933.57,0.064,-0.047,-0.077,1.200,0.324,0.105,-70.584,-7.631,-9.483
1747597933.59,0.075,0.009,0.010,1.211,0.321,-0.090,-69.226,-6.709,-8.968
1747597933.61,0.034,-0.044,0.069,1.183,0.286,-0.020,-67.832,-6.249,-8.885
1747597933.63,0.042,-0.085,-0.048,1.021,0.119,0.136,-66.596,-5.521,-8.367
1747597933.65,0.108,-0.038,0.015,1.099,0.093,0.118,-65.438,-4.753,-7.683
1747597933.67,0.140,0.070,0.010,1.179,-0.063,-0.132,-64.106,-4.513,-7.491
1747597933.69,0.011,0.048,0.065,1.289,-0.054,-0.193,-62.683,-4.813,-7.758
1747597933.71,-0.058,-0.030,0.047,1.087,0.109,0.050,-61.312,-4.687,-7.696
1747597933.73,-0.014,-0.039,0.094,1.008,0.126,0.225,-60.148,-4.100,-7.174
1747597933.75,0.105,0.018,0.008,1.033,0.030,0.129,-58.998,-3.464,-6.528
1747597933.77,0.057,0.043,-0.029,1.144,-0.074,-0.135,-57.769,-3.433,-6.397
1747597933.79,-0.103,0.040,0.089,1.154,0.048,-0.170,-56.441,-3.604,-6.570
1747597933.81,-0.192,0.004,0.015,1.068,0.091,-0.012,-55.169,-3.600,-6.620
1747597933.83,0.031,-0.072,0.027,1.014,0.244,0.146,-53.979,-3.137,-6.300
1747597933.85,0.116,0.020,0.004,0.956,-0.004,0.074,-52.875,-2.711,-5.962
1747597933.87,0.066,0.063,0.005,0.941,-0.198,0.092,-51.800,-2.680,-5.686
1747597933.89,0.009,0.035,0.001,0.917,-0.129,0.050,-50.751,-2.683,-5.409
1747597933.91,-0.118,0.008,-0.029,0.950,-0.147,-0.053,-49.695,-2.786,-5.277
1747597933.93,-0.117,-0.024,-0.011,1.071,-0.039,-0.089,-48.540,-2.955,-5.268
1747597933.95,-0.023,-0.078,-0.005,1.063,0.064,-0.165,-47.292,-3.033,-5.346
1747597933.97,0.104,-0.118,-0.003,1.050,0.176,-0.091,-46.081,-2.984,-5.368
1747597933.99,0.132,-0.060,0.029,1.037,0.024,0.012,-44.895,-2.831,-5.308
1747597934.01,0.068,-0.048,-0.059,1.032,-0.121,0.100,-43.704,-2.779,-5.028
1747597934.03,-0.002,0.010,-0.011,1.054,-0.143,-0.029,-42.525,-2.813,-4.816
1747597934.05,-0.028,0.042,0.048,1.076,-0.077,-0.165,-41.304,-2.991,-4.818
1747597934.07,-0.003,0.043,0.043,1.032,-0.089,-0.219,-40.079,-3.207,-4.950
1747597934.09,0.059,0.048,-0.019,0.930,-0.277,-0.023,-38.953,-3.518,-4.991
1747597934.11,0.132,0.093,0.014,0.962,-0.333,0.098,-37.889,-3.746,-4.718
1747597934.13,0.030,0.095,-0.000,1.016,-0.350,0.079,-36.762,-3.985,-4.363
1747597934.15,-0.020,0.013,-0.016,1.035,-0.336,-0.018,-35.595,-4.310,-4.097
1747597934.17,0.068,-0.067,0.053,1.059,-0.136,-0.188,-34.392,-4.587,-4.037
1747597934.19,0.018,-0.088,0.042,1.080,-0.234,-0.166,-33.154,-4.867,-4.070
1747597934.21,-0.056,-0.029,0.001,1.081,-0.186,-0.116,-31.912,-5.159,-3.995
1747597934.23,-0.192,0.014,-0.067,1.012,-0.116,-0.231,-30.693,-5.379,-3.972
1747597934.25,-0.218,-0.016,0.013,1.004,0.016,-0.300,-29.534,-5.539,-4.060
1747597934.27,-0.052,-0.014,0.055,1.011,0.023,-0.407,-28.350,-5.652,-4.258
1747597934.29,0.100,-0.023,0.002,1.060,-0.152,-0.408,-27.141,-5.905,-4.474
1747597934.31,0.174,0.041,-0.000,1.021,-0.198,-0.367,-25.911,-6.223,-4.713
1747597934.33,0.128,0.064,-0.003,1.080,-0.255,-0.103,-24.676,-6.590,-4.748
1747597934.35,0.160,0.053,0.010,1.034,-0.077,0.010,-23.468,-6.735,-4.495
1747597934.37,0.092,0.051,0.011,1.001,-0.024,0.153,-22.335,-6.693,-4.102
1747597934.39,0.056,0.055,0.046,1.000,-0.008,0.197,-21.225,-6.569,-3.566
1747597934.41,0.048,0.060,0.029,1.032,-0.066,0.156,-20.090,-6.482,-3.043
1747597934.43,0.049,-0.005,-0.009,1.060,-0.134,0.048,-18.922,-6.510,-2.621
1747597934.45,0.039,-0.047,0.046,1.119,-0.146,0.055,-17.680,-6.604,-2.246
1747597934.47,0.017,0.038,-0.022,1.116,-0.167,0.079,-16.417,-6.729,-1.827
1747597934.49,-0.100,0.095,-0.016,1.064,-0.090,0.014,-15.183,-6.828,-1.409
1747597934.51,-0.272,0.032,-0.019,1.029,-0.072,-0.056,-14.009,-6.881,-1.099
1747597934.53,-0.208,-0.050,0.055,1.081,0.020,-0.267,-12.789,-6.912,-0.909
1747597934.55,-0.096,0.072,0.072,1.202,-0.056,-0.480,-11.448,-6.983,-0.987
1747597934.57,-0.126,0.106,0.031,1.239,-0.080,-0.522,-9.980,-7.169,-1.231
1747597934.59,-0.099,-0.033,-0.032,1.169,0.168,-0.392,-8.538,-7.196,-1.416
1747597934.61,0.035,-0.117,-0.087,1.073,0.231,-0.234,-7.232,-6.949,-1.470
1747597934.63,0.174,-0.043,-0.049,1.066,0.089,-0.160,-6.005,-6.774,-1.376
1747597934.65,0.226,0.017,0.008,1.170,-0.043,-0.227,-4.718,-6.761,-1.268
1747597934.67,0.087,0.011,0.023,1.267,0.006,-0.137,-3.286,-6.817,-1.152
1747597934.69,-0.076,0.064,0.009,1.174,0.241,-0.055,-1.896,-6.670,-0.922
1747597934.71,-0.097,0.032,-0.025,1.119,0.380,-0.098,-0.588,-6.299,-0.692
1747597934.73,0.022,-0.091,-0.004,1.065,0.249,-0.152,0.668,-5.907,-0.525
1747597934.75,0.085,-0.035,-0.007,1.097,0.070,-0.201,1.911,-5.758,-0.432
1747597934.77,-0.031,0.126,-0.026,1.089,0.113,-0.306,3.181,-5.657,-0.416
1747597934.79,-0.182,0.121,-0.002,1.062,0.244,-0.356,4.438,-5.426,-0.523
1747597934.81,-0.183,0.034,-0.083,0.989,0.178,-0.326,5.645,-5.160,-0.493
1747597934.83,0.011,-0.011,-0.079,0.958,0.007,-0.360,6.785,-5.011,-0.625
1747597934.85,0.111,0.006,-0.060,0.964,-0.223,-0.375,7.923,-5.087,-0.826
1747597934.87,0.098,0.047,-0.094,0.987,-0.374,-0.357,9.062,-5.397,-1.007
1747597934.89,-0.003,0.102,-0.077,0.944,-0.278,-0.271,10.191,-5.741,-1.141
1747597934.91,-0.050,0.036,-0.095,0.867,-0.186,-0.200,11.255,-5.968,-1.169
1747597934.93,0.087,-0.047,-0.097,0.778,-0.319,-0.150,12.212,-6.216,-1.154
1747597934.95,0.121,-0.054,-0.102,0.700,-0.391,-0.102,13.062,-6.636,-1.072
1747597934.97,0.059,-0.006,-0.070,0.674,-0.266,-0.015,13.843,-7.043,-0.946
1747597934.99,-0.001,0.005,-0.056,0.593,-0.216,0.008,14.554,-7.329,-0.751
1747597935.01,-0.016,-0.003,-0.063,0.536,-0.155,-0.037,15.189,-7.568,-0.541
1747597935.03,0.018,-0.021,-0.083,0.449,-0.232,-0.074,15.755,-7.784,-0.384
1747597935.05,0.016,-0.031,-0.065,0.384,-0.307,-0.115,16.238,-8.072,-0.271
1747597935.07,0.001,-0.012,-0.049,0.377,-0.348,-0.188,16.687,-8.427,-0.214
1747597935.09,-0.036,0.016,-0.020,0.363,-0.293,-0.289,17.152,-8.748,-0.266
1747597935.11,-0.030,-0.027,0.018,0.340,-0.050,-0.288,17.577,-8.866,-0.422
1747597935.13,0.038,-0.031,-0.001,0.363,-0.023,-0.258,18.021,-8.781,-0.573
1747597935.15,0.081,0.030,-0.059,0.418,-0.147,-0.232,18.516,-8.829,-0.670
1747597935.17,0.039,0.020,-0.021,0.420,-0.114,-0.141,19.018,-8.941,-0.722
1747597935.19,-0.023,0.001,-0.013,0.341,-0.066,-0.073,19.469,-9.017,-0.685
1747597935.21,0.017,-0.031,-0.044,0.284,-0.013,-0.058,19.847,-9.034,-0.614
1747597935.23,0.040,-0.050,-0.096,0.209,0.023,0.035,20.131,-9.051,-0.481
1747597935.25,-0.003,-0.057,-0.158,0.072,0.035,0.069,20.273,-9.063,-0.304
1747597935.27,-0.077,-0.074,-0.125,-0.069,0.253,0.062,20.258,-8.938,-0.111
1747597935.29,-0.046,-0.086,-0.107,-0.225,0.420,0.090,20.083,-8.564,0.059
1747597935.31,0.029,-0.109,-0.143,-0.424,0.468,0.146,19.696,-8.089,0.259
1747597935.33,-0.004,-0.091,-0.171,-0.675,0.504,0.191,19.050,-7.565,0.483
1747597935.35,-0.038,-0.082,-0.218,-0.897,0.547,0.252,18.115,-7.026,0.718
1747597935.37,-0.043,-0.051,-0.177,-1.081,0.491,0.229,16.961,-6.447,0.984
1747597935.39,0.020,-0.054,-0.171,-1.237,0.342,0.257,15.615,-6.005,1.208
1747597935.41,-0.007,-0.084,-0.184,-1.353,0.226,0.356,14.101,-5.753,1.489
1747597935.43,-0.029,-0.076,-0.157,-1.454,0.176,0.446,12.457,-5.593,1.878
1747597935.45,-0.011,-0.087,-0.132,-1.520,0.167,0.442,10.723,-5.471,2.336
1747597935.47,-0.034,-0.090,-0.088,-1.599,0.175,0.458,8.899,-5.328,2.795
1747597935.49,-0.033,-0.066,-0.115,-1.691,0.087,0.494,6.971,-5.230,3.274
1747597935.51,0.029,-0.051,-0.084,-1.719,-0.001,0.442,4.975,-5.204,3.742
1747597935.53,0.028,-0.009,-0.036,-1.735,-0.202,0.344,2.973,-5.343,4.127
1747597935.55,-0.015,-0.035,0.032,-1.738,-0.261,0.330,0.966,-5.630,4.418
1747597935.57,-0.010,-0.058,-0.013,-1.729,-0.165,0.389,-1.049,-5.878,4.748
1747597935.59,0.008,-0.061,0.021,-1.712,-0.014,0.321,-3.039,-5.966,5.082
1747597935.61,0.002,-0.058,0.051,-1.710,-0.052,0.287,-5.012,-5.989,5.314
1747597935.63,-0.002,-0.066,-0.028,-1.730,-0.149,0.336,-7.008,-6.084,5.570
1747597935.65,0.021,-0.157,-0.009,-1.729,-0.086,0.310,-9.010,-6.199,5.861
1747597935.67,0.014,-0.207,0.035,-1.729,-0.108,0.168,-11.012,-6.293,6.028
1747597935.69,0.003,-0.202,0.058,-1.728,-0.120,0.165,-12.992,-6.429,6.095
1747597935.71,0.014,-0.125,0.074,-1.689,-0.157,0.251,-14.956,-6.608,6.237
1747597935.73,-0.008,-0.030,0.033,-1.679,-0.057,0.226,-16.900,-6.719,6.402
1747597935.75,0.001,-0.024,0.013,-1.693,0.048,0.182,-18.831,-6.704,6.524
1747597935.77,0.083,-0.083,-0.015,-1.731,0.026,0.268,-20.804,-6.663,6.644
1747597935.79,0.095,-0.105,0.034,-1.693,-0.043,0.342,-22.794,-6.619,6.881
1747597935.81,0.038,-0.070,0.041,-1.657,-0.037,0.326,-24.732,-6.629,7.171
1747597935.83,0.052,-0.029,0.030,-1.647,-0.059,0.295,-26.644,-6.563,7.407
1747597935.84,0.053,0.014,-0.019,-1.707,-0.041,0.371,-28.586,-6.582,7.651
1747597935.86,0.089,0.010,-0.022,-1.744,-0.079,0.498,-30.605,-6.473,8.043
1747597935.88,0.109,-0.002,-0.004,-1.750,-0.104,0.588,-32.645,-6.325,8.549
1747597935.90,0.070,-0.004,-0.028,-1.739,-0.373,0.516,-34.704,-6.308,9.059
1747597935.92,-0.044,-0.005,0.020,-1.746,-0.423,0.412,-36.742,-6.589,9.436
1747597935.94,-0.091,-0.011,0.066,-1.725,-0.176,0.333,-38.745,-6.798,9.670
1747597935.96,-0.115,-0.022,0.058,-1.748,-0.032,0.362,-40.775,-6.767,9.879
1747597935.98,-0.064,0.007,0.010,-1.727,-0.015,0.361,-42.804,-6.644,10.108
1747597936.00,0.045,0.001,-0.054,-1.696,0.030,0.338,-44.775,-6.477,10.338
1747597936.02,0.076,-0.043,-0.042,-1.698,0.066,0.206,-46.733,-6.300,10.485
1747597936.04,0.019,-0.088,0.037,-1.723,0.011,0.166,-48.705,-6.293,10.420
1747597936.06,-0.001,-0.111,0.106,-1.670,0.116,0.175,-50.663,-6.223,10.373
1747597936.08,0.025,-0.082,0.042,-1.646,0.137,0.215,-52.567,-6.056,10.346
1747597936.10,0.035,-0.037,-0.075,-1.689,-0.053,0.220,-54.479,-5.919,10.411
1747597936.12,0.068,0.018,-0.017,-1.726,-0.050,0.139,-56.450,-5.988,10.384
1747597936.14,0.090,0.055,0.025,-1.653,-0.044,0.084,-58.366,-6.194,10.135
1747597936.16,0.057,0.012,-0.001,-1.650,-0.077,0.167,-60.260,-6.380,9.930
1747597936.18,0.045,-0.060,-0.002,-1.637,-0.079,0.128,-62.155,-6.533,9.793
1747597936.20,-0.003,-0.059,0.052,-1.539,-0.011,-0.099,-63.967,-6.936,9.315
1747597936.22,-0.081,-0.061,0.014,-1.638,-0.124,-0.063,-65.724,-7.725,8.448
1747597936.24,-0.035,-0.064,0.023,-1.656,-0.117,0.049,-67.599,-8.514,7.645
1747597936.26,0.053,-0.030,-0.035,-1.549,-0.097,0.097,-69.439,-9.114,7.043
1747597936.28,0.038,-0.007,-0.042,-1.435,0.067,-0.078,-71.116,-9.819,6.223
1747597936.30,-0.046,0.007,-0.025,-1.401,0.248,-0.157,-72.676,-10.970,4.723
1747597936.32,-0.119,-0.048,0.042,-1.415,0.313,-0.123,-74.218,-12.292,2.891
1747597936.34,-0.012,-0.095,-0.009,-1.403,0.253,0.052,-75.781,-13.458,1.246
1747597936.36,0.125,-0.045,0.018,-1.412,0.177,0.048,-77.356,-14.483,-0.199
1747597936.38,0.102,0.030,-0.020,-1.320,-0.129,-0.103,-78.870,-16.611,-2.516
1747597936.40,0.022,0.019,-0.070,-1.116,-0.191,-0.065,-80.163,-19.665,-5.507
1747597936.42,-0.129,-0.007,-0.015,-1.009,0.072,-0.141,-81.246,-23.096,-9.025
1747597936.44,-0.163,-0.016,-0.005,-0.982,0.304,-0.073,-82.206,-27.001,-13.357
1747597936.46,-0.069,-0.001,0.050,-1.064,0.312,0.033,-83.216,-31.168,-18.096
1747597936.48,0.010,-0.022,0.142,-1.106,0.364,0.080,-84.287,-36.813,-24.317
1747597936.50,0.021,-0.074,0.123,-1.051,0.471,0.081,-85.283,-44.129,-32.278
1747597936.52,-0.006,-0.103,0.159,-1.189,0.405,0.127,-86.207,-55.855,-44.729
1747597936.54,-0.037,-0.054,0.039,-1.084,0.181,0.023,-86.871,-74.522,-63.968
1747597936.56,0.024,0.099,-0.054,-0.779,0.029,-0.209,-86.857,-94.333,-84.103
1747597936.58,0.045,0.138,-0.037,-0.557,-0.003,-0.230,-86.471,-106.034,-96.001
1747597936.60,-0.050,-0.020,0.028,-0.577,0.050,-0.202,-86.017,-113.607,-103.832
1747597936.62,-0.097,-0.145,0.013,-0.728,0.171,0.017,-85.555,-121.740,-112.269
1747597936.64,-0.026,-0.120,0.009,-0.654,0.488,0.090,-85.142,-129.822,-120.937
1747597936.66,0.019,0.006,0.023,-0.509,0.395,0.128,-84.768,-135.847,-127.686
1747597936.68,0.012,0.107,-0.081,-0.226,0.170,-0.084,-84.491,-138.773,-131.131
1747597936.70,0.029,0.044,-0.080,-0.086,-0.073,-0.132,-84.276,-138.764,-131.378
1747597936.72,0.104,-0.011,-0.103,0.076,-0.112,-0.054,-84.189,-138.142,-130.812
1747597936.74,0.097,0.072,-0.057,0.207,-0.244,0.003,-84.306,-136.979,-129.637
1747597936.76,-0.009,0.023,0.027,0.134,-0.334,0.013,-84.467,-135.863,-128.349
1747597936.78,-0.052,-0.077,0.030,-0.036,-0.278,-0.005,-84.503,-135.994,-128.277
1747597936.80,-0.001,-0.036,0.001,-0.005,-0.022,0.013,-84.477,-136.406,-128.674
1747597936.82,0.019,0.012,0.045,0.024,-0.010,0.011,-84.497,-136.468,-128.890
1747597936.84,0.001,0.005,0.030,0.001,-0.050,-0.017,-84.515,-136.345,-128.883
1747597936.86,0.016,0.019,0.013,-0.019,0.046,-0.050,-84.466,-136.131,-128.815
1747597936.88,-0.023,0.047,0.007,-0.045,0.010,-0.028,-84.411,-135.988,-128.865
1747597936.90,-0.077,-0.016,0.022,-0.078,-0.090,-0.037,-84.332,-136.379,-129.357
1747597936.92,-0.010,-0.056,0.051,-0.054,-0.194,-0.039,-84.236,-136.826,-129.781
1747597936.94,0.050,-0.024,0.055,0.081,-0.250,-0.045,-84.205,-136.770,-129.588
1747597936.96,0.018,0.012,0.008,0.170,-0.302,-0.026,-84.291,-135.667,-128.435
1747597936.98,-0.002,0.014,0.011,0.142,-0.313,-0.022,-84.383,-134.525,-127.049
1747597937.00,0.023,0.018,0.004,0.171,-0.197,-0.016,-84.471,-133.315,-125.656
1747597937.02,0.018,-0.005,0.089,0.156,-0.211,0.023,-84.605,-132.382,-124.602
1747597937.04,-0.065,-0.029,0.065,0.187,-0.311,-0.012,-84.737,-131.301,-123.325
1747597937.06,-0.057,-0.017,0.014,0.218,-0.261,-0.019,-84.875,-129.498,-121.288
1747597937.08,-0.025,-0.006,0.001,0.273,-0.188,-0.054,-85.011,-127.115,-118.725
1747597937.10,0.003,0.036,-0.008,0.387,-0.196,-0.047,-85.172,-123.295,-114.782
1747597937.12,0.002,0.040,0.012,0.467,-0.243,0.015,-85.409,-118.300,-109.591
1747597937.14,-0.001,-0.039,0.045,0.501,-0.087,0.008,-85.664,-112.171,-103.357
1747597937.16,0.000,-0.045,0.006,0.666,-0.038,-0.028,-85.856,-103.884,-95.061
1747597937.18,-0.003,0.035,-0.032,0.881,0.079,-0.015,-85.941,-91.402,-82.639
1747597937.20,-0.011,0.066,0.088,0.862,-0.203,0.051,-85.875,-77.327,-68.599
1747597937.22,-0.123,-0.009,0.050,0.798,-0.125,0.052,-85.608,-65.193,-56.229
1747597937.24,-0.005,-0.111,0.166,0.653,0.319,0.135,-85.297,-55.369,-46.620
1747597937.26,0.039,-0.016,0.037,0.818,0.183,0.098,-84.902,-46.717,-38.323
1747597937.28,0.119,0.101,0.033,0.983,0.092,0.027,-84.173,-38.479,-30.303
1747597937.30,0.065,0.074,0.081,1.007,-0.045,-0.036,-83.221,-32.550,-24.388
1747597937.32,-0.022,-0.073,0.133,1.008,-0.093,-0.053,-82.221,-28.455,-20.275
1747597937.34,-0.099,-0.046,0.099,0.971,-0.029,-0.037,-81.173,-25.335,-17.101
1747597937.36,-0.088,0.032,0.104,0.925,0.099,-0.004,-80.183,-22.738,-14.595
1747597937.38,-0.007,0.063,0.040,0.935,0.062,-0.029,-79.201,-20.591,-12.564
1747597937.40,0.057,-0.016,0.021,1.020,0.131,-0.022,-78.145,-18.775,-10.900
1747597937.42,0.049,-0.079,-0.050,1.097,0.025,0.046,-76.982,-16.935,-9.190
1747597937.44,0.035,-0.033,-0.086,1.070,0.189,0.102,-75.821,-15.067,-7.428
1747597937.46,0.023,-0.010,-0.034,1.041,0.372,0.109,-74.669,-13.157,-5.870
1747597937.48,0.039,-0.046,-0.016,1.006,0.417,0.090,-73.574,-11.458,-4.609
1747597937.50,0.053,-0.091,-0.082,1.125,0.243,0.069,-72.380,-10.009,-3.549
1747597937.52,-0.008,-0.040,-0.109,1.158,0.129,0.048,-71.111,-8.968,-2.687
1747597937.54,-0.100,0.021,-0.051,1.107,0.179,0.001,-69.831,-8.156,-2.044
1747597937.56,-0.084,-0.028,-0.011,1.076,0.277,0.069,-68.588,-7.408,-1.511
1747597937.58,0.086,-0.056,0.041,1.074,0.548,0.139,-67.392,-6.270,-0.799
1747597937.60,0.094,-0.022,-0.019,1.061,0.229,0.033,-66.190,-5.235,-0.244
1747597937.62,0.047,-0.023,-0.053,1.078,0.035,-0.029,-64.986,-4.888,0.001
1747597937.64,0.054,-0.009,0.017,0.985,0.024,-0.137,-63.772,-4.834,0.018
1747597937.66,-0.025,0.032,0.087,0.971,0.099,-0.119,-62.655,-4.950,-0.174
1747597937.68,-0.083,0.057,0.108,0.829,0.081,0.065,-61.626,-4.726,-0.055
1747597937.70,-0.041,0.095,0.072,0.754,0.067,0.201,-60.759,-4.207,0.427
1747597937.72,0.026,0.111,0.044,1.001,-0.077,-0.095,-59.795,-3.905,0.769
1747597937.74,-0.127,0.023,-0.064,1.142,-0.113,-0.454,-58.499,-4.458,0.293
1747597937.76,-0.239,-0.101,-0.060,1.059,0.156,-0.455,-57.204,-5.143,-0.513
1747597937.78,-0.141,-0.174,-0.029,0.906,0.600,-0.244,-56.051,-5.174,-1.046
1747597937.80,0.041,-0.168,0.001,0.951,0.543,-0.058,-54.992,-4.587,-1.164
1747597937.82,0.199,-0.089,-0.059,1.037,0.386,0.059,-53.851,-3.942,-1.000
1747597937.84,0.234,-0.010,-0.017,1.011,0.241,0.007,-52.686,-3.391,-0.769
1747597937.86,0.171,0.028,-0.014,0.947,0.022,-0.034,-51.571,-3.183,-0.716
1747597937.88,0.144,-0.032,-0.018,0.971,-0.187,-0.043,-50.482,-3.287,-0.679
1747597937.90,0.157,0.006,0.019,0.962,-0.241,-0.065,-49.372,-3.501,-0.651
1747597937.92,-0.011,0.019,-0.003,1.023,-0.326,-0.038,-48.238,-3.841,-0.614
1747597937.94,-0.139,0.002,0.031,1.070,-0.173,-0.054,-47.037,-4.097,-0.522
1747597937.96,-0.168,0.050,0.022,0.970,0.029,-0.141,-45.841,-4.209,-0.525
1747597937.98,-0.084,0.057,0.016,0.856,0.129,-0.104,-44.802,-4.175,-0.580
1747597938.00,0.039,0.045,0.006,0.842,-0.031,-0.031,-43.829,-4.118,-0.549
1747597938.02,0.140,0.071,-0.002,0.873,-0.091,-0.072,-42.853,-4.145,-0.432
1747597938.04,0.114,0.141,0.004,0.922,-0.318,-0.069,-41.823,-4.407,-0.385
1747597938.06,0.048,0.062,0.040,0.938,-0.294,-0.046,-40.749,-4.746,-0.253
1747597938.08,-0.069,-0.066,-0.025,0.914,-0.302,-0.077,-39.684,-5.078,-0.149
1747597938.10,-0.098,-0.153,-0.015,0.867,-0.107,-0.046,-38.669,-5.319,-0.014
1747597938.12,-0.012,-0.076,0.060,0.834,0.096,-0.089,-37.704,-5.284,0.094
1747597938.14,0.034,-0.007,0.023,0.894,-0.076,-0.039,-36.724,-5.245,0.200
1747597938.16,0.102,-0.001,-0.001,0.964,-0.179,0.025,-35.668,-5.340,0.423
1747597938.18,0.140,-0.012,-0.027,1.003,-0.161,-0.041,-34.552,-5.455,0.667
1747597938.20,0.045,-0.057,-0.026,1.008,-0.171,-0.029,-33.394,-5.604,0.858
1747597938.22,-0.016,-0.048,0.003,0.970,-0.119,-0.045,-32.268,-5.715,1.064
1747597938.24,0.005,0.050,0.052,0.955,-0.239,0.002,-31.175,-5.855,1.291
1747597938.26,0.101,0.107,0.043,1.003,-0.417,0.076,-30.079,-6.125,1.641
1747597938.28,0.132,0.111,0.008,1.060,-0.401,0.085,-28.911,-6.485,2.070
1747597938.30,0.028,0.047,-0.022,0.978,-0.295,0.092,-27.770,-6.768,2.478
1747597938.32,-0.007,-0.051,-0.008,0.989,-0.132,0.136,-26.668,-6.900,2.942
1747597938.34,-0.006,-0.034,0.024,0.948,-0.102,0.100,-25.601,-6.885,3.430
1747597938.36,-0.056,0.001,0.027,0.981,-0.088,-0.006,-24.520,-6.898,3.821
1747597938.38,-0.125,0.039,0.018,0.972,-0.092,-0.129,-23.388,-6.980,4.071
1747597938.40,-0.088,0.051,0.006,0.984,-0.092,-0.216,-22.258,-7.107,4.172
1747597938.42,0.028,0.057,-0.028,0.894,-0.172,-0.180,-21.161,-7.292,4.275
1747597938.44,0.053,0.042,-0.064,0.877,-0.089,-0.135,-20.151,-7.471,4.404
1747597938.46,-0.064,0.052,-0.003,0.960,0.071,-0.144,-19.087,-7.499,4.586
1747597938.48,-0.090,0.051,0.062,0.998,0.113,-0.183,-17.954,-7.390,4.696
1747597938.50,-0.035,0.073,-0.001,0.980,0.050,-0.301,-16.795,-7.327,4.737
1747597938.52,-0.017,-0.001,-0.053,0.922,0.012,-0.404,-15.669,-7.379,4.609
1747597938.54,-0.006,-0.047,-0.005,0.895,0.030,-0.348,-14.586,-7.430,4.452
1747597938.56,0.069,0.094,0.028,0.872,0.008,-0.296,-13.536,-7.450,4.408
1747597938.58,0.027,0.130,0.009,0.893,-0.027,-0.289,-12.497,-7.537,4.383
1747597938.60,-0.046,0.055,0.043,0.923,0.149,-0.360,-11.419,-7.509,4.325
1747597938.62,-0.086,-0.040,-0.002,0.897,0.183,-0.377,-10.329,-7.362,4.186
1747597938.64,-0.026,-0.046,-0.010,0.888,0.080,-0.293,-9.271,-7.250,4.094
1747597938.66,0.110,-0.014,0.010,0.931,0.001,-0.390,-8.178,-7.249,3.984
1747597938.68,0.102,0.013,0.014,0.968,-0.101,-0.399,-7.058,-7.354,3.798
1747597938.70,-0.002,-0.022,0.006,0.993,-0.022,-0.361,-5.891,-7.481,3.648
1747597938.72,-0.012,-0.004,0.067,1.030,0.229,-0.433,-4.689,-7.393,3.472
1747597938.74,-0.053,0.006,0.041,1.090,0.269,-0.366,-3.411,-7.109,3.277
1747597938.76,-0.080,0.005,-0.000,1.086,0.200,-0.390,-2.145,-6.848,3.185
1747597938.78,0.031,-0.013,-0.030,1.065,0.019,-0.465,-0.868,-6.723,2.966
1747597938.80,0.140,-0.015,-0.042,1.067,-0.215,-0.429,0.418,-6.825,2.664
1747597938.82,0.147,-0.049,-0.069,1.085,-0.236,-0.203,1.681,-7.098,2.553
1747597938.84,-0.009,-0.064,-0.017,1.102,0.013,-0.055,2.940,-7.246,2.655
1747597938.86,-0.019,0.018,0.053,1.081,0.094,0.034,4.177,-7.161,2.877
1747597938.88,0.104,0.055,-0.007,1.090,-0.098,0.042,5.397,-7.171,3.201
1747597938.90,0.114,-0.008,-0.132,1.050,-0.279,0.051,6.617,-7.429,3.502
1747597938.91,-0.091,-0.073,-0.087,0.954,-0.197,0.149,7.738,-7.751,3.834
1747597938.93,-0.161,-0.027,-0.036,0.890,-0.076,0.070,8.778,-7.919,4.174
1747597938.95,-0.102,0.160,0.050,0.866,-0.021,-0.167,9.755,-7.975,4.421
1747597938.97,0.011,0.153,-0.087,0.867,-0.293,-0.225,10.758,-8.139,4.453
1747597938.99,-0.049,0.074,-0.173,0.847,-0.452,-0.239,11.756,-8.559,4.458
1747597939.01,-0.081,0.049,-0.104,0.811,-0.389,-0.218,12.751,-9.019,4.483
1747597939.03,-0.037,0.078,-0.054,0.743,-0.398,-0.361,13.691,-9.417,4.388
1747597939.05,0.012,0.037,-0.024,0.711,-0.372,-0.449,14.584,-9.773,4.351
1747597939.07,0.013,0.006,-0.053,0.664,-0.365,-0.440,15.449,-10.097,4.114
1747597939.09,-0.003,-0.026,-0.056,0.590,-0.313,-0.353,16.238,-10.392,3.901
1747597939.11,0.032,-0.070,-0.074,0.510,-0.250,-0.270,16.917,-10.659,3.792
1747597939.13,0.082,-0.068,-0.036,0.429,-0.168,-0.178,17.486,-10.849,3.753
1747597939.15,0.086,-0.076,0.000,0.385,-0.010,-0.086,17.969,-10.930,3.813
1747597939.17,0.037,-0.017,-0.060,0.373,0.005,0.007,18.396,-10.935,3.979
1747597939.19,0.020,-0.021,-0.074,0.382,0.061,0.008,18.842,-10.922,4.198
1747597939.21,0.020,-0.031,-0.044,0.339,0.148,-0.025,19.255,-10.827,4.391
1747597939.23,0.010,-0.031,-0.047,0.287,0.197,-0.003,19.601,-10.637,4.588
1747597939.25,0.003,-0.016,-0.065,0.233,0.103,0.007,19.890,-10.489,4.803
1747597939.27,-0.006,0.026,-0.044,0.212,0.086,-0.031,20.144,-10.401,4.996
1747597939.29,-0.016,0.010,-0.030,0.176,0.093,-0.063,20.375,-10.283,5.127
1747597939.31,-0.009,-0.012,-0.072,0.140,0.026,-0.049,20.560,-10.205,5.234
1747597939.33,0.016,0.005,-0.049,0.110,-0.001,-0.052,20.709,-10.180,5.322
1747597939.35,0.014,0.006,-0.043,0.080,0.019,-0.046,20.827,-10.148,5.398
1747597939.37,0.008,-0.003,-0.059,0.075,-0.029,-0.017,20.909,-10.157,5.480
1747597939.39,0.021,-0.007,-0.055,0.061,0.002,0.006,20.988,-10.177,5.584
1747597939.41,0.013,-0.026,-0.048,0.054,-0.016,0.041,21.043,-10.190,5.725
1747597939.43,0.035,-0.007,-0.036,0.044,-0.087,0.016,21.090,-10.270,5.861
1747597939.45,0.019,-0.005,0.007,0.031,-0.051,-0.012,21.137,-10.357,5.940
1747597939.47,0.000,0.021,0.034,0.058,0.076,-0.006,21.179,-10.338,5.990
1747597939.49,0.008,0.026,0.024,0.120,0.091,-0.035,21.279,-10.230,6.021
1747597939.51,0.021,0.018,-0.004,0.144,-0.047,-0.047,21.439,-10.182,6.060
1747597939.53,-0.006,-0.011,-0.002,0.107,-0.005,-0.061,21.600,-10.198,6.076
1747597939.55,-0.024,-0.047,-0.042,0.032,0.201,-0.066,21.680,-10.084,6.063
1747597939.57,0.004,-0.025,-0.101,-0.122,0.262,-0.088,21.657,-9.741,6.000
1747597939.59,-0.035,-0.069,-0.174,-0.271,0.340,-0.004,21.447,-9.406,5.945
1747597939.61,-0.042,-0.109,-0.165,-0.512,0.431,0.079,21.003,-8.945,5.980
1747597939.63,0.002,-0.183,-0.160,-0.719,0.632,0.132,20.291,-8.354,6.042
1747597939.65,0.024,-0.151,-0.195,-0.936,0.611,0.181,19.328,-7.660,6.123
1747597939.67,-0.020,-0.089,-0.182,-1.160,0.561,0.296,18.111,-7.015,6.255
1747597939.69,-0.004,-0.067,-0.218,-1.353,0.494,0.416,16.632,-6.489,6.537
1747597939.71,0.030,-0.058,-0.184,-1.446,0.356,0.472,14.977,-6.093,6.890
1747597939.73,0.015,-0.049,-0.148,-1.496,0.171,0.372,13.260,-5.868,7.203
1747597939.75,-0.031,-0.039,-0.106,-1.571,0.004,0.339,11.470,-5.823,7.454
1747597939.77,-0.057,-0.041,-0.069,-1.617,-0.117,0.359,9.622,-5.930,7.690
1747597939.79,-0.001,-0.030,-0.089,-1.680,-0.157,0.413,7.705,-6.137,7.973
1747597939.81,-0.024,-0.057,-0.053,-1.702,-0.133,0.341,5.728,-6.336,8.241
1747597939.83,-0.070,-0.069,-0.018,-1.726,-0.159,0.318,3.748,-6.496,8.431
1747597939.85,0.005,-0.060,-0.016,-1.753,-0.184,0.355,1.737,-6.712,8.637
1747597939.87,0.103,-0.060,-0.001,-1.791,-0.231,0.365,-0.332,-6.941,8.857
1747597939.89,0.059,-0.083,0.042,-1.727,-0.149,0.393,-2.370,-7.169,9.070
1747597939.91,0.016,-0.074,-0.023,-1.753,-0.153,0.369,-4.406,-7.333,9.298
1747597939.93,0.031,-0.089,0.012,-1.788,-0.152,0.379,-6.465,-7.471,9.518
1747597939.95,-0.005,-0.089,0.022,-1.754,-0.220,0.469,-8.543,-7.668,9.789
1747597939.97,-0.013,-0.068,0.054,-1.675,-0.114,0.387,-10.542,-7.829,10.085
1747597939.99,-0.030,-0.032,0.045,-1.666,-0.118,0.207,-12.472,-7.928,10.235
1747597940.01,-0.040,-0.035,0.003,-1.664,-0.265,0.314,-14.401,-8.161,10.299
1747597940.03,0.045,-0.054,0.003,-1.672,-0.168,0.459,-16.356,-8.367,10.557
1747597940.05,0.033,-0.069,0.074,-1.618,-0.074,0.429,-18.285,-8.439,10.845
1747597940.07,0.009,-0.081,0.044,-1.607,-0.066,0.396,-20.176,-8.429,11.112
1747597940.09,0.038,-0.088,-0.028,-1.637,-0.102,0.419,-22.069,-8.448,11.362
1747597940.11,0.160,-0.110,-0.021,-1.587,-0.178,0.571,-23.973,-8.517,11.690
1747597940.13,0.196,-0.148,0.065,-1.518,-0.001,0.596,-25.829,-8.379,12.198
1747597940.15,-0.014,-0.103,0.025,-1.469,-0.013,0.460,-27.590,-8.249,12.602
1747597940.17,-0.087,-0.091,0.044,-1.536,0.144,0.431,-29.364,-8.015,12.920
1747597940.19,-0.122,-0.065,-0.019,-1.588,0.076,0.507,-31.201,-7.730,13.261
1747597940.21,-0.043,-0.014,0.013,-1.582,0.057,0.553,-33.086,-7.434,13.708
1747597940.23,0.056,0.057,0.048,-1.538,0.165,0.452,-34.924,-7.044,14.155
1747597940.25,0.031,0.059,-0.002,-1.571,0.060,0.388,-36.743,-6.718,14.475
1747597940.27,0.007,0.000,-0.023,-1.563,-0.061,0.347,-38.562,-6.574,14.696
1747597940.29,-0.052,-0.051,-0.022,-1.598,-0.059,0.389,-40.404,-6.463,14.979
1747597940.31,-0.102,-0.055,-0.014,-1.608,-0.020,0.267,-42.263,-6.378,15.200
1747597940.33,-0.092,-0.042,0.060,-1.571,0.119,0.242,-44.118,-6.237,15.313
1747597940.35,-0.098,-0.036,-0.003,-1.548,0.145,0.148,-45.890,-6.050,15.328
1747597940.37,-0.050,-0.072,-0.033,-1.592,0.164,0.152,-47.695,-5.935,15.222
1747597940.39,0.062,-0.067,-0.014,-1.584,0.234,0.232,-49.511,-5.652,15.232
1747597940.41,0.150,0.010,-0.009,-1.632,0.099,0.286,-51.367,-5.309,15.377
1747597940.43,0.162,0.040,0.093,-1.632,0.106,0.169,-53.262,-5.054,15.511
1747597940.45,0.059,0.039,0.070,-1.569,-0.132,0.104,-55.083,-5.064,15.419
1747597940.47,-0.064,0.018,-0.015,-1.615,-0.273,0.130,-56.919,-5.374,15.316
1747597940.49,-0.057,0.004,0.029,-1.533,-0.139,0.050,-58.718,-5.718,15.101
1747597940.51,-0.019,0.007,0.012,-1.560,-0.102,0.020,-60.475,-6.098,14.742
1747597940.53,0.029,-0.008,0.016,-1.528,-0.036,0.034,-62.238,-6.487,14.327
1747597940.55,0.087,-0.036,0.062,-1.562,0.071,0.102,-63.992,-6.764,13.897
1747597940.57,0.055,-0.063,0.047,-1.511,0.067,0.105,-65.755,-6.838,13.634
1747597940.59,-0.001,-0.046,0.028,-1.439,0.023,0.009,-67.445,-7.123,13.213
1747597940.61,-0.001,-0.024,0.057,-1.408,0.128,-0.074,-69.029,-7.739,12.326
1747597940.63,-0.031,-0.051,-0.025,-1.314,-0.164,0.000,-70.558,-8.435,11.507
1747597940.65,0.078,-0.072,-0.027,-1.323,-0.157,0.069,-72.064,-9.234,10.776
1747597940.67,0.109,-0.021,-0.033,-1.197,0.079,-0.033,-73.486,-9.931,9.961
1747597940.69,-0.043,0.056,0.030,-1.184,0.186,-0.180,-74.769,-11.179,8.326
1747597940.71,-0.131,-0.004,0.016,-1.230,0.169,0.017,-76.110,-12.407,6.689
1747597940.73,-0.093,-0.114,0.034,-1.145,0.285,0.097,-77.451,-13.198,5.478
1747597940.75,0.024,-0.085,0.034,-1.158,0.276,0.140,-78.734,-13.605,4.585
1747597940.77,0.060,0.019,0.079,-1.203,0.122,0.059,-80.099,-14.497,3.256
1747597940.79,0.073,0.082,-0.026,-1.075,-0.102,-0.108,-81.341,-16.817,0.725
1747597940.81,0.088,0.004,-0.035,-0.995,0.052,-0.095,-82.446,-20.314,-2.899
1747597940.83,0.010,-0.050,0.017,-0.863,0.026,-0.095,-83.362,-24.141,-7.022
1747597940.85,-0.189,-0.030,0.030,-0.935,-0.393,-0.136,-84.212,-29.791,-12.642
1747597940.87,-0.071,-0.070,-0.069,-0.902,-0.076,0.031,-85.072,-36.671,-19.421
1747597940.89,0.084,-0.030,-0.082,-0.716,0.120,0.051,-85.831,-43.682,-26.698
1747597940.91,-0.049,0.051,-0.157,-0.414,0.009,-0.098,-86.261,-50.649,-33.901
1747597940.93,-0.106,0.046,-0.158,-0.193,0.298,-0.143,-86.323,-56.024,-39.587
1747597940.95,-0.037,-0.009,-0.027,-0.153,0.587,0.006,-86.361,-58.887,-43.163
1747597940.97,0.005,-0.096,0.067,-0.347,0.568,0.074,-86.541,-61.182,-46.340
1747597940.99,0.067,-0.047,0.081,-0.376,0.485,0.091,-86.813,-66.700,-52.635
1747597941.01,0.100,0.083,0.050,-0.375,0.275,0.017,-87.035,-73.439,-60.006
1747597941.03,0.001,0.068,0.018,-0.194,0.071,-0.149,-87.022,-79.573,-66.524
1747597941.05,-0.039,-0.010,0.039,-0.079,-0.107,-0.143,-86.889,-82.906,-70.017
1747597941.07,0.012,-0.030,0.025,-0.145,-0.232,-0.122,-86.744,-85.515,-72.614
1747597941.09,0.094,-0.020,0.028,-0.179,-0.192,-0.026,-86.668,-89.051,-76.089
1747597941.11,0.112,-0.012,0.030,-0.208,-0.019,0.024,-86.670,-93.204,-80.298
1747597941.13,0.038,-0.020,-0.007,-0.091,-0.096,-0.048,-86.651,-96.285,-83.530
1747597941.15,-0.079,0.029,-0.055,0.076,-0.115,-0.080,-86.569,-96.384,-83.659
1747597941.17,-0.117,0.041,-0.036,0.182,0.095,-0.055,-86.511,-93.801,-81.226
1747597941.19,-0.082,0.001,-0.033,0.163,0.227,-0.001,-86.488,-90.183,-78.156
1747597941.21,-0.011,-0.016,0.056,0.174,0.161,0.062,-86.527,-86.870,-75.248
1747597941.23,-0.002,-0.030,0.123,0.151,0.105,0.056,-86.578,-83.325,-72.002
1747597941.25,0.049,-0.025,0.108,0.105,0.082,-0.014,-86.581,-80.820,-69.776
1747597941.27,0.059,0.027,0.059,0.146,0.029,-0.074,-86.498,-78.577,-67.764
1747597941.29,0.040,0.030,0.059,0.232,-0.098,-0.083,-86.357,-75.753,-65.064
1747597941.31,0.003,0.025,0.052,0.265,-0.119,-0.066,-86.198,-72.087,-61.408
1747597941.33,-0.034,-0.004,0.055,0.339,-0.078,-0.037,-86.034,-68.038,-57.385
1747597941.35,-0.045,-0.038,0.038,0.355,-0.104,0.009,-85.884,-63.223,-52.601
1747597941.37,-0.060,-0.043,0.017,0.417,0.057,0.026,-85.705,-58.103,-47.554
1747597941.39,-0.027,0.008,0.025,0.489,0.197,0.012,-85.431,-52.269,-42.010
1747597941.41,-0.005,0.033,0.012,0.523,0.142,-0.012,-85.050,-46.742,-36.802
1747597941.43,0.037,-0.015,0.017,0.600,0.042,-0.034,-84.578,-41.997,-32.258
1747597941.45,0.066,-0.021,0.025,0.703,-0.099,-0.049,-83.976,-37.668,-27.997
1747597941.47,0.088,0.017,-0.022,0.828,-0.190,-0.012,-83.237,-33.503,-23.741
1747597941.49,0.047,0.045,0.030,0.870,-0.146,-0.042,-82.378,-29.740,-19.895
1747597941.51,-0.075,0.019,0.076,0.696,-0.262,-0.034,-81.572,-27.294,-17.279
1747597941.53,-0.082,-0.043,0.099,0.740,-0.089,-0.059,-80.835,-25.476,-15.350
1747597941.55,-0.061,-0.016,0.020,0.816,0.025,-0.121,-79.985,-23.889,-13.828
1747597941.57,-0.059,0.038,-0.009,0.959,0.114,-0.081,-78.977,-22.229,-12.362
1747597941.59,-0.036,0.032,0.052,0.989,0.088,0.031,-77.933,-20.299,-10.595
1747597941.61,0.001,-0.048,0.117,0.903,0.216,0.100,-76.944,-18.175,-8.736
1747597941.63,0.023,-0.099,0.019,0.894,0.094,0.225,-76.008,-16.004,-6.780
1747597941.65,0.105,-0.041,-0.071,0.924,-0.018,0.168,-75.091,-13.987,-4.819
1747597941.67,0.114,0.054,-0.089,1.082,-0.212,-0.014,-74.005,-12.877,-3.606
1747597941.69,0.070,0.057,-0.062,0.996,-0.032,-0.092,-72.799,-12.413,-2.995
1747597941.71,-0.010,-0.039,0.074,0.965,-0.030,0.036,-71.703,-11.817,-2.475
1747597941.73,-0.087,-0.046,-0.057,0.916,0.027,0.169,-70.676,-10.893,-1.474
1747597941.75,-0.013,-0.017,0.087,1.021,0.293,0.146,-69.634,-9.586,-0.328
1747597941.77,-0.074,0.025,-0.012,1.090,0.217,-0.050,-68.442,-8.659,0.311
1747597941.79,-0.125,-0.007,0.048,1.022,0.217,-0.054,-67.234,-8.184,0.543
1747597941.81,-0.168,-0.054,-0.015,0.920,0.356,0.038,-66.123,-7.537,0.847
1747597941.83,-0.078,-0.060,-0.027,0.866,0.396,0.124,-65.142,-6.612,1.347
1747597941.85,0.088,-0.025,-0.016,1.000,0.348,0.083,-64.113,-5.648,1.894
1747597941.87,0.163,-0.016,-0.051,1.097,0.202,-0.060,-62.907,-5.107,2.142
1747597941.89,0.099,-0.035,0.032,1.069,0.332,-0.076,-61.639,-4.751,2.171
1747597941.91,-0.091,-0.059,-0.028,0.940,0.003,0.020,-60.509,-4.478,2.222
1747597941.92,-0.049,-0.041,-0.001,0.973,0.033,0.152,-59.445,-4.143,2.595
1747597941.95,0.031,0.032,-0.028,1.154,0.176,-0.028,-58.246,-3.729,2.917
1747597941.96,-0.034,0.004,-0.017,1.194,0.181,-0.222,-56.887,-3.640,2.743
1747597941.98,-0.053,-0.070,0.061,1.100,0.365,-0.108,-55.555,-3.537,2.494
1747597942.00,0.021,-0.120,-0.022,0.929,0.224,0.084,-54.407,-3.097,2.588
1747597942.02,0.198,-0.035,0.006,0.960,0.012,0.166,-53.361,-2.644,2.959
1747597942.04,0.170,0.070,0.000,1.145,-0.230,-0.016,-52.165,-2.574,3.218
1747597942.06,0.007,0.052,0.036,1.157,-0.091,-0.180,-50.822,-2.869,3.099
1747597942.08,-0.079,-0.002,-0.062,0.979,-0.063,-0.074,-49.583,-3.077,2.914
1747597942.10,-0.037,-0.023,0.018,0.881,-0.022,0.153,-48.542,-2.997,3.106
1747597942.12,0.028,0.096,0.077,1.001,-0.118,0.118,-47.488,-2.794,3.474
1747597942.14,-0.001,0.116,-0.008,1.082,-0.286,-0.113,-46.289,-2.950,3.605
1747597942.16,-0.001,0.056,0.038,1.071,-0.047,-0.265,-45.038,-3.353,3.387
1747597942.18,0.025,-0.032,-0.002,0.862,0.095,-0.211,-43.902,-3.496,3.098
1747597942.20,0.077,-0.090,-0.047,0.758,-0.014,0.107,-43.008,-3.448,3.119
1747597942.22,0.156,-0.040,0.020,0.891,-0.076,0.224,-42.083,-3.276,3.524
1747597942.24,0.068,0.075,-0.031,0.945,-0.149,0.046,-41.042,-3.186,3.909
1747597942.26,-0.002,0.079,0.021,1.015,-0.064,-0.174,-39.908,-3.353,3.961
1747597942.28,0.003,-0.013,0.025,0.872,-0.087,-0.266,-38.810,-3.561,3.773
1747597942.30,-0.001,-0.056,0.013,0.872,-0.176,-0.085,-37.829,-3.884,3.658
1747597942.32,0.067,0.019,0.008,0.974,-0.258,0.003,-36.767,-4.081,3.805
1747597942.34,-0.012,0.104,0.009,1.022,-0.222,-0.071,-35.621,-4.336,3.970
1747597942.36,-0.057,0.046,0.035,1.014,-0.106,-0.208,-34.436,-4.560,4.006
1747597942.38,-0.068,-0.069,0.010,0.938,0.018,-0.263,-33.303,-4.749,3.886
1747597942.40,-0.057,-0.071,0.016,0.915,0.046,-0.250,-32.230,-4.821,3.752
1747597942.42,-0.084,0.043,0.040,0.960,0.049,-0.226,-31.141,-4.879,3.667
1747597942.44,-0.056,0.149,0.042,1.010,-0.066,-0.260,-30.002,-4.970,3.596
1747597942.46,0.050,0.109,0.010,1.069,-0.221,-0.312,-28.789,-5.279,3.453
1747597942.48,0.129,-0.043,-0.010,1.013,-0.273,-0.309,-27.573,-5.703,3.331
1747597942.50,0.074,-0.107,-0.023,0.980,-0.194,-0.219,-26.416,-6.054,3.237
1747597942.52,-0.043,-0.089,-0.011,0.967,-0.104,-0.153,-25.295,-6.275,3.270
1747597942.54,-0.071,0.013,0.051,1.020,-0.042,-0.204,-24.158,-6.392,3.306
1747597942.56,-0.014,0.038,0.098,1.058,-0.105,-0.290,-22.943,-6.512,3.286
1747597942.58,0.061,0.003,-0.018,1.063,-0.202,-0.304,-21.697,-6.801,3.177
1747597942.60,0.042,-0.005,-0.055,0.994,-0.065,-0.213,-20.490,-7.015,3.126
1747597942.62,0.006,0.006,-0.011,1.000,0.025,-0.151,-19.339,-7.064,3.183
1747597942.64,-0.005,0.050,0.063,1.104,0.077,-0.183,-18.133,-7.008,3.261
1747597942.66,0.066,0.041,0.044,1.106,0.072,-0.281,-16.821,-6.938,3.278
1747597942.68,0.044,0.003,-0.092,1.062,-0.066,-0.286,-15.562,-6.983,3.182
1747597942.70,-0.054,0.021,-0.028,1.033,-0.113,-0.171,-14.338,-7.123,3.178
1747597942.72,0.044,0.104,-0.003,1.029,-0.122,-0.085,-13.156,-7.257,3.340
1747597942.74,0.202,0.038,-0.049,1.046,-0.123,-0.100,-11.979,-7.387,3.497
1747597942.76,0.138,-0.038,0.044,1.069,-0.088,-0.035,-10.759,-7.492,3.702
1747597942.78,-0.032,-0.023,-0.004,1.027,0.094,0.061,-9.569,-7.482,4.018
1747597942.80,-0.103,-0.022,-0.035,0.916,0.255,0.054,-8.469,-7.221,4.396
1747597942.82,-0.104,-0.005,-0.064,0.935,0.069,-0.014,-7.430,-7.005,4.701
1747597942.84,-0.099,0.008,-0.046,0.918,-0.088,-0.189,-6.366,-7.018,4.850
1747597942.86,-0.117,0.019,0.055,0.940,-0.026,-0.372,-5.270,-7.115,4.787
1747597942.88,-0.175,0.035,0.062,0.921,0.071,-0.390,-4.161,-7.115,4.571
1747597942.90,-0.108,0.067,0.000,0.931,0.183,-0.330,-3.053,-6.990,4.405
1747597942.92,-0.005,0.078,-0.077,0.906,0.054,-0.347,-1.967,-6.841,4.249
1747597942.94,0.083,-0.004,-0.096,0.921,-0.115,-0.342,-0.899,-6.901,4.121
1747597942.96,0.085,-0.016,-0.010,0.943,-0.236,-0.349,0.204,-7.113,3.946
1747597942.98,-0.045,0.022,0.079,0.949,-0.095,-0.229,1.338,-7.317,3.845
1747597943.00,-0.082,0.078,0.010,0.990,0.012,-0.199,2.458,-7.359,3.837
1747597943.02,-0.006,0.043,-0.063,0.935,-0.032,-0.255,3.582,-7.325,3.794
1747597943.04,0.087,0.006,-0.098,0.913,-0.350,-0.329,4.671,-7.535,3.670
1747597943.06,0.106,0.012,-0.051,0.891,-0.488,-0.372,5.742,-8.013,3.495
1747597943.08,0.022,0.026,-0.006,0.888,-0.315,-0.305,6.803,-8.475,3.321
1747597943.10,-0.027,0.059,0.035,0.852,-0.068,-0.240,7.829,-8.663,3.260
1747597943.12,0.002,0.037,-0.023,0.826,0.031,-0.202,8.818,-8.635,3.223
1747597943.14,0.110,-0.027,-0.096,0.820,-0.242,-0.145,9.779,-8.746,3.263
1747597943.16,0.143,-0.023,-0.086,0.817,-0.399,-0.133,10.725,-9.124,3.320
1747597943.18,0.033,0.007,-0.072,0.767,-0.436,-0.081,11.638,-9.615,3.445
1747597943.20,-0.075,0.012,-0.054,0.731,-0.242,-0.067,12.494,-10.034,3.612
1747597943.22,-0.037,0.016,-0.018,0.671,-0.041,-0.161,13.300,-10.181,3.734
1747597943.24,0.027,0.008,-0.043,0.598,-0.071,-0.263,14.057,-10.201,3.728
1747597943.26,0.065,-0.057,-0.091,0.518,-0.111,-0.284,14.739,-10.270,3.632
1747597943.28,-0.007,-0.040,-0.057,0.468,0.103,-0.230,15.349,-10.237,3.651
1747597943.30,-0.033,-0.023,-0.042,0.455,0.339,-0.099,15.906,-9.944,3.687
1747597943.32,0.047,-0.036,-0.063,0.433,0.264,-0.024,16.410,-9.584,3.812
1747597943.34,0.088,-0.010,-0.049,0.427,0.089,0.024,16.894,-9.405,4.029
1747597943.36,0.008,0.025,-0.077,0.384,0.007,0.055,17.345,-9.408,4.259
1747597943.38,-0.043,-0.003,-0.045,0.333,0.069,0.082,17.733,-9.410,4.524
1747597943.40,-0.031,-0.009,0.008,0.325,0.059,0.077,18.085,-9.378,4.777
1747597943.42,0.033,0.010,-0.027,0.328,-0.046,0.015,18.447,-9.400,4.988
1747597943.44,-0.007,0.020,-0.052,0.285,-0.092,-0.016,18.807,-9.503,5.152
1747597943.46,-0.069,-0.019,-0.016,0.290,-0.056,0.018,19.125,-9.614,5.322
1747597943.48,-0.022,0.006,-0.015,0.279,-0.072,-0.072,19.452,-9.688,5.464
1747597943.50,-0.007,0.009,-0.016,0.275,-0.011,-0.131,19.781,-9.734,5.511
1747597943.52,0.002,0.003,-0.024,0.254,0.067,-0.133,20.115,-9.650,5.506
1747597943.54,-0.017,-0.014,-0.067,0.231,0.032,-0.070,20.404,-9.563,5.560
1747597943.56,0.015,-0.012,-0.055,0.198,-0.031,-0.077,20.665,-9.548,5.628
1747597943.58,0.046,-0.003,0.001,0.158,0.009,-0.110,20.881,-9.543,5.660
1747597943.60,0.000,-0.010,-0.042,0.110,0.036,-0.058,21.051,-9.486,5.689
1747597943.62,-0.040,-0.038,-0.087,0.041,0.126,-0.046,21.141,-9.386,5.735
1747597943.64,0.006,-0.053,-0.082,-0.048,0.152,-0.038,21.140,-9.208,5.761
1747597943.66,-0.005,-0.045,-0.105,-0.181,0.268,-0.053,21.032,-8.926,5.761
1747597943.68,-0.016,-0.084,-0.147,-0.317,0.319,0.014,20.744,-8.587,5.770
1747597943.70,-0.015,-0.040,-0.120,-0.469,0.451,0.033,20.300,-8.117,5.805
1747597943.72,-0.009,-0.068,-0.149,-0.649,0.464,0.131,19.659,-7.592,5.902
1747597943.74,0.014,-0.140,-0.167,-0.804,0.439,0.208,18.805,-7.109,6.077
1747597943.76,0.038,-0.134,-0.127,-0.942,0.470,0.218,17.788,-6.623,6.298
1747597943.78,0.021,-0.092,-0.122,-1.096,0.336,0.219,16.599,-6.199,6.498
1747597943.80,-0.018,-0.076,-0.161,-1.220,0.240,0.305,15.251,-5.915,6.707
1747597943.82,-0.059,-0.057,-0.137,-1.327,0.224,0.344,13.766,-5.713,6.984
1747597943.84,-0.042,-0.066,-0.098,-1.408,0.141,0.318,12.169,-5.538,7.242
1747597943.86,0.006,-0.110,-0.073,-1.484,-0.023,0.295,10.493,-5.504,7.467
1747597943.88,0.037,-0.087,-0.103,-1.554,-0.143,0.363,8.741,-5.656,7.713
1747597943.90,0.054,-0.040,-0.090,-1.617,-0.166,0.501,6.882,-5.882,8.073
1747597943.92,0.086,-0.059,-0.047,-1.600,-0.062,0.518,4.983,-6.047,8.524
1747597943.94,0.063,-0.073,-0.002,-1.623,-0.096,0.456,3.099,-6.146,8.952
1747597943.96,0.038,-0.065,-0.042,-1.713,-0.173,0.503,1.160,-6.315,9.343
1747597943.98,-0.021,-0.061,-0.066,-1.716,-0.075,0.468,-0.873,-6.483,9.794
1747597944.00,-0.073,-0.062,0.037,-1.703,0.023,0.310,-2.865,-6.486,10.116
1747597944.02,-0.083,-0.049,0.041,-1.703,-0.135,0.213,-4.820,-6.526,10.278
1747597944.04,-0.064,-0.024,-0.026,-1.750,-0.212,0.303,-6.817,-6.745,10.429
1747597944.06,-0.032,0.002,0.024,-1.747,-0.009,0.261,-8.844,-6.870,10.612
1747597944.08,-0.068,-0.026,0.051,-1.709,0.016,0.140,-10.830,-6.853,10.667
1747597944.10,0.021,-0.130,0.018,-1.746,-0.003,0.214,-12.813,-6.849,10.687
1747597944.12,0.079,-0.158,0.000,-1.748,-0.083,0.307,-14.830,-6.889,10.803
1747597944.14,0.044,-0.114,0.018,-1.707,-0.077,0.273,-16.826,-6.964,10.952
1747597944.16,-0.024,-0.078,0.093,-1.738,0.003,0.212,-18.805,-7.006,11.032
1747597944.18,-0.002,-0.075,0.020,-1.746,0.076,0.310,-20.821,-6.936,11.119
1747597944.20,0.059,-0.058,-0.034,-1.759,0.018,0.393,-22.863,-6.804,11.370
1747597944.22,0.063,-0.041,0.037,-1.656,-0.059,0.382,-24.866,-6.740,11.627
1747597944.24,0.054,-0.041,0.104,-1.636,0.020,0.346,-26.765,-6.662,11.890
1747597944.26,0.036,-0.019,0.004,-1.647,-0.070,0.319,-28.661,-6.620,12.059
1747597944.28,0.058,-0.021,0.043,-1.588,-0.071,0.540,-30.570,-6.551,12.439
1747597944.30,0.103,0.012,0.021,-1.535,-0.073,0.533,-32.407,-6.372,12.965
1747597944.32,0.100,0.008,-0.015,-1.507,-0.102,0.551,-34.198,-6.199,13.446
1747597944.34,0.068,0.001,0.018,-1.530,-0.210,0.532,-35.979,-6.044,13.993
1747597944.36,-0.037,-0.015,0.013,-1.527,-0.381,0.377,-37.777,-6.150,14.367
1747597944.38,-0.103,-0.083,-0.038,-1.567,-0.329,0.327,-39.570,-6.415,14.593
1747597944.40,-0.184,-0.120,-0.023,-1.604,-0.185,0.412,-41.405,-6.536,14.856
1747597944.42,-0.161,-0.082,0.027,-1.652,0.121,0.374,-43.322,-6.359,15.142
1747597944.44,-0.087,-0.019,0.005,-1.628,0.292,0.295,-45.224,-5.915,15.334
1747597944.46,0.012,-0.042,-0.018,-1.627,0.201,0.246,-47.119,-5.497,15.443
1747597944.48,0.079,-0.021,0.010,-1.638,0.154,0.203,-48.987,-5.225,15.531
1747597944.50,0.123,0.008,0.038,-1.613,0.013,0.197,-50.853,-5.039,15.589
1747597944.52,0.114,0.031,0.029,-1.590,-0.134,0.165,-52.703,-5.039,15.623
1747597944.54,0.036,0.035,-0.004,-1.590,-0.225,0.162,-54.519,-5.252,15.590
1747597944.56,-0.041,0.029,0.069,-1.577,-0.062,0.130,-56.334,-5.414,15.553
1747597944.58,-0.061,0.004,0.043,-1.586,0.018,0.085,-58.135,-5.519,15.387
1747597944.60,0.006,-0.038,0.039,-1.654,-0.087,0.131,-59.996,-5.652,15.177
1747597944.62,0.091,-0.031,0.045,-1.565,-0.055,0.128,-61.838,-5.812,14.999
1747597944.64,0.092,0.014,0.028,-1.536,-0.022,0.075,-63.604,-5.950,14.798
1747597944.66,0.004,-0.000,0.017,-1.533,-0.070,-0.054,-65.347,-6.375,14.282
1747597944.68,-0.011,-0.055,-0.005,-1.481,-0.046,-0.016,-67.040,-7.086,13.500
1747597944.70,-0.018,-0.067,0.037,-1.504,0.035,0.057,-68.740,-7.552,12.917
1747597944.72,-0.022,-0.046,-0.005,-1.455,0.066,0.030,-70.423,-7.969,12.306
1747597944.74,-0.021,-0.029,-0.008,-1.375,0.136,-0.036,-72.044,-8.492,11.533
1747597944.76,-0.047,-0.023,-0.079,-1.291,0.224,-0.011,-73.527,-9.151,10.536
1747597944.78,-0.060,-0.054,-0.046,-1.252,0.435,-0.037,-74.951,-9.722,9.440
1747597944.80,-0.024,-0.068,-0.032,-1.287,0.539,0.013,-76.386,-10.215,8.215
1747597944.82,0.022,-0.051,-0.008,-1.248,0.346,0.026,-77.813,-10.798,6.931
1747597944.84,0.058,-0.041,0.012,-1.197,0.217,0.089,-79.210,-11.428,5.829
1747597944.86,0.042,-0.014,-0.050,-1.097,0.163,-0.041,-80.487,-12.495,4.357
1747597944.88,-0.071,0.061,-0.000,-1.156,0.205,-0.130,-81.715,-15.104,1.321
1747597944.90,-0.059,-0.029,-0.012,-1.059,0.427,-0.076,-82.893,-18.270,-2.459
1747597944.92,0.071,-0.117,0.046,-1.113,0.319,0.022,-84.028,-21.760,-6.637
1747597944.94,0.156,-0.004,-0.002,-1.131,0.086,0.156,-85.254,-26.363,-11.681
1747597944.96,0.148,0.057,0.006,-1.030,-0.028,0.041,-86.381,-33.121,-18.674
1747597944.97,0.025,0.006,0.039,-1.028,-0.079,-0.113,-87.263,-47.698,-33.437
1747597945.00,-0.157,-0.026,-0.060,-0.895,-0.073,-0.171,-87.688,-71.308,-57.168
1747597945.01,-0.148,-0.004,-0.064,-0.788,0.033,-0.133,-87.611,-95.231,-81.266
1747597945.03,-0.028,-0.004,-0.001,-0.682,0.172,-0.072,-87.289,-112.809,-99.226
1747597945.05,-0.042,-0.045,-0.012,-0.491,0.178,-0.037,-86.917,-123.594,-110.445
1747597945.07,-0.039,-0.016,-0.036,-0.355,0.391,-0.006,-86.603,-129.949,-117.355
1747597945.09,-0.067,0.076,-0.056,-0.226,0.355,-0.042,-86.384,-133.123,-121.195
1747597945.11,-0.046,0.024,0.037,-0.260,0.359,-0.072,-86.148,-134.874,-123.568
1747597945.13,0.046,-0.051,0.080,-0.296,0.331,-0.047,-85.859,-136.990,-126.307
1747597945.15,0.102,-0.044,0.029,-0.202,0.096,-0.032,-85.614,-138.974,-128.768
1747597945.17,0.103,0.010,-0.037,-0.047,-0.237,-0.070,-85.470,-139.612,-129.526
1747597945.19,0.069,0.026,0.018,0.010,-0.188,-0.051,-85.413,-139.385,-129.245
1747597945.21,-0.006,0.013,0.047,-0.011,-0.130,-0.089,-85.370,-138.742,-128.645
1747597945.23,-0.024,-0.018,0.014,-0.041,-0.109,-0.110,-85.254,-138.125,-128.075
1747597945.25,0.047,-0.009,0.016,0.028,-0.116,-0.045,-85.196,-137.414,-127.440
1747597945.27,0.017,0.014,0.057,0.022,-0.181,-0.029,-85.189,-137.126,-127.159
1747597945.29,-0.050,0.021,0.008,0.081,-0.077,-0.055,-85.196,-136.582,-126.629
1747597945.31,-0.108,0.016,-0.007,0.134,0.151,-0.063,-85.235,-134.828,-125.089
1747597945.33,-0.095,0.003,0.022,0.076,0.233,-0.032,-85.284,-133.026,-123.869
1747597945.35,-0.000,-0.010,0.041,-0.014,0.268,0.011,-85.294,-132.462,-123.762
1747597945.37,0.126,-0.037,0.047,0.008,0.205,0.028,-85.302,-132.511,-124.267
1747597945.39,0.134,-0.014,0.039,0.072,0.069,-0.010,-85.338,-132.049,-124.150
1747597945.41,0.067,0.027,0.020,0.114,-0.126,-0.058,-85.375,-130.616,-122.863
1747597945.43,0.022,-0.021,0.053,0.171,-0.247,-0.064,-85.420,-128.848,-121.015
1747597945.45,-0.036,-0.026,0.039,0.185,-0.208,-0.060,-85.496,-126.473,-118.521
1747597945.47,-0.061,-0.020,0.054,0.158,-0.093,-0.056,-85.556,-124.316,-116.353
1747597945.49,-0.033,-0.011,0.038,0.237,-0.122,-0.039,-85.634,-121.710,-113.780
1747597945.51,0.012,0.018,0.000,0.399,-0.182,-0.034,-85.780,-117.496,-109.533
1747597945.53,0.006,0.063,0.013,0.548,-0.228,-0.059,-85.949,-110.627,-102.553
1747597945.55,-0.071,0.005,0.072,0.534,-0.143,-0.050,-86.062,-101.811,-93.658
1747597945.57,-0.098,-0.075,0.075,0.523,-0.008,-0.039,-86.089,-93.262,-85.134
1747597945.59,-0.028,-0.069,0.013,0.627,-0.004,-0.044,-86.029,-83.783,-75.777
1747597945.61,0.010,0.057,-0.108,0.785,-0.222,-0.079,-85.792,-73.147,-65.135
1747597945.63,0.052,0.123,-0.078,0.925,-0.066,0.042,-85.369,-61.558,-53.442
1747597945.65,0.072,-0.024,0.175,0.762,0.016,0.143,-84.932,-51.168,-43.188
1747597945.67,0.009,-0.127,0.068,0.805,-0.229,0.087,-84.440,-43.458,-35.456
1747597945.69,0.001,-0.035,0.025,0.949,-0.354,0.026,-83.709,-36.951,-28.697
1747597945.71,-0.041,0.053,-0.040,1.039,-0.148,-0.141,-82.742,-32.230,-23.731
1747597945.73,-0.004,0.033,-0.028,1.087,0.240,-0.197,-81.578,-29.087,-20.709
1747597945.75,0.039,-0.002,0.116,0.922,0.174,0.004,-80.485,-25.916,-17.903
1747597945.77,-0.071,-0.063,0.116,0.912,-0.024,0.061,-79.579,-23.291,-15.414
1747597945.79,-0.047,-0.037,0.081,0.871,-0.179,0.179,-78.672,-20.704,-12.747
1747597945.81,-0.005,0.027,0.012,0.990,-0.049,0.093,-77.746,-18.394,-10.314
1747597945.83,0.042,0.077,0.075,1.126,0.154,-0.079,-76.580,-16.665,-8.734
1747597945.85,-0.110,0.043,0.018,1.010,0.020,-0.117,-75.373,-15.724,-7.907
1747597945.87,-0.132,-0.075,-0.029,0.930,0.142,0.025,-74.281,-14.775,-7.050
1747597945.89,-0.025,-0.045,0.015,0.925,0.241,0.099,-73.294,-13.365,-5.877
1747597945.91,0.063,0.000,0.007,1.015,0.328,0.071,-72.234,-11.955,-4.779
1747597945.93,0.079,-0.003,0.047,1.094,0.342,0.115,-71.073,-10.536,-3.754
1747597945.95,-0.018,-0.035,-0.007,1.045,0.282,0.150,-69.873,-9.166,-2.711
1747597945.97,-0.112,-0.057,-0.070,0.952,0.180,0.148,-68.784,-7.979,-1.779
1747597945.99,-0.039,-0.076,-0.085,1.005,0.271,0.199,-67.715,-6.891,-0.905
1747597946.01,0.043,-0.038,-0.052,1.068,0.236,0.081,-66.547,-5.875,-0.168
1747597946.03,0.057,-0.014,-0.032,1.079,0.323,-0.001,-65.315,-5.212,0.166
1747597946.05,0.024,-0.058,0.004,0.968,0.232,0.091,-64.169,-4.629,0.425
1747597946.07,0.057,-0.068,-0.005,0.938,-0.026,0.180,-63.103,-3.967,0.972
1747597946.09,0.086,-0.037,-0.047,1.063,-0.166,0.096,-61.991,-3.658,1.485
1747597946.11,0.032,-0.011,-0.039,1.182,-0.236,-0.070,-60.704,-3.711,1.673
1747597946.13,-0.079,0.007,0.023,1.120,0.066,-0.141,-59.360,-3.918,1.570
1747597946.15,-0.120,0.018,0.075,0.975,0.267,-0.031,-58.165,-3.721,1.524
1747597946.17,-0.040,0.010,-0.003,0.909,0.044,0.142,-57.101,-3.336,1.745
1747597946.19,0.135,0.018,0.022,0.997,-0.039,0.176,-56.040,-2.909,2.232
1747597946.21,0.131,0.055,0.010,1.073,-0.138,-0.065,-54.855,-2.823,2.427
1747597946.23,0.023,0.070,-0.015,1.014,0.072,-0.114,-53.645,-3.020,2.301
1747597946.25,-0.031,-0.001,0.050,0.895,0.172,-0.044,-52.559,-2.865,2.266
1747597946.27,-0.012,-0.036,-0.027,0.817,-0.067,0.112,-51.590,-2.704,2.419
1747597946.29,0.023,0.014,0.033,0.902,-0.148,0.028,-50.622,-2.648,2.663
1747597946.31,-0.030,0.067,0.003,1.055,-0.163,-0.237,-49.505,-2.896,2.590
1747597946.33,-0.071,0.038,0.005,1.006,-0.031,-0.357,-48.282,-3.381,2.167
1747597946.35,-0.038,-0.051,0.041,0.942,0.216,-0.298,-47.148,-3.587,1.770
1747597946.37,0.046,-0.072,0.002,0.889,0.205,-0.066,-46.092,-3.489,1.586
1747597946.39,0.152,-0.044,0.010,0.910,0.034,0.032,-45.071,-3.288,1.707
1747597946.41,0.149,0.043,0.002,1.056,-0.041,-0.077,-43.955,-3.251,1.841
1747597946.43,0.072,0.084,0.006,1.091,-0.127,-0.227,-42.701,-3.461,1.760
1747597946.45,0.041,-0.029,0.006,0.965,-0.147,-0.189,-41.502,-3.787,1.598
1747597946.47,0.096,-0.084,0.030,0.891,-0.131,-0.000,-40.446,-3.966,1.634
1747597946.49,0.173,-0.043,0.004,0.911,-0.291,0.127,-39.441,-4.072,1.926
1747597946.51,0.109,0.071,0.018,1.067,-0.316,0.019,-38.326,-4.279,2.263
1747597946.53,-0.115,0.117,0.009,1.063,-0.274,-0.175,-37.091,-4.623,2.344
1747597946.55,-0.255,0.013,-0.007,0.971,-0.156,-0.191,-35.910,-4.972,2.291
1747597946.57,-0.150,-0.051,-0.013,0.908,-0.028,-0.160,-34.842,-5.136,2.269
1747597946.59,-0.073,0.012,0.070,0.973,-0.026,-0.213,-33.756,-5.230,2.257
1747597946.61,-0.029,0.064,0.032,0.978,-0.011,-0.265,-32.617,-5.372,2.166
1747597946.63,0.021,0.020,-0.035,0.946,-0.010,-0.281,-31.485,-5.535,2.008
1747597946.65,0.087,-0.022,-0.001,0.909,0.104,-0.268,-30.409,-5.569,1.873
1747597946.67,0.013,0.023,0.018,0.886,0.046,-0.215,-29.358,-5.592,1.781
1747597946.69,-0.071,0.090,0.024,0.876,-0.020,-0.229,-28.334,-5.675,1.732
1747597946.71,-0.126,0.121,0.030,0.868,0.016,-0.283,-27.308,-5.788,1.606
1747597946.73,0.023,0.111,0.008,0.910,-0.006,-0.240,-26.271,-5.872,1.496
1747597946.75,0.099,0.066,-0.022,0.941,-0.114,-0.283,-25.190,-6.023,1.392
1747597946.77,0.018,-0.038,0.010,0.978,-0.113,-0.309,-24.061,-6.274,1.247
1747597946.79,-0.016,-0.109,0.016,0.930,0.043,-0.253,-22.941,-6.390,1.116
1747597946.81,0.037,-0.076,-0.040,0.905,0.061,-0.185,-21.874,-6.366,1.065
1747597946.83,0.013,0.014,0.011,0.918,-0.060,-0.111,-20.824,-6.389,1.112
1747597946.85,0.021,0.024,0.005,0.917,-0.065,-0.102,-19.763,-6.473,1.222
1747597946.87,0.034,-0.031,-0.012,0.888,-0.056,-0.071,-18.732,-6.524,1.389
1747597946.89,0.086,-0.036,0.000,0.880,-0.063,0.003,-17.729,-6.563,1.632
1747597946.91,0.029,0.040,-0.006,0.884,-0.117,-0.001,-16.718,-6.624,1.920
1747597946.93,-0.072,0.052,0.001,0.943,-0.038,-0.062,-15.692,-6.699,2.155
1747597946.95,-0.117,-0.003,0.026,0.923,0.006,-0.137,-14.616,-6.687,2.299
1747597946.97,-0.098,-0.062,-0.016,0.935,-0.024,-0.215,-13.536,-6.724,2.366
1747597946.99,0.013,-0.117,-0.040,0.916,-0.044,-0.231,-12.460,-6.798,2.394
1747597947.01,0.196,-0.039,0.011,0.931,0.011,-0.188,-11.393,-6.836,2.391
1747597947.03,0.111,0.131,0.058,0.987,-0.003,-0.029,-10.274,-6.826,2.523
1747597947.05,-0.026,0.220,0.013,0.962,0.106,0.021,-9.174,-6.767,2.795
1747597947.07,-0.001,0.041,-0.065,0.943,0.096,-0.067,-8.099,-6.605,3.013
1747597947.09,0.042,-0.088,-0.052,0.939,0.026,-0.167,-7.010,-6.535,3.141
1747597947.11,0.004,-0.088,-0.010,0.934,-0.013,-0.163,-5.923,-6.556,3.200
1747597947.13,-0.061,0.108,0.076,1.016,0.043,-0.161,-4.814,-6.551,3.291
1747597947.15,-0.093,0.207,0.032,1.036,0.080,-0.225,-3.615,-6.483,3.334
1747597947.17,-0.062,0.089,-0.050,0.984,0.125,-0.303,-2.432,-6.370,3.289
1747597947.19,-0.020,-0.076,-0.072,0.952,0.026,-0.350,-1.291,-6.292,3.135
1747597947.21,0.069,-0.129,-0.040,0.925,0.014,-0.347,-0.177,-6.302,2.975
1747597947.23,0.078,0.054,0.011,0.953,-0.015,-0.334,0.920,-6.283,2.766
1747597947.25,0.001,0.086,-0.009,0.939,0.043,-0.168,2.030,-6.264,2.701
1747597947.27,0.014,0.056,-0.036,0.928,0.091,-0.093,3.103,-6.184,2.778
1747597947.29,0.039,-0.033,-0.071,0.910,-0.065,-0.046,4.159,-6.170,2.933
1747597947.31,0.068,-0.039,-0.001,0.966,-0.145,-0.054,5.220,-6.297,3.103
1747597947.33,0.016,0.068,-0.034,0.962,-0.256,-0.073,6.328,-6.542,3.248
1747597947.35,-0.113,0.005,-0.068,0.890,-0.187,-0.056,7.395,-6.805,3.382
1747597947.37,-0.161,0.029,-0.009,0.834,-0.030,-0.205,8.386,-6.943,3.442
1747597947.39,-0.026,-0.001,-0.019,0.774,-0.064,-0.363,9.334,-6.919,3.392
1747597947.41,0.085,-0.051,-0.061,0.736,-0.175,-0.380,10.243,-7.000,3.157
1747597947.43,0.009,-0.023,-0.035,0.700,-0.119,-0.281,11.109,-7.143,2.952
1747597947.45,-0.046,0.033,-0.026,0.660,-0.029,-0.206,11.908,-7.179,2.848
1747597947.47,0.021,-0.009,-0.100,0.611,-0.083,-0.142,12.659,-7.204,2.814
1747597947.49,0.086,-0.023,-0.087,0.544,-0.243,-0.116,13.337,-7.372,2.827
1747597947.51,0.027,-0.038,-0.077,0.480,-0.280,-0.073,13.931,-7.683,2.891
1747597947.53,-0.057,-0.012,-0.042,0.424,-0.161,-0.043,14.452,-7.956,2.997
1747597947.55,-0.039,-0.013,-0.017,0.363,-0.038,-0.137,14.920,-8.036,3.023
1747597947.57,0.014,-0.046,-0.052,0.317,0.008,-0.168,15.326,-8.007,2.983
1747597947.59,0.005,-0.000,-0.073,0.292,-0.108,-0.134,15.689,-8.026,2.947
1747597947.61,-0.033,0.032,-0.029,0.287,-0.083,-0.114,16.039,-8.124,2.942
1747597947.63,0.019,-0.022,-0.040,0.290,-0.024,-0.089,16.371,-8.162,2.951
1747597947.65,0.056,-0.041,-0.035,0.262,-0.017,-0.069,16.695,-8.164,2.991
1747597947.67,0.038,0.009,-0.059,0.297,0.017,-0.025,17.024,-8.160,3.089
1747597947.69,0.005,0.039,-0.036,0.331,0.111,-0.008,17.391,-8.113,3.174
1747597947.71,0.009,-0.038,0.005,0.297,0.215,-0.064,17.748,-7.922,3.284
1747597947.73,0.044,-0.038,-0.023,0.211,0.168,-0.090,18.052,-7.667,3.361
1747597947.75,0.006,-0.031,-0.100,0.123,0.072,-0.045,18.237,-7.550,3.425
1747597947.77,-0.021,-0.047,-0.098,0.038,0.127,-0.011,18.336,-7.439,3.494
1747597947.79,0.016,-0.088,-0.103,-0.120,0.285,-0.011,18.293,-7.190,3.569
1747597947.81,0.055,-0.063,-0.152,-0.327,0.335,0.003,18.047,-6.809,3.599
1747597947.83,0.044,-0.081,-0.201,-0.560,0.363,0.104,17.535,-6.432,3.672
1747597947.85,0.006,-0.087,-0.223,-0.779,0.454,0.198,16.747,-5.988,3.853
1747597947.87,0.038,-0.117,-0.165,-0.964,0.625,0.311,15.725,-5.425,4.135
1747597947.89,0.084,-0.073,-0.181,-1.111,0.474,0.419,14.495,-4.868,4.542
1747597947.91,0.039,-0.096,-0.212,-1.292,0.380,0.475,13.086,-4.493,5.005
1747597947.93,-0.034,-0.087,-0.161,-1.455,0.298,0.444,11.477,-4.183,5.481
1747597947.95,-0.034,-0.056,-0.165,-1.580,0.082,0.450,9.698,-4.043,5.937
1747597947.97,0.017,-0.028,-0.136,-1.644,-0.140,0.310,7.824,-4.126,6.299
1747597947.99,0.009,-0.027,-0.051,-1.683,-0.239,0.212,5.913,-4.367,6.503
1747597948.01,-0.080,-0.057,-0.072,-1.728,-0.307,0.256,3.951,-4.698,6.691
1747597948.03,-0.132,-0.045,-0.056,-1.778,-0.223,0.240,1.929,-5.016,6.888
1747597948.04,-0.112,-0.047,-0.014,-1.797,-0.122,0.192,-0.131,-5.219,7.039
1747597948.06,-0.031,-0.052,0.013,-1.767,-0.077,0.071,-2.168,-5.316,7.095
1747597948.08,-0.029,-0.061,0.021,-1.739,-0.175,0.015,-4.170,-5.470,7.020
1747597948.10,-0.078,-0.051,0.026,-1.793,-0.126,0.031,-6.169,-5.656,6.920
1747597948.12,-0.000,-0.073,-0.007,-1.816,-0.039,0.180,-8.231,-5.779,6.913
1747597948.14,0.136,-0.079,-0.013,-1.781,-0.062,0.225,-10.304,-5.815,7.026
1747597948.16,0.092,-0.093,0.055,-1.729,-0.076,0.158,-12.312,-5.895,7.102
1747597948.18,-0.034,-0.100,0.058,-1.762,-0.216,0.137,-14.298,-6.063,7.106
1747597948.20,0.007,-0.130,0.002,-1.801,-0.193,0.344,-16.357,-6.303,7.208
1747597948.22,0.093,-0.119,0.020,-1.750,-0.053,0.385,-18.413,-6.366,7.516
1747597948.24,-0.002,-0.040,0.030,-1.735,-0.124,0.228,-20.429,-6.405,7.709
1747597948.26,-0.102,-0.053,0.098,-1.714,-0.081,0.194,-22.418,-6.531,7.795
1747597948.28,-0.094,-0.037,0.056,-1.717,-0.133,0.203,-24.385,-6.629,7.831
1747597948.30,0.000,-0.029,0.042,-1.675,-0.051,0.347,-26.361,-6.725,7.968
1747597948.32,0.129,-0.004,0.012,-1.607,0.034,0.410,-28.270,-6.589,8.253
1747597948.34,0.108,-0.025,-0.018,-1.614,0.002,0.361,-30.133,-6.424,8.574
1747597948.36,0.080,-0.110,-0.006,-1.588,-0.102,0.376,-31.997,-6.375,8.846
1747597948.38,0.073,-0.169,0.011,-1.619,-0.046,0.400,-33.867,-6.305,9.161
1747597948.40,0.022,-0.134,0.029,-1.639,-0.092,0.480,-35.758,-6.166,9.531
1747597948.42,-0.001,-0.006,0.008,-1.657,-0.193,0.577,-37.703,-6.044,10.035
1747597948.44,0.037,0.109,0.039,-1.585,-0.220,0.569,-39.618,-5.914,10.597
1747597948.46,0.054,0.083,-0.010,-1.561,-0.212,0.499,-41.453,-5.803,11.115
1747597948.48,0.071,-0.061,-0.022,-1.575,-0.158,0.416,-43.294,-5.703,11.536
1747597948.50,0.045,-0.113,0.018,-1.603,-0.197,0.435,-45.142,-5.576,11.913
1747597948.52,-0.061,-0.051,0.005,-1.646,-0.302,0.388,-47.031,-5.554,12.343
1747597948.54,-0.166,0.052,0.012,-1.624,-0.362,0.270,-48.934,-5.734,12.595
1747597948.56,-0.191,0.054,0.072,-1.557,-0.188,0.159,-50.763,-6.009,12.630
1747597948.58,-0.055,-0.040,0.001,-1.575,0.054,0.147,-52.550,-6.110,12.544
1747597948.60,0.107,-0.082,0.015,-1.642,0.158,0.239,-54.396,-5.936,12.532
1747597948.62,0.178,-0.042,0.027,-1.617,0.026,0.292,-56.300,-5.631,12.703
1747597948.64,0.120,0.041,-0.007,-1.547,-0.205,0.186,-58.133,-5.605,12.794
1747597948.66,-0.010,0.054,0.001,-1.532,-0.268,0.093,-59.882,-5.902,12.724
1747597948.68,-0.061,-0.005,0.035,-1.605,-0.270,0.011,-61.669,-6.516,12.329
1747597948.70,-0.037,-0.042,0.044,-1.560,-0.122,0.020,-63.472,-7.134,11.847
1747597948.72,0.006,-0.031,0.054,-1.512,0.020,0.034,-65.214,-7.588,11.325
1747597948.74,0.019,-0.028,-0.001,-1.485,-0.015,0.063,-66.916,-7.977,10.796
1747597948.76,0.035,-0.040,-0.031,-1.458,0.049,0.003,-68.594,-8.458,10.181
1747597948.78,0.028,-0.070,-0.026,-1.416,0.061,0.043,-70.215,-8.916,9.490
1747597948.80,0.003,-0.046,-0.023,-1.380,-0.016,0.013,-71.801,-9.571,8.695
1747597948.82,0.027,-0.005,0.021,-1.304,0.136,-0.067,-73.310,-10.415,7.658
1747597948.84,0.025,-0.044,0.037,-1.285,0.210,0.009,-74.760,-11.321,6.383
1747597948.86,-0.020,-0.067,0.008,-1.251,0.071,0.017,-76.168,-12.177,5.197
1747597948.88,-0.049,-0.004,0.008,-1.239,-0.072,-0.047,-77.556,-13.639,3.591
1747597948.90,0.005,0.022,0.014,-1.225,0.130,-0.028,-78.930,-15.524,1.555
1747597948.92,0.035,0.006,0.057,-1.158,0.262,-0.018,-80.206,-17.506,-0.860
1747597948.94,0.010,-0.023,0.022,-1.143,0.153,-0.011,-81.448,-19.985,-3.747
1747597948.96,-0.036,-0.045,0.026,-1.095,0.066,0.039,-82.658,-23.120,-7.156
1747597948.98,-0.018,-0.083,0.052,-1.129,0.289,-0.013,-83.789,-27.189,-11.623
1747597949.00,-0.032,-0.021,0.032,-1.136,0.045,0.031,-84.937,-33.562,-18.452
1747597949.02,-0.025,0.046,-0.048,-0.980,-0.017,-0.034,-85.890,-43.130,-28.168
1747597949.04,0.066,0.064,-0.020,-0.910,0.185,-0.015,-86.559,-55.619,-40.979
1747597949.06,-0.037,0.025,-0.014,-0.879,0.263,-0.094,-86.943,-72.033,-57.861
1747597949.08,-0.083,-0.072,0.012,-0.912,0.218,0.005,-87.055,-91.255,-77.582
1747597949.10,-0.043,-0.046,-0.018,-0.929,0.235,-0.049,-86.843,-110.780,-97.613
1747597949.12,0.030,-0.050,0.004,-0.864,0.330,0.001,-86.322,-125.377,-112.747
1747597949.14,0.038,0.059,-0.072,-0.753,0.296,-0.094,-85.690,-134.806,-122.752
1747597949.16,-0.002,0.026,-0.060,-0.534,0.148,-0.142,-85.051,-139.518,-127.957
1747597949.18,-0.027,-0.083,-0.108,-0.418,0.125,-0.169,-84.530,-141.536,-130.293
1747597949.20,0.009,0.024,-0.102,-0.356,0.126,-0.121,-84.074,-142.744,-131.873
1747597949.22,0.054,0.061,-0.055,-0.219,-0.085,-0.053,-83.746,-143.911,-133.274
1747597949.24,0.075,0.026,-0.036,-0.084,-0.290,-0.050,-83.580,-144.602,-133.947
1747597949.26,0.058,0.030,-0.034,-0.043,-0.365,-0.104,-83.468,-144.642,-133.775
1747597949.28,0.062,-0.005,0.012,0.034,-0.170,-0.095,-83.389,-144.099,-133.105
1747597949.30,-0.010,-0.019,0.079,-0.004,-0.349,-0.047,-83.362,-143.715,-132.620
1747597949.32,-0.075,-0.047,0.029,-0.039,-0.297,-0.035,-83.321,-143.950,-132.611
1747597949.34,-0.101,0.020,0.039,-0.035,-0.002,-0.030,-83.254,-144.140,-132.782
1747597949.36,-0.119,0.013,0.050,-0.060,0.113,-0.037,-83.193,-144.057,-132.950
1747597949.38,-0.064,-0.032,0.022,-0.078,0.151,-0.008,-83.110,-144.086,-133.287
1747597949.40,0.071,-0.036,0.020,-0.119,0.104,-0.004,-83.010,-144.459,-133.971
1747597949.42,0.092,0.004,0.025,-0.069,-0.025,-0.050,-82.888,-144.720,-134.434
1747597949.44,0.025,0.032,-0.005,0.028,-0.037,-0.063,-82.818,-144.372,-134.173
1747597949.46,-0.008,0.008,0.010,0.076,-0.008,-0.022,-82.844,-143.724,-133.811
1747597949.48,-0.068,-0.021,-0.019,0.006,-0.015,-0.047,-82.859,-143.279,-133.477
1747597949.50,-0.044,-0.016,-0.012,-0.027,0.084,-0.030,-82.819,-143.081,-133.449
1747597949.52,0.000,0.005,0.013,-0.026,0.130,0.017,-82.797,-143.092,-133.741
1747597949.54,0.050,0.002,0.004,-0.014,0.113,0.023,-82.796,-143.238,-134.172
1747597949.56,0.067,0.004,0.017,0.005,0.063,-0.009,-82.790,-143.172,-134.347
1747597949.58,0.034,-0.006,0.002,0.115,0.046,-0.031,-82.823,-142.540,-133.897
1747597949.60,-0.020,-0.003,0.018,0.174,0.019,-0.013,-82.942,-141.452,-132.991
1747597949.62,-0.056,-0.008,0.018,0.186,0.030,-0.001,-83.099,-140.435,-132.113
1747597949.64,-0.032,-0.026,0.029,0.160,0.064,0.031,-83.271,-139.546,-131.401
1747597949.66,-0.015,-0.003,0.045,0.186,0.024,0.003,-83.436,-138.689,-130.733
1747597949.68,0.008,0.019,0.036,0.268,0.038,-0.011,-83.611,-137.155,-129.359
1747597949.70,0.009,0.019,0.050,0.346,0.015,-0.017,-83.835,-134.741,-127.095
1747597949.72,0.007,-0.010,0.048,0.484,-0.065,-0.004,-84.119,-131.392,-123.834
1747597949.74,0.007,-0.008,0.041,0.548,-0.158,0.034,-84.462,-127.452,-119.854
1747597949.76,-0.017,0.005,0.071,0.590,0.004,0.021,-84.863,-122.020,-114.402
1747597949.78,-0.036,-0.035,0.107,0.649,0.077,0.025,-85.220,-114.975,-107.529
1747597949.80,-0.062,-0.035,0.052,0.757,-0.052,-0.013,-85.510,-105.745,-98.390
1747597949.82,-0.033,0.017,0.032,0.944,-0.022,-0.032,-85.636,-93.535,-86.216
1747597949.84,-0.016,0.062,0.065,1.042,-0.125,0.008,-85.550,-78.467,-71.168
1747597949.86,-0.090,0.049,0.082,0.961,-0.279,-0.067,-85.156,-65.466,-57.965
1747597949.88,0.044,-0.088,0.098,0.903,-0.070,0.072,-84.614,-55.329,-47.653
1747597949.90,0.123,-0.105,0.055,0.987,-0.051,0.115,-84.070,-46.468,-38.711
1747597949.92,0.075,0.045,-0.078,1.207,-0.347,-0.028,-83.140,-38.566,-30.626
1747597949.94,0.029,0.069,0.036,1.099,-0.198,-0.061,-82.029,-33.275,-25.052
1747597949.96,-0.092,-0.033,0.106,1.000,-0.081,-0.013,-80.982,-29.516,-21.220
1747597949.98,-0.153,-0.045,0.052,0.958,-0.029,0.085,-80.027,-26.338,-17.980
1747597950.00,-0.073,-0.016,0.017,1.036,0.096,0.150,-79.049,-23.019,-14.680
1747597950.02,-0.022,0.045,0.016,1.040,0.258,0.093,-77.986,-19.977,-11.832
1747597950.04,-0.050,-0.002,0.032,1.019,0.183,0.075,-76.900,-17.670,-9.795
1747597950.06,-0.018,-0.062,0.032,0.973,0.214,0.214,-75.862,-15.505,-7.817
1747597950.08,0.040,-0.046,-0.000,1.051,0.116,0.266,-74.811,-13.139,-5.648
1747597950.10,0.074,-0.018,-0.025,1.087,0.195,0.177,-73.678,-11.152,-3.789
1747597950.12,-0.003,-0.013,-0.013,1.275,0.067,-0.027,-72.379,-9.923,-2.719
1747597950.14,-0.084,-0.037,-0.089,1.120,0.253,-0.048,-70.984,-9.255,-2.204
1747597950.16,-0.110,-0.095,-0.017,0.924,0.401,0.153,-69.844,-8.250,-1.591
1747597950.18,0.038,-0.052,-0.043,0.891,0.245,0.365,-68.861,-6.713,-0.379
1747597950.20,0.271,-0.018,0.035,1.027,0.298,0.358,-67.839,-5.015,1.096
1747597950.22,0.221,0.023,-0.038,1.099,0.055,0.122,-66.649,-3.940,2.014
1747597950.24,-0.006,0.037,-0.084,1.198,-0.096,-0.052,-65.314,-3.680,2.323
1747597950.26,-0.178,-0.031,-0.030,1.089,0.107,-0.069,-63.988,-3.714,2.308
1747597950.28,-0.104,-0.070,-0.012,1.036,0.033,0.084,-62.787,-3.439,2.469
1747597950.30,0.121,-0.078,-0.043,1.051,-0.014,0.244,-61.620,-2.931,3.070
1747597950.32,0.289,-0.046,0.003,1.125,0.163,0.086,-60.383,-2.380,3.610
1747597950.34,0.132,0.026,0.051,1.048,0.169,-0.042,-59.116,-2.045,3.738
1747597950.36,-0.062,0.023,0.001,0.928,-0.002,0.080,-58.002,-1.881,3.826
1747597950.38,0.000,-0.007,-0.024,0.921,-0.180,0.201,-56.954,-1.679,4.240
1747597950.40,0.068,0.020,0.027,1.104,-0.263,-0.067,-55.826,-1.677,4.559
1747597950.42,-0.085,0.080,-0.001,1.142,-0.193,-0.455,-54.506,-2.387,4.089
1747597950.44,-0.210,-0.004,0.025,1.098,0.135,-0.379,-53.189,-3.052,3.352
1747597950.46,-0.118,-0.053,0.090,0.851,0.489,-0.034,-52.075,-2.881,3.093
1747597950.48,0.041,-0.001,0.006,0.864,0.238,0.164,-51.117,-2.277,3.343
1747597950.50,0.139,0.074,0.039,1.036,0.103,-0.007,-50.057,-1.872,3.630
1747597950.52,0.014,0.094,0.004,1.187,0.001,-0.315,-48.778,-2.020,3.445
1747597950.54,-0.075,-0.034,0.073,1.153,0.136,-0.422,-47.385,-2.382,2.911
1747597950.56,0.010,-0.163,-0.092,0.878,0.056,-0.129,-46.233,-2.575,2.521
1747597950.58,0.230,-0.108,0.000,0.854,-0.083,0.123,-45.266,-2.505,2.701
1747597950.60,0.265,0.069,0.022,1.067,-0.304,0.061,-44.188,-2.565,3.012
1747597950.62,0.065,0.110,0.002,1.172,-0.373,-0.036,-42.896,-2.944,3.214
1747597950.64,-0.049,0.024,0.003,1.087,-0.086,-0.152,-41.582,-3.213,3.252
1747597950.66,-0.110,-0.123,-0.033,0.933,0.003,-0.102,-40.425,-3.345,3.217
1747597950.68,0.040,-0.129,0.014,0.917,-0.045,-0.013,-39.385,-3.355,3.322
1747597950.70,0.056,0.032,0.016,1.004,-0.117,-0.027,-38.294,-3.405,3.491
1747597950.72,-0.081,0.149,0.046,1.086,-0.125,-0.197,-37.084,-3.585,3.535
1747597950.74,-0.112,0.137,0.020,1.033,-0.087,-0.300,-35.845,-3.864,3.349
1747597950.76,0.026,0.023,-0.000,0.871,-0.068,-0.134,-34.752,-4.080,3.225
1747597950.78,0.125,0.002,-0.010,0.884,-0.171,0.071,-33.757,-4.169,3.396
1747597950.80,0.063,0.095,0.009,0.916,-0.278,0.062,-32.746,-4.317,3.743
1747597950.82,-0.041,0.136,0.025,0.976,-0.261,-0.107,-31.669,-4.630,3.952
1747597950.84,0.024,0.025,0.063,0.961,-0.100,-0.277,-30.529,-4.891,3.938
1747597950.86,0.016,-0.102,-0.016,0.910,-0.142,-0.197,-29.435,-5.134,3.880
1747597950.88,-0.039,-0.071,-0.036,0.915,-0.159,-0.046,-28.395,-5.365,3.988
1747597950.90,-0.047,0.079,-0.011,0.909,-0.062,-0.111,-27.367,-5.463,4.181
1747597950.92,-0.076,0.117,0.013,0.971,-0.117,-0.244,-26.278,-5.614,4.240
1747597950.94,-0.034,0.009,0.077,1.028,-0.035,-0.329,-25.100,-5.810,4.156
1747597950.96,-0.017,-0.052,0.033,0.998,-0.051,-0.379,-23.900,-5.987,3.980
1747597950.97,0.025,-0.037,-0.029,0.915,-0.006,-0.311,-22.784,-6.147,3.827
1747597951.00,0.043,-0.004,0.008,0.937,-0.061,-0.216,-21.707,-6.243,3.787
1747597951.02,0.050,0.068,0.018,1.027,-0.092,-0.294,-20.571,-6.403,3.764
1747597951.04,0.022,0.055,0.070,1.081,0.001,-0.367,-19.331,-6.548,3.656
1747597951.06,-0.050,-0.013,0.037,1.062,0.059,-0.342,-18.048,-6.606,3.528
1747597951.08,-0.040,-0.069,-0.030,1.048,0.048,-0.254,-16.815,-6.614,3.476
1747597951.10,0.086,-0.052,-0.019,1.045,0.040,-0.326,-15.601,-6.588,3.460
1747597951.11,0.157,-0.050,-0.045,1.091,-0.134,-0.295,-14.358,-6.711,3.366
1747597951.13,0.099,-0.080,0.033,1.075,-0.019,-0.209,-13.079,-6.845,3.374
1747597951.15,-0.018,-0.041,0.046,1.021,0.048,-0.098,-11.865,-6.827,3.479
1747597951.17,0.008,0.056,-0.046,0.987,-0.019,-0.070,-10.720,-6.780,3.665
1747597951.19,0.079,0.076,-0.031,1.007,-0.157,-0.111,-9.583,-6.877,3.847
1747597951.21,0.040,0.009,-0.013,1.055,-0.121,-0.133,-8.397,-7.059,3.994
1747597951.23,-0.057,-0.060,-0.011,1.022,0.102,-0.086,-7.204,-7.075,4.165
1747597951.25,-0.063,0.051,0.077,1.095,0.210,-0.086,-6.003,-6.862,4.383
1747597951.27,-0.123,0.203,0.029,1.126,0.027,-0.075,-4.730,-6.701,4.604
1747597951.29,-0.158,0.093,-0.120,1.141,-0.145,-0.159,-3.420,-6.789,4.794
1747597951.31,-0.042,-0.098,-0.060,1.083,-0.162,-0.324,-2.124,-6.988,4.824
1747597951.33,-0.023,-0.116,0.037,1.052,-0.107,-0.433,-0.859,-7.138,4.653
1747597951.35,-0.049,-0.025,0.008,1.121,0.114,-0.360,0.432,-7.154,4.504
1747597951.37,0.025,0.085,-0.017,1.076,0.253,-0.283,1.734,-6.926,4.416
1747597951.39,0.104,0.048,-0.096,1.040,0.281,-0.188,2.963,-6.589,4.393
1747597951.41,0.097,0.012,-0.087,1.007,0.110,-0.005,4.130,-6.354,4.535
1747597951.43,0.013,0.053,-0.028,0.967,-0.054,0.022,5.261,-6.348,4.771
1747597951.45,-0.034,0.036,-0.001,0.953,0.016,-0.033,6.344,-6.397,4.986
1747597951.47,-0.018,0.029,-0.063,0.917,-0.043,-0.050,7.397,-6.411,5.154
1747597951.49,-0.047,0.045,-0.045,0.827,-0.122,-0.035,8.409,-6.495,5.294
1747597951.51,-0.067,0.054,-0.023,0.848,-0.065,-0.187,9.378,-6.616,5.375
1747597951.53,-0.055,0.007,-0.028,0.815,0.039,-0.261,10.346,-6.605,5.420
1747597951.55,-0.081,-0.034,-0.055,0.748,0.136,-0.271,11.272,-6.450,5.309
1747597951.57,-0.045,-0.034,-0.042,0.674,0.143,-0.189,12.114,-6.240,5.191
1747597951.59,0.035,0.040,-0.038,0.686,0.020,-0.096,12.875,-6.123,5.216
1747597951.61,0.148,0.108,-0.048,0.777,-0.200,0.029,13.713,-6.256,5.359
1747597951.63,0.008,0.027,0.002,0.821,-0.036,0.150,14.593,-6.493,5.645
1747597951.65,-0.092,-0.070,0.010,0.729,0.174,0.229,15.464,-6.464,6.070
1747597951.67,0.039,-0.112,-0.023,0.677,0.193,0.115,16.243,-6.307,6.472
1747597951.69,0.128,-0.003,-0.087,0.624,-0.167,0.059,16.976,-6.335,6.754
1747597951.71,0.002,-0.050,-0.101,0.535,-0.216,0.072,17.632,-6.633,6.974
1747597951.73,-0.172,-0.053,-0.045,0.432,0.082,0.064,18.169,-6.772,7.229
1747597951.75,-0.051,-0.045,-0.036,0.367,0.137,-0.062,18.614,-6.634,7.376
1747597951.77,0.060,-0.074,-0.066,0.252,0.058,-0.113,18.992,-6.485,7.373
1747597951.79,0.027,-0.061,-0.130,0.152,0.013,-0.015,19.229,-6.441,7.397
1747597951.81,-0.053,-0.052,-0.146,0.027,0.203,0.024,19.336,-6.345,7.524
1747597951.83,0.008,-0.097,-0.143,-0.199,0.251,0.075,19.233,-6.090,7.662
1747597951.85,0.022,-0.104,-0.121,-0.423,0.289,0.058,18.875,-5.782,7.793
1747597951.87,0.034,-0.070,-0.209,-0.701,0.162,0.141,18.227,-5.542,7.923
1747597951.89,0.005,-0.068,-0.211,-0.858,0.265,0.223,17.311,-5.359,8.156
1747597951.91,-0.035,-0.079,-0.195,-1.076,0.382,0.165,16.196,-5.009,8.367
1747597951.93,-0.024,-0.104,-0.123,-1.219,0.366,0.099,14.871,-4.587,8.502
1747597951.95,0.020,-0.047,-0.173,-1.298,0.134,0.056,13.427,-4.285,8.571
1747597951.97,0.004,-0.029,-0.123,-1.374,0.137,0.027,11.907,-4.138,8.616
1747597951.99,-0.092,-0.037,-0.124,-1.456,0.114,0.025,10.282,-3.974,8.602
1747597952.01,-0.071,-0.052,-0.166,-1.558,0.003,0.203,8.557,-3.888,8.725
1747597952.03,0.078,-0.049,-0.114,-1.598,-0.088,0.257,6.743,-3.972,8.996
1747597952.05,0.150,-0.081,-0.038,-1.624,-0.132,0.236,4.883,-4.116,9.222
1747597952.07,0.088,-0.097,-0.032,-1.649,-0.133,0.286,2.994,-4.281,9.450
1747597952.09,0.031,-0.033,-0.064,-1.661,-0.172,0.354,1.093,-4.457,9.755
1747597952.11,-0.002,-0.005,-0.031,-1.684,-0.173,0.369,-0.852,-4.668,10.062
1747597952.13,-0.006,-0.035,0.026,-1.655,-0.085,0.315,-2.787,-4.815,10.346
1747597952.15,-0.031,-0.086,0.025,-1.646,-0.025,0.228,-4.699,-4.846,10.550
1747597952.17,-0.067,-0.130,0.014,-1.640,-0.057,0.168,-6.582,-4.893,10.667
1747597952.19,-0.005,-0.089,0.038,-1.649,-0.117,0.228,-8.480,-4.978,10.788
1747597952.21,0.113,-0.002,0.018,-1.577,-0.113,0.289,-10.339,-5.102,10.975
1747597952.23,0.102,0.048,0.032,-1.554,-0.068,0.213,-12.139,-5.170,11.167
1747597952.25,0.037,-0.010,0.020,-1.556,-0.095,0.233,-13.930,-5.237,11.312
1747597952.27,0.037,-0.108,-0.028,-1.559,-0.154,0.352,-15.736,-5.360,11.549
1747597952.29,0.056,-0.143,0.008,-1.554,-0.084,0.270,-17.541,-5.429,11.855
1747597952.31,-0.037,-0.138,0.037,-1.560,-0.063,0.134,-19.324,-5.474,12.010
1747597952.33,-0.131,-0.087,-0.027,-1.611,-0.201,0.134,-21.144,-5.644,12.068
1747597952.35,-0.099,-0.030,-0.048,-1.590,-0.146,0.194,-22.982,-5.848,12.185
1747597952.37,0.029,-0.021,0.067,-1.577,-0.097,0.215,-24.817,-5.968,12.341
1747597952.39,0.105,-0.061,0.136,-1.583,0.047,0.131,-26.606,-5.968,12.431
1747597952.41,0.051,-0.125,-0.044,-1.544,0.004,0.186,-28.391,-5.973,12.435
1747597952.43,0.025,-0.136,0.003,-1.606,0.026,0.402,-30.216,-5.879,12.643
1747597952.45,0.039,-0.034,0.053,-1.650,-0.011,0.546,-32.126,-5.632,13.093
1747597952.47,0.100,0.118,-0.001,-1.605,-0.095,0.541,-34.043,-5.402,13.675
1747597952.49,0.135,0.178,-0.025,-1.540,-0.244,0.311,-35.877,-5.342,14.134
1747597952.51,0.052,0.066,0.029,-1.437,-0.278,0.192,-37.583,-5.595,14.303
1747597952.53,-0.035,-0.081,0.011,-1.567,-0.306,0.185,-39.307,-5.871,14.385
1747597952.55,-0.124,-0.155,-0.034,-1.620,-0.226,0.432,-41.146,-6.119,14.603
1747597952.57,-0.039,-0.076,0.044,-1.605,0.187,0.507,-43.042,-5.783,15.069
1747597952.59,-0.070,0.041,-0.047,-1.637,0.149,0.347,-44.942,-5.237,15.506
1747597952.61,-0.074,0.045,-0.010,-1.704,0.125,0.237,-46.863,-4.948,15.682
1747597952.63,0.006,-0.057,0.034,-1.698,0.190,0.173,-48.831,-4.687,15.773
1747597952.65,0.096,-0.090,0.036,-1.689,0.189,0.098,-50.775,-4.463,15.745
1747597952.67,0.130,-0.056,0.008,-1.620,0.032,0.165,-52.670,-4.333,15.696
1747597952.69,0.070,0.020,-0.013,-1.580,-0.070,0.112,-54.516,-4.315,15.686
1747597952.71,-0.028,0.054,-0.034,-1.520,-0.078,-0.057,-56.262,-4.561,15.421
1747597952.73,-0.097,0.025,-0.018,-1.564,-0.099,-0.016,-58.020,-4.971,14.973
1747597952.75,-0.039,-0.062,0.064,-1.561,0.105,0.063,-59.797,-5.202,14.632
1747597952.77,0.083,-0.126,0.025,-1.558,0.158,0.101,-61.574,-5.121,14.421
1747597952.79,0.105,-0.085,-0.005,-1.616,0.065,0.040,-63.398,-5.137,14.179
1747597952.81,0.066,0.050,0.063,-1.542,-0.061,0.028,-65.195,-5.369,13.816
1747597952.83,-0.021,0.112,-0.002,-1.479,-0.130,-0.104,-66.921,-5.952,13.212
1747597952.85,-0.094,0.001,-0.028,-1.373,-0.025,-0.219,-68.500,-6.951,12.104
1747597952.87,-0.103,-0.124,-0.021,-1.443,0.061,-0.179,-70.067,-8.201,10.649
1747597952.89,-0.017,-0.160,0.002,-1.450,0.148,-0.029,-71.682,-9.093,9.444
1747597952.91,0.093,-0.057,0.015,-1.458,0.346,0.020,-73.318,-9.665,8.428
1747597952.93,0.116,0.042,0.046,-1.426,0.308,-0.055,-74.956,-10.296,7.236
1747597952.95,0.078,0.020,0.009,-1.355,0.253,-0.008,-76.494,-11.319,5.702
1747597952.97,0.003,-0.002,-0.014,-1.304,0.116,0.020,-78.004,-12.400,4.235
1747597952.99,-0.071,-0.037,-0.035,-1.214,0.034,-0.146,-79.369,-14.247,2.098
1747597953.01,-0.059,-0.079,-0.005,-1.290,0.038,-0.155,-80.701,-17.462,-1.362
1747597953.03,0.054,-0.058,0.022,-1.136,0.119,-0.033,-81.989,-21.136,-5.339
1747597953.05,0.077,0.000,-0.010,-1.097,0.002,0.040,-83.142,-24.548,-9.034
1747597953.07,0.011,0.009,0.028,-1.201,0.003,-0.074,-84.323,-30.377,-15.079
1747597953.09,-0.089,-0.040,0.007,-1.084,0.046,-0.072,-85.351,-39.520,-24.433
1747597953.11,-0.104,-0.038,-0.048,-0.949,0.161,-0.069,-86.098,-51.100,-36.381
1747597953.13,-0.039,-0.014,-0.062,-0.997,0.020,-0.074,-86.616,-66.412,-52.059
1747597953.15,0.060,0.003,-0.031,-0.954,-0.049,-0.057,-86.807,-86.083,-71.931
1747597953.17,0.094,0.037,-0.022,-0.666,-0.159,-0.096,-86.660,-102.558,-88.517
1747597953.19,0.005,0.016,-0.111,-0.501,-0.238,-0.128,-86.340,-112.129,-98.048
1747597953.21,-0.060,-0.056,-0.057,-0.487,-0.228,-0.124,-85.961,-119.098,-104.934
1747597953.23,-0.078,-0.057,-0.101,-0.370,0.079,-0.137,-85.566,-124.032,-109.943
1747597953.25,-0.032,0.039,-0.131,-0.149,0.450,-0.043,-85.307,-125.921,-112.352
1747597953.27,-0.056,0.061,-0.026,-0.117,0.350,0.058,-85.256,-126.625,-113.746
1747597953.29,-0.107,-0.056,0.075,-0.241,0.066,-0.001,-85.149,-128.788,-116.313
1747597953.31,0.074,-0.080,0.024,-0.207,0.073,-0.030,-84.966,-130.935,-118.744
1747597953.33,0.122,0.041,-0.001,-0.042,-0.047,-0.130,-84.802,-131.560,-119.596
1747597953.35,-0.004,0.120,0.026,0.148,-0.287,-0.202,-84.688,-129.756,-117.755
1747597953.37,-0.078,0.009,0.041,0.089,-0.263,-0.147,-84.630,-127.379,-115.206
1747597953.39,-0.128,-0.050,0.102,-0.005,-0.032,-0.065,-84.559,-126.440,-114.269
1747597953.41,-0.167,-0.041,0.137,-0.083,0.313,-0.022,-84.490,-126.413,-114.552
1747597953.43,-0.112,-0.037,0.198,-0.224,0.580,0.034,-84.399,-127.277,-116.163
1747597953.45,-0.049,-0.031,0.134,-0.294,0.425,0.061,-84.248,-129.489,-119.152
1747597953.47,0.070,0.001,0.042,-0.293,0.284,0.062,-84.083,-132.063,-122.321
1747597953.49,0.122,0.008,0.032,-0.229,0.138,0.018,-83.915,-134.252,-124.936
1747597953.51,0.086,-0.004,-0.013,-0.149,-0.110,-0.029,-83.752,-135.621,-126.499
1747597953.53,0.044,-0.003,-0.043,-0.030,-0.249,-0.038,-83.653,-136.172,-127.002
1747597953.55,0.018,0.013,-0.029,0.065,-0.330,-0.010,-83.646,-136.177,-126.833
1747597953.57,0.008,0.019,-0.021,0.111,-0.197,0.058,-83.740,-135.978,-126.470
1747597953.59,-0.010,-0.010,-0.007,0.065,-0.015,0.087,-83.880,-136.000,-126.542
1747597953.61,-0.044,-0.022,-0.027,0.049,0.151,0.061,-83.980,-136.172,-127.064
1747597953.63,-0.021,0.010,0.007,0.108,0.282,0.024,-84.082,-135.646,-126.954
1747597953.65,-0.016,0.039,-0.015,0.193,0.214,0.017,-84.224,-134.269,-126.008
1747597953.67,-0.021,0.029,0.019,0.252,0.125,0.045,-84.423,-132.412,-124.481
1747597953.69,-0.019,-0.014,0.031,0.269,0.074,0.071,-84.641,-129.933,-122.249
1747597953.71,0.025,-0.028,0.055,0.235,0.106,0.106,-84.868,-128.002,-120.552
1747597953.73,0.063,-0.026,0.104,0.259,0.008,0.124,-85.127,-126.364,-119.140
1747597953.75,0.068,-0.012,0.064,0.344,-0.115,0.063,-85.410,-123.833,-116.672
1747597953.77,0.050,0.023,0.046,0.404,-0.205,-0.011,-85.654,-119.571,-112.353
1747597953.79,0.048,0.018,0.005,0.466,-0.420,-0.044,-85.850,-113.562,-106.122
1747597953.81,0.053,-0.004,0.026,0.531,-0.514,0.006,-86.022,-106.608,-98.717
1747597953.83,0.042,-0.000,0.021,0.559,-0.496,0.038,-86.181,-98.282,-89.885
1747597953.85,-0.019,-0.012,0.009,0.579,-0.353,0.048,-86.276,-88.993,-80.195
1747597953.87,-0.089,-0.007,0.049,0.600,-0.241,-0.010,-86.227,-79.082,-70.026
1747597953.89,-0.084,0.009,0.018,0.698,-0.105,-0.037,-85.994,-69.071,-59.866
1747597953.91,-0.015,0.017,0.030,0.798,0.119,-0.013,-85.581,-58.645,-49.546
1747597953.93,-0.004,-0.001,0.068,0.859,-0.008,0.041,-85.027,-49.110,-40.169
1747597953.95,-0.000,-0.037,0.023,0.865,-0.136,0.092,-84.390,-41.084,-32.088
1747597953.97,0.027,-0.037,0.030,0.871,0.092,0.082,-83.663,-34.480,-25.457
1747597953.99,0.015,-0.004,0.027,0.928,-0.021,0.000,-82.824,-29.494,-20.574
1747597954.01,-0.002,0.015,-0.025,1.080,-0.097,-0.061,-81.795,-25.931,-16.972
1747597954.03,0.036,0.001,-0.002,1.059,-0.009,-0.022,-80.638,-22.977,-13.987
1747597954.05,0.019,-0.053,0.035,1.110,0.005,-0.006,-79.494,-20.427,-11.483
1747597954.06,-0.094,-0.065,-0.005,1.119,0.132,0.046,-78.276,-18.132,-9.249
1747597954.09,-0.076,0.007,0.008,1.068,0.434,0.054,-77.127,-15.820,-7.310
1747597954.10,-0.036,0.086,-0.057,1.151,0.477,-0.027,-75.883,-13.893,-5.917
1747597954.12,0.021,0.004,0.118,1.038,0.527,-0.049,-74.675,-12.377,-5.060
1747597954.14,-0.094,-0.081,-0.048,1.011,0.182,0.093,-73.498,-11.149,-4.220
1747597954.16,0.071,-0.040,-0.001,0.947,0.370,0.280,-72.469,-9.444,-2.819
1747597954.18,0.195,0.013,-0.007,0.932,0.241,0.170,-71.427,-7.723,-1.450
1747597954.20,0.148,-0.008,0.019,1.113,0.028,0.004,-70.328,-6.904,-0.766
1747597954.22,0.010,-0.049,-0.046,1.211,-0.160,-0.104,-68.955,-6.719,-0.485
1747597954.24,-0.063,-0.067,-0.046,1.073,-0.053,-0.145,-67.645,-6.855,-0.523
1747597954.26,-0.089,-0.043,-0.079,0.926,0.050,-0.010,-66.506,-6.747,-0.418
1747597954.28,0.001,-0.029,0.004,0.957,0.237,0.044,-65.458,-6.244,-0.072
1747597954.30,0.063,-0.015,0.026,1.119,0.206,0.030,-64.278,-5.620,0.302
1747597954.32,0.013,0.047,0.045,1.085,0.130,-0.030,-63.017,-5.162,0.573
1747597954.34,-0.097,0.029,-0.007,1.026,0.069,-0.094,-61.804,-5.015,0.596
1747597954.36,-0.055,-0.064,0.014,0.993,0.217,-0.024,-60.634,-4.790,0.668
1747597954.38,0.012,-0.044,-0.022,0.970,0.149,-0.044,-59.534,-4.462,0.776
1747597954.40,0.045,-0.006,-0.042,1.014,0.028,-0.089,-58.395,-4.360,0.792
1747597954.42,0.077,0.007,0.023,1.009,0.143,-0.127,-57.219,-4.331,0.740
1747597954.44,-0.001,0.015,0.028,1.009,0.129,-0.193,-56.055,-4.351,0.535
1747597954.46,-0.027,-0.013,0.036,0.964,0.173,-0.074,-54.929,-4.254,0.421
1747597954.48,-0.043,-0.069,-0.064,0.965,0.057,0.038,-53.827,-4.095,0.499
1747597954.50,0.067,-0.024,0.038,1.030,0.216,0.006,-52.703,-3.777,0.713
1747597954.52,0.026,0.008,0.039,1.038,0.114,-0.099,-51.499,-3.534,0.759
1747597954.54,0.006,0.000,0.007,0.958,0.069,-0.013,-50.370,-3.458,0.756
1747597954.56,0.031,0.044,0.007,0.993,0.065,-0.090,-49.250,-3.343,0.799
1747597954.58,0.009,0.073,0.012,1.022,-0.047,-0.144,-48.089,-3.433,0.696
1747597954.60,-0.005,0.054,0.009,1.023,-0.057,-0.130,-46.924,-3.580,0.587
1747597954.62,-0.054,0.012,0.055,0.996,0.070,-0.170,-45.756,-3.676,0.505
1747597954.64,-0.065,-0.008,0.006,0.981,0.064,-0.200,-44.614,-3.734,0.330
1747597954.66,-0.063,0.021,0.038,0.980,0.018,-0.124,-43.495,-3.822,0.205
1747597954.68,0.067,0.058,0.059,1.016,0.048,-0.142,-42.340,-3.832,0.156
1747597954.70,0.136,0.065,0.019,1.027,0.039,-0.150,-41.169,-3.859,0.103
1747597954.72,0.077,0.043,0.009,1.010,-0.013,-0.162,-39.997,-3.918,0.027
1747597954.74,-0.019,-0.006,-0.051,0.996,-0.167,-0.109,-38.847,-4.110,-0.019
1747597954.76,-0.001,-0.036,0.034,1.034,-0.100,-0.111,-37.688,-4.299,0.004
1747597954.78,0.014,0.029,0.065,1.048,-0.055,-0.209,-36.485,-4.432,-0.041
1747597954.80,0.096,0.048,-0.002,1.013,-0.163,-0.231,-35.298,-4.673,-0.176
1747597954.82,0.080,0.047,-0.027,0.964,-0.175,-0.106,-34.155,-4.959,-0.221
1747597954.84,0.110,0.067,0.001,0.984,-0.254,0.079,-33.048,-5.150,-0.042
1747597954.86,0.101,0.097,0.020,1.021,-0.216,0.144,-31.925,-5.266,0.348
1747597954.88,0.043,0.043,0.043,1.082,-0.236,0.023,-30.738,-5.380,0.700
1747597954.90,0.021,-0.082,0.021,1.072,-0.261,-0.061,-29.495,-5.613,0.928
1747597954.92,0.065,-0.153,-0.047,1.006,-0.229,-0.082,-28.317,-5.880,1.095
1747597954.94,0.024,-0.138,-0.012,0.998,-0.156,0.049,-27.177,-6.067,1.334
1747597954.96,-0.077,0.008,0.048,1.059,-0.154,0.084,-26.030,-6.149,1.688
1747597954.98,-0.118,0.093,0.083,1.160,-0.033,-0.009,-24.772,-6.168,2.034
1747597955.00,-0.109,0.038,0.014,1.158,0.009,-0.179,-23.442,-6.148,2.232
1747597955.02,-0.118,-0.040,-0.003,1.137,-0.063,-0.237,-22.105,-6.226,2.283
1747597955.04,-0.135,-0.050,0.018,1.139,-0.149,-0.213,-20.791,-6.393,2.301
1747597955.06,-0.020,0.018,0.052,1.163,-0.100,-0.293,-19.463,-6.593,2.330
1747597955.08,0.119,0.043,0.104,1.245,-0.109,-0.396,-18.054,-6.761,2.238
1747597955.10,0.018,0.005,0.009,1.232,-0.208,-0.397,-16.567,-7.052,2.084
1747597955.12,-0.105,-0.094,-0.057,1.194,0.040,-0.247,-15.154,-7.232,2.021
1747597955.14,-0.077,-0.085,-0.018,1.096,0.235,-0.081,-13.840,-7.036,2.133
1747597955.16,0.098,0.033,0.007,1.118,0.072,-0.066,-12.595,-6.819,2.400
1747597955.18,0.261,0.100,0.043,1.242,-0.182,-0.178,-11.236,-6.890,2.550
1747597955.20,0.129,0.031,0.033,1.263,-0.225,-0.279,-9.774,-7.161,2.624
1747597955.22,-0.068,-0.136,-0.081,1.182,-0.035,-0.074,-8.349,-7.353,2.756
1747597955.24,-0.063,-0.126,-0.040,1.111,0.284,0.043,-7.060,-7.157,3.088
1747597955.26,0.069,0.161,0.029,1.142,0.183,-0.048,-5.791,-6.836,3.412
1747597955.28,0.074,0.223,-0.030,1.169,-0.130,-0.148,-4.464,-6.807,3.624
1747597955.30,-0.005,-0.003,-0.089,1.122,-0.190,-0.205,-3.136,-7.014,3.741
1747597955.32,-0.098,-0.133,-0.040,1.200,-0.113,-0.248,-1.807,-7.202,3.768
1747597955.34,-0.112,0.029,0.040,1.246,-0.025,-0.220,-0.369,-7.272,3.834
1747597955.36,0.006,0.221,-0.001,1.264,-0.184,-0.250,1.086,-7.366,3.914
1747597955.38,-0.015,0.128,-0.042,1.273,-0.304,-0.337,2.568,-7.658,3.921
1747597955.40,-0.078,0.009,-0.068,1.193,-0.189,-0.395,4.034,-7.941,3.846
1747597955.42,0.006,-0.019,-0.075,1.120,-0.106,-0.453,5.395,-8.058,3.677
1747597955.44,0.053,0.103,-0.052,1.129,-0.157,-0.458,6.743,-8.158,3.475
1747597955.46,-0.028,0.172,-0.044,1.117,-0.278,-0.482,8.090,-8.368,3.247
1747597955.48,-0.157,0.056,-0.064,1.017,-0.182,-0.480,9.388,-8.603,3.002
1747597955.50,-0.092,-0.014,-0.045,0.947,-0.050,-0.608,10.577,-8.634,2.695
1747597955.52,0.127,-0.054,-0.107,0.868,-0.155,-0.565,11.689,-8.626,2.300
1747597955.54,0.145,-0.072,-0.107,0.802,-0.444,-0.426,12.704,-8.900,1.998
1747597955.56,-0.015,0.054,-0.028,0.814,-0.531,-0.363,13.684,-9.418,1.816
1747597955.58,-0.098,0.047,-0.020,0.800,-0.335,-0.393,14.668,-9.864,1.628
1747597955.60,0.034,-0.096,-0.048,0.701,-0.260,-0.339,15.584,-10.083,1.435
1747597955.62,0.115,-0.127,-0.121,0.639,-0.549,-0.219,16.388,-10.511,1.340
1747597955.64,0.066,-0.030,-0.074,0.573,-0.569,-0.211,17.100,-11.146,1.328
1747597955.66,-0.049,0.013,-0.014,0.505,-0.365,-0.175,17.747,-11.686,1.315
1747597955.68,-0.053,-0.025,0.019,0.448,-0.053,-0.224,18.333,-11.852,1.282
1747597955.70,-0.006,-0.066,-0.054,0.396,-0.084,-0.236,18.845,-11.872,1.239
1747597955.72,0.071,-0.019,-0.048,0.367,-0.168,-0.239,19.328,-11.951,1.264
1747597955.74,0.042,-0.015,-0.065,0.301,-0.222,-0.198,19.753,-12.130,1.205
1747597955.76,0.008,-0.025,-0.033,0.308,-0.053,-0.105,20.127,-12.268,1.219
1747597955.78,0.004,-0.030,-0.026,0.273,0.019,-0.064,20.475,-12.262,1.304
1747597955.80,0.048,-0.041,-0.057,0.238,-0.001,-0.047,20.774,-12.250,1.441
1747597955.82,0.018,-0.037,-0.060,0.198,-0.030,-0.036,21.021,-12.282,1.559
1747597955.84,0.019,-0.040,-0.062,0.124,-0.027,0.018,21.207,-12.320,1.699
1747597955.86,0.012,-0.040,-0.100,0.029,-0.013,0.070,21.287,-12.368,1.861
1747597955.88,-0.015,-0.100,-0.117,-0.094,-0.010,0.073,21.239,-12.428,2.017
1747597955.90,0.050,-0.122,-0.048,-0.292,0.252,-0.038,21.019,-12.283,2.065
1747597955.92,0.084,-0.130,-0.115,-0.412,0.363,0.122,20.629,-11.881,2.065
1747597955.94,0.011,-0.036,-0.296,-0.536,0.191,0.244,20.035,-11.606,2.253
1747597955.96,-0.053,-0.008,-0.203,-0.685,0.312,0.280,19.304,-11.403,2.501
1747597955.98,-0.070,-0.080,-0.113,-0.900,0.631,0.343,18.343,-10.936,2.764
1747597956.00,0.005,-0.044,-0.082,-1.057,0.721,0.341,17.161,-10.176,3.049
1747597956.02,0.057,-0.040,-0.192,-1.186,0.546,0.362,15.822,-9.512,3.314
1747597956.04,0.003,-0.048,-0.156,-1.286,0.551,0.408,14.350,-8.971,3.629
1747597956.06,-0.076,-0.022,-0.097,-1.404,0.635,0.361,12.760,-8.321,3.926
1747597956.08,-0.051,-0.050,-0.079,-1.472,0.487,0.317,11.072,-7.695,4.163
1747597956.10,0.034,-0.072,-0.109,-1.506,0.187,0.363,9.335,-7.350,4.392
1747597956.12,0.061,-0.055,-0.100,-1.518,0.008,0.445,7.562,-7.279,4.701
1747597956.14,0.021,-0.049,-0.055,-1.532,-0.070,0.480,5.752,-7.357,5.095
1747597956.16,-0.027,-0.037,-0.002,-1.564,-0.091,0.473,3.933,-7.466,5.474
1747597956.18,-0.059,-0.047,-0.039,-1.588,0.017,0.535,2.072,-7.564,5.888
1747597956.20,-0.047,-0.013,-0.021,-1.600,0.072,0.458,0.179,-7.468,6.328
1747597956.22,-0.088,-0.021,0.026,-1.568,-0.086,0.320,-1.672,-7.480,6.636
1747597956.24,-0.060,-0.061,-0.016,-1.582,-0.166,0.295,-3.490,-7.641,6.788
1747597956.26,0.014,-0.095,-0.047,-1.623,-0.195,0.361,-5.365,-7.843,6.969
1747597956.28,0.033,-0.116,0.024,-1.626,-0.035,0.320,-7.264,-7.960,7.173
1747597956.30,-0.040,-0.085,0.054,-1.542,0.049,0.219,-9.075,-7.948,7.286
1747597956.32,-0.047,-0.055,0.013,-1.583,-0.024,0.166,-10.886,-7.924,7.312
1747597956.34,-0.013,-0.086,0.028,-1.627,-0.064,0.208,-12.743,-7.996,7.329
1747597956.36,0.001,-0.088,0.040,-1.578,-0.013,0.114,-14.587,-8.065,7.323
1747597956.38,-0.092,-0.082,0.072,-1.517,0.050,0.016,-16.327,-8.083,7.197
1747597956.40,-0.088,-0.115,-0.017,-1.574,0.079,0.071,-18.084,-8.089,7.033
1747597956.42,0.106,-0.148,0.030,-1.596,0.180,0.242,-19.904,-7.951,7.030
1747597956.44,0.158,-0.116,0.014,-1.564,0.109,0.332,-21.741,-7.759,7.177
1747597956.46,0.131,-0.043,0.016,-1.565,0.061,0.309,-23.568,-7.587,7.360
1747597956.48,0.055,0.011,0.037,-1.556,-0.023,0.316,-25.381,-7.534,7.515
1747597956.50,0.050,0.037,-0.042,-1.545,-0.076,0.468,-27.176,-7.467,7.776
1747597956.52,0.102,-0.004,-0.053,-1.557,-0.101,0.561,-29.022,-7.397,8.208
1747597956.54,0.124,-0.104,0.021,-1.518,-0.177,0.515,-30.843,-7.301,8.703
1747597956.56,0.052,-0.141,-0.010,-1.544,-0.177,0.482,-32.638,-7.320,9.154
1747597956.58,-0.071,-0.074,-0.006,-1.599,-0.069,0.462,-34.491,-7.281,9.474
1747597956.60,-0.117,0.038,0.056,-1.557,0.044,0.554,-36.364,-7.022,9.954
1747597956.62,-0.153,0.128,0.051,-1.504,0.023,0.427,-38.167,-6.690,10.431
1747597956.64,-0.140,0.078,0.014,-1.498,-0.093,0.235,-39.910,-6.588,10.662
1747597956.66,-0.057,-0.065,-0.029,-1.549,-0.191,0.200,-41.662,-6.726,10.699
1747597956.68,0.018,-0.148,-0.001,-1.535,-0.062,0.303,-43.451,-6.843,10.794
1747597956.70,0.106,-0.124,0.016,-1.590,0.089,0.382,-45.251,-6.595,11.055
1747597956.72,0.086,-0.077,0.018,-1.610,0.110,0.403,-47.138,-6.220,11.416
1747597956.74,0.030,-0.014,0.011,-1.619,0.041,0.320,-49.019,-5.912,11.677
1747597956.76,0.012,0.020,-0.003,-1.554,-0.048,0.285,-50.846,-5.720,11.901
1747597956.78,0.020,0.024,-0.035,-1.543,-0.183,0.185,-52.627,-5.730,11.980
1747597956.80,0.072,-0.007,-0.012,-1.567,-0.183,0.225,-54.418,-5.894,11.988
1747597956.82,0.147,-0.012,0.019,-1.568,-0.151,0.279,-56.218,-5.969,12.042
1747597956.84,0.138,-0.017,0.038,-1.540,-0.146,0.272,-58.026,-5.890,12.238
1747597956.86,0.048,0.001,-0.017,-1.542,-0.353,0.147,-59.782,-6.115,12.191
1747597956.88,-0.067,0.006,-0.020,-1.521,-0.324,0.113,-61.550,-6.599,12.035
1747597956.90,-0.098,-0.020,-0.001,-1.508,-0.269,0.032,-63.266,-7.163,11.680
1747597956.92,-0.063,-0.038,0.001,-1.555,-0.199,0.054,-65.001,-7.833,11.157
1747597956.94,0.018,-0.022,0.065,-1.555,0.058,0.102,-66.766,-8.264,10.680
1747597956.96,0.033,0.023,0.074,-1.487,0.100,0.016,-68.525,-8.532,10.169
1747597956.98,-0.011,-0.011,-0.041,-1.466,0.034,0.019,-70.184,-9.146,9.363
1747597957.00,-0.013,-0.058,0.013,-1.445,0.098,-0.004,-71.836,-9.837,8.449
1747597957.02,-0.002,-0.027,0.011,-1.427,0.101,-0.037,-73.436,-10.830,7.165
1747597957.04,0.031,-0.024,0.029,-1.401,0.240,-0.021,-75.014,-11.825,5.819
1747597957.06,0.025,-0.029,0.054,-1.304,0.369,-0.075,-76.529,-13.000,4.083
1747597957.08,-0.032,-0.030,0.022,-1.316,0.215,-0.083,-77.930,-14.792,1.761
1747597957.10,-0.023,-0.052,-0.015,-1.363,0.305,0.083,-79.410,-16.481,-0.397
1747597957.12,0.020,-0.023,0.018,-1.367,0.355,0.047,-80.929,-18.277,-2.787
1747597957.14,0.060,0.019,0.006,-1.305,0.242,-0.122,-82.354,-21.712,-6.778
1747597957.16,0.085,0.027,-0.002,-1.202,0.001,-0.112,-83.629,-27.416,-12.860
1747597957.17,0.019,-0.047,-0.040,-1.098,0.059,-0.185,-84.653,-35.309,-20.984
1747597957.20,-0.073,-0.037,-0.031,-1.049,0.150,-0.154,-85.463,-46.186,-32.175
1747597957.21,-0.085,-0.008,0.043,-1.112,0.292,-0.112,-86.074,-60.264,-46.732
1747597957.24,-0.042,-0.042,0.095,-1.131,0.300,0.001,-86.468,-79.160,-66.191
1747597957.25,0.056,-0.047,-0.011,-0.962,0.269,0.086,-86.557,-98.503,-86.042
1747597957.27,0.049,-0.012,-0.004,-0.845,0.137,0.006,-86.325,-114.791,-102.847
1747597957.29,-0.043,0.020,-0.107,-0.670,0.088,-0.161,-85.817,-124.760,-113.170
1747597957.32,-0.061,0.041,-0.099,-0.544,0.064,-0.161,-85.242,-130.214,-118.963
1747597957.33,-0.025,-0.001,-0.099,-0.387,-0.050,-0.120,-84.766,-133.495,-122.464
1747597957.35,0.069,-0.051,-0.098,-0.275,-0.053,-0.080,-84.424,-135.671,-124.789
1747597957.37,0.055,0.017,-0.080,-0.099,-0.024,-0.135,-84.188,-136.321,-125.620
1747597957.39,-0.029,0.103,0.009,0.090,0.015,-0.081,-84.095,-135.321,-124.836
1747597957.41,-0.103,0.040,0.087,-0.018,0.024,-0.083,-84.086,-134.336,-124.068
1747597957.43,-0.030,-0.147,0.151,-0.230,0.124,-0.019,-83.933,-134.705,-124.723
1747597957.45,0.130,-0.126,0.107,-0.194,0.081,0.047,-83.761,-136.560,-126.928
1747597957.47,0.096,0.071,0.044,0.008,-0.107,-0.000,-83.700,-137.406,-127.953
1747597957.49,0.012,0.109,0.032,0.048,-0.194,-0.025,-83.725,-137.191,-127.757
1747597957.51,-0.023,0.025,-0.015,0.070,-0.176,-0.058,-83.722,-136.694,-127.195
1747597957.53,0.006,-0.027,0.028,0.164,-0.071,-0.003,-83.781,-135.836,-126.391
1747597957.55,-0.111,-0.036,0.104,0.095,-0.143,0.047,-83.930,-135.113,-125.707
1747597957.57,-0.161,-0.068,0.084,0.001,0.071,0.047,-84.005,-135.308,-126.011
1747597957.59,-0.023,0.017,0.060,-0.019,0.296,0.017,-84.011,-135.449,-126.553
1747597957.61,0.045,0.082,0.035,0.130,0.178,-0.011,-84.052,-134.782,-126.350
1747597957.63,0.050,0.024,-0.023,0.203,0.050,0.007,-84.175,-133.285,-125.139
1747597957.65,0.015,-0.022,-0.008,0.209,-0.051,0.001,-84.319,-131.536,-123.550
1747597957.67,0.007,-0.034,0.010,0.316,-0.057,0.014,-84.504,-129.429,-121.526
1747597957.69,-0.026,0.010,0.024,0.375,-0.122,-0.014,-84.757,-126.199,-118.340
1747597957.71,-0.086,-0.001,0.048,0.380,-0.109,-0.039,-84.977,-122.212,-114.341
1747597957.73,-0.084,-0.007,0.043,0.417,-0.071,-0.057,-85.150,-117.551,-109.710
1747597957.75,-0.006,0.016,0.024,0.548,0.035,-0.047,-85.317,-111.278,-103.546
1747597957.77,0.048,0.020,0.050,0.585,-0.037,0.024,-85.501,-103.172,-95.592
1747597957.79,0.057,-0.040,0.075,0.538,-0.116,0.064,-85.658,-95.378,-87.940
1747597957.81,0.037,-0.028,0.012,0.724,-0.106,0.025,-85.727,-86.197,-78.730
1747597957.83,-0.032,0.051,-0.069,0.835,-0.209,-0.084,-85.542,-74.647,-67.110
1747597957.85,-0.035,0.052,-0.048,0.915,-0.226,-0.089,-85.076,-63.972,-56.215
1747597957.87,0.051,-0.083,0.080,0.847,0.136,0.020,-84.528,-54.627,-46.938
1747597957.89,0.009,-0.082,0.020,0.964,0.012,0.076,-83.938,-46.540,-39.035
1747597957.91,-0.013,0.038,0.000,1.089,-0.120,0.089,-83.122,-38.782,-31.238
1747597957.93,-0.014,0.037,0.044,1.029,-0.071,0.036,-82.185,-32.981,-25.369
1747597957.95,-0.038,-0.061,0.074,1.026,0.021,0.025,-81.191,-28.720,-21.130
1747597957.97,-0.046,-0.060,0.111,1.026,0.056,0.085,-80.173,-25.066,-17.596
1747597957.99,-0.033,-0.009,-0.001,0.994,-0.011,0.100,-79.169,-22.040,-14.590
1747597958.01,0.059,-0.001,0.040,1.132,0.207,0.092,-78.080,-19.234,-11.984
1747597958.03,0.034,-0.021,-0.066,1.119,-0.009,0.071,-76.862,-16.981,-9.858
1747597958.05,0.031,-0.042,0.017,1.133,0.069,0.188,-75.679,-14.933,-7.867
1747597958.07,0.030,-0.079,-0.022,1.067,0.074,0.236,-74.513,-12.803,-5.818
1747597958.09,0.089,-0.070,-0.046,1.048,0.141,0.226,-73.400,-10.898,-4.061
1747597958.11,0.122,0.009,-0.098,1.174,-0.029,0.197,-72.154,-9.350,-2.582
1747597958.13,0.075,0.075,0.116,1.050,0.049,0.150,-70.933,-8.132,-1.409
1747597958.15,-0.113,0.001,0.023,0.980,-0.116,0.138,-69.812,-7.377,-0.610
1747597958.17,-0.105,-0.087,-0.033,1.006,0.058,0.250,-68.715,-6.424,0.402
1747597958.19,-0.097,-0.005,-0.095,1.076,0.142,0.080,-67.563,-5.444,1.267
1747597958.21,-0.154,0.053,-0.053,1.174,0.248,-0.130,-66.258,-5.081,1.403
1747597958.23,-0.135,-0.046,0.089,1.024,0.599,-0.018,-64.978,-4.624,1.344
1747597958.25,-0.057,-0.069,0.039,0.924,0.403,0.093,-63.892,-3.724,1.624
1747597958.27,0.153,0.004,0.001,0.942,0.194,0.124,-62.854,-2.959,2.043
1747597958.29,0.272,0.056,0.011,1.119,-0.146,-0.052,-61.677,-2.731,2.249
1747597958.31,0.125,0.069,0.022,1.193,-0.381,-0.220,-60.341,-3.242,2.063
1747597958.33,-0.082,0.035,0.150,1.011,0.049,-0.183,-59.045,-3.746,1.735
1747597958.35,-0.169,0.026,0.024,0.757,0.169,-0.023,-58.063,-3.684,1.624
1747597958.37,-0.037,-0.001,-0.036,0.798,0.092,0.116,-57.184,-3.341,1.866
1747597958.39,0.068,0.059,0.039,0.929,0.104,0.038,-56.193,-2.984,2.182
1747597958.41,-0.033,0.095,0.026,0.981,0.078,-0.146,-55.100,-2.888,2.173
1747597958.43,-0.087,0.038,0.037,0.967,0.284,-0.190,-53.976,-2.908,1.935
1747597958.45,-0.015,-0.010,0.065,0.911,0.444,-0.150,-52.885,-2.655,1.704
1747597958.47,0.071,-0.074,-0.027,0.907,0.254,-0.130,-51.839,-2.418,1.503
1747597958.49,0.213,-0.059,-0.041,0.932,0.165,-0.111,-50.799,-2.279,1.386
1747597958.51,0.117,-0.061,-0.017,1.030,0.038,-0.207,-49.666,-2.331,1.200
1747597958.53,-0.001,-0.041,-0.013,0.997,-0.000,-0.171,-48.486,-2.538,0.960
1747597958.55,0.089,-0.030,0.085,0.914,0.157,-0.022,-47.405,-2.499,0.893
1747597958.57,0.172,0.015,-0.090,0.926,-0.178,0.027,-46.355,-2.423,0.989
1747597958.59,0.155,0.012,-0.044,1.003,-0.407,0.081,-45.265,-2.670,1.233
1747597958.61,0.038,0.028,0.034,1.084,-0.533,0.047,-44.082,-3.088,1.461
1747597958.63,-0.035,-0.043,0.052,1.073,-0.163,-0.020,-42.836,-3.441,1.661
1747597958.65,-0.108,-0.075,-0.017,0.960,-0.026,-0.193,-41.675,-3.568,1.630
1747597958.67,-0.082,-0.105,-0.035,0.814,0.032,-0.026,-40.661,-3.619,1.618
1747597958.69,0.049,0.046,0.052,0.839,-0.005,0.169,-39.734,-3.474,1.872
1747597958.71,0.038,0.203,0.064,1.031,-0.351,0.131,-38.688,-3.448,2.289
1747597958.73,-0.040,0.193,-0.031,1.038,-0.381,-0.203,-37.492,-3.877,2.423
1747597958.75,-0.056,0.009,-0.019,0.882,-0.185,-0.379,-36.337,-4.388,2.141
1747597958.77,-0.064,-0.210,-0.146,0.751,-0.110,-0.073,-35.402,-4.740,1.969
1747597958.79,0.003,-0.165,0.008,0.711,0.143,0.127,-34.578,-4.601,2.252
1747597958.81,0.032,0.073,0.012,0.802,-0.072,0.051,-33.734,-4.421,2.577
1747597958.83,0.111,0.138,0.029,0.893,-0.159,-0.098,-32.758,-4.547,2.772
1747597958.85,0.113,0.043,0.011,0.834,-0.170,-0.179,-31.739,-4.789,2.789
1747597958.87,-0.026,0.002,-0.049,0.767,-0.139,-0.041,-30.824,-5.015,2.833
1747597958.89,-0.131,0.050,-0.002,0.743,-0.042,0.119,-29.975,-5.047,3.133
1747597958.91,-0.178,0.153,0.103,0.834,0.107,-0.052,-29.095,-4.938,3.432
1747597958.93,-0.163,0.127,0.025,0.895,0.002,-0.325,-28.093,-4.920,3.409
1747597958.95,-0.057,0.016,0.025,0.930,-0.026,-0.507,-27.007,-5.157,3.103
1747597958.97,0.036,-0.025,0.018,0.814,-0.118,-0.501,-25.939,-5.486,2.678
1747597958.99,0.047,-0.034,-0.002,0.777,-0.101,-0.195,-25.012,-5.780,2.450
1747597959.01,0.012,0.081,-0.021,0.805,-0.067,-0.075,-24.094,-5.904,2.555
1747597959.03,0.028,0.082,0.008,0.847,-0.051,-0.197,-23.150,-5.963,2.633
1747597959.05,0.086,0.006,0.030,0.910,-0.063,-0.274,-22.122,-6.093,2.580
1747597959.07,0.096,-0.052,0.040,0.925,-0.139,-0.339,-21.046,-6.287,2.420
1747597959.09,0.066,-0.061,0.009,0.962,-0.215,-0.147,-19.940,-6.565,2.348
1747597959.11,0.111,0.006,-0.057,0.944,-0.210,-0.075,-18.855,-6.817,2.488
1747597959.13,0.041,-0.051,-0.037,0.963,-0.186,-0.105,-17.759,-7.022,2.623
1747597959.15,-0.033,-0.100,0.097,0.998,0.011,-0.146,-16.633,-7.136,2.716
1747597959.17,0.003,-0.075,0.073,0.970,0.083,-0.204,-15.477,-7.080,2.754
1747597959.19,0.016,-0.088,-0.093,0.967,0.010,-0.211,-14.362,-7.056,2.754
1747597959.21,0.024,-0.062,-0.077,0.940,0.033,-0.127,-13.257,-7.030,2.804
1747597959.23,0.097,0.060,0.021,0.980,-0.085,-0.044,-12.165,-7.049,2.968
1747597959.25,0.123,0.095,0.033,1.049,-0.203,-0.079,-11.006,-7.215,3.159
1747597959.27,0.069,-0.003,0.057,1.034,-0.060,-0.110,-9.810,-7.367,3.334
1747597959.29,-0.131,-0.029,-0.034,0.997,0.033,-0.032,-8.650,-7.373,3.501
1747597959.31,-0.171,-0.020,-0.099,0.927,0.174,0.001,-7.562,-7.215,3.782
1747597959.33,0.036,0.022,-0.062,0.913,-0.067,-0.072,-6.515,-7.135,3.986
1747597959.35,0.150,0.071,0.096,0.998,-0.200,-0.119,-5.428,-7.303,4.159
1747597959.37,-0.034,0.182,0.079,1.087,-0.169,-0.177,-4.208,-7.525,4.292
1747597959.39,-0.230,0.047,-0.074,1.063,0.164,-0.136,-2.969,-7.553,4.433
1747597959.41,-0.152,-0.064,-0.070,0.941,0.273,-0.190,-1.808,-7.243,4.540
1747597959.43,0.007,0.022,-0.023,0.923,-0.010,-0.229,-0.732,-7.085,4.604
1747597959.45,0.066,0.177,-0.021,0.995,-0.315,-0.375,0.392,-7.276,4.570
1747597959.47,-0.104,0.119,0.009,0.959,-0.111,-0.412,1.556,-7.580,4.424
1747597959.49,-0.234,-0.003,0.012,0.835,0.308,-0.450,2.639,-7.438,4.213
1747597959.51,-0.011,-0.162,-0.119,0.730,0.237,-0.407,3.595,-7.058,3.975
1747597959.53,0.246,-0.090,-0.162,0.718,-0.137,-0.364,4.455,-6.995,3.768
1747597959.55,0.069,0.108,-0.014,0.706,-0.195,-0.278,5.316,-7.187,3.626
1747597959.57,0.009,0.017,-0.019,0.661,0.065,-0.166,6.118,-7.276,3.586
1747597959.59,0.036,-0.013,-0.083,0.583,0.090,-0.057,6.844,-7.160,3.630
1747597959.61,0.092,-0.095,-0.128,0.506,-0.005,0.058,7.458,-7.121,3.808
1747597959.63,0.125,-0.001,-0.111,0.502,-0.195,0.072,8.008,-7.269,4.077
1747597959.65,0.002,0.028,-0.030,0.459,-0.090,0.035,8.552,-7.466,4.325
1747597959.67,-0.088,0.019,-0.029,0.400,0.080,0.027,9.033,-7.494,4.547
1747597959.69,-0.003,0.036,-0.046,0.352,0.051,-0.021,9.455,-7.398,4.689
1747597959.71,0.036,0.029,-0.083,0.328,-0.066,-0.032,9.854,-7.396,4.795
1747597959.73,0.008,-0.012,-0.127,0.260,-0.204,0.053,10.184,-7.581,4.947
1747597959.75,-0.041,0.011,-0.056,0.225,-0.058,-0.010,10.463,-7.752,5.118
1747597959.77,0.020,-0.005,-0.024,0.199,0.004,-0.048,10.702,-7.754,5.231
1747597959.79,0.069,0.036,-0.034,0.205,-0.051,-0.073,10.937,-7.776,5.310
1747597959.81,-0.011,0.043,-0.062,0.165,-0.124,-0.075,11.163,-7.870,5.352
1747597959.83,-0.063,-0.033,-0.056,0.102,-0.012,-0.100,11.335,-7.945,5.384
1747597959.85,0.028,-0.053,-0.032,0.044,0.050,-0.114,11.427,-7.884,5.374
1747597959.87,0.088,-0.017,-0.028,0.051,-0.052,-0.140,11.500,-7.841,5.446
1747597959.89,0.019,-0.001,-0.044,-0.001,-0.046,-0.129,11.540,-7.873,5.386
1747597959.91,-0.018,-0.031,-0.032,-0.069,0.061,-0.093,11.532,-7.852,5.355
1747597959.93,0.002,-0.026,-0.101,-0.199,-0.022,-0.034,11.390,-7.778,5.317
1747597959.95,0.085,-0.098,-0.168,-0.290,-0.058,0.121,11.114,-7.844,5.410
1747597959.97,0.166,-0.062,-0.145,-0.389,-0.110,0.233,10.710,-7.958,5.636
1747597959.99,0.075,-0.099,-0.153,-0.561,0.065,0.287,10.140,-8.054,5.969
1747597960.01,-0.077,-0.081,-0.163,-0.807,0.197,0.263,9.318,-7.922,6.270
1747597960.03,-0.032,-0.106,-0.159,-0.967,0.256,0.212,8.279,-7.660,6.508
1747597960.05,0.031,-0.050,-0.181,-1.124,0.047,0.157,7.066,-7.496,6.637
1747597960.07,-0.071,-0.060,-0.160,-1.270,-0.054,0.096,5.684,-7.504,6.690
1747597960.09,-0.148,-0.098,-0.115,-1.348,0.070,0.053,4.197,-7.487,6.639
1747597960.11,-0.056,-0.046,-0.153,-1.440,-0.039,0.130,2.601,-7.442,6.612
1747597960.13,0.010,0.011,-0.088,-1.520,-0.193,0.255,0.911,-7.571,6.712
1747597960.15,0.002,-0.028,-0.104,-1.554,-0.259,0.296,-0.881,-7.856,6.877
1747597960.17,0.042,-0.085,-0.049,-1.540,-0.158,0.267,-2.688,-8.084,7.020
1747597960.19,0.028,-0.055,-0.034,-1.418,-0.030,0.282,-4.385,-8.196,7.170
1747597960.21,-0.060,-0.022,-0.016,-1.515,-0.116,0.284,-6.098,-8.259,7.326
1747597960.22,-0.069,-0.104,-0.004,-1.599,-0.100,0.303,-7.901,-8.358,7.522
1747597960.24,-0.056,-0.106,-0.007,-1.596,-0.219,0.340,-9.769,-8.540,7.681
1747597960.26,0.143,-0.065,0.006,-1.561,-0.183,0.413,-11.618,-8.735,7.919
1747597960.29,0.162,-0.047,-0.008,-1.550,-0.020,0.377,-13.428,-8.819,8.176
1747597960.30,0.001,-0.106,-0.002,-1.583,0.067,0.350,-15.249,-8.763,8.386
1747597960.32,-0.051,-0.147,0.067,-1.594,0.056,0.425,-17.116,-8.619,8.652
1747597960.34,-0.006,-0.074,0.004,-1.595,-0.047,0.473,-18.999,-8.533,8.999
1747597960.36,0.023,0.021,0.002,-1.590,-0.149,0.369,-20.868,-8.585,9.270
1747597960.38,-0.012,-0.017,0.055,-1.572,-0.105,0.287,-22.705,-8.701,9.417
1747597960.40,-0.070,-0.132,0.011,-1.514,-0.027,0.305,-24.512,-8.766,9.521
1747597960.42,-0.053,-0.121,0.045,-1.547,0.131,0.351,-26.305,-8.623,9.675
1747597960.44,-0.084,-0.012,0.041,-1.539,0.193,0.369,-28.079,-8.365,9.894
1747597960.46,-0.069,0.089,-0.023,-1.658,0.234,0.388,-29.968,-8.033,10.104
1747597960.48,-0.003,0.046,0.031,-1.670,0.313,0.345,-31.914,-7.607,10.320
1747597960.50,0.034,-0.062,-0.030,-1.643,0.011,0.328,-33.824,-7.329,10.488
1747597960.52,0.130,-0.113,-0.011,-1.690,-0.090,0.399,-35.778,-7.275,10.698
1747597960.54,0.209,-0.051,0.008,-1.680,-0.163,0.471,-37.739,-7.220,11.002
1747597960.56,0.134,0.037,-0.029,-1.700,-0.405,0.495,-39.718,-7.295,11.395
1747597960.58,0.027,0.032,0.041,-1.621,-0.349,0.498,-41.695,-7.485,11.809
1747597960.60,-0.074,-0.041,0.048,-1.545,-0.210,0.521,-43.553,-7.507,12.264
1747597960.62,-0.101,-0.116,0.047,-1.565,0.157,0.452,-45.377,-7.213,12.722
1747597960.64,-0.055,-0.128,0.000,-1.675,0.213,0.355,-47.274,-6.714,13.030
1747597960.66,-0.002,-0.094,-0.042,-1.699,0.014,0.345,-49.254,-6.396,13.248
1747597960.68,0.050,-0.002,0.057,-1.652,-0.004,0.409,-51.198,-6.142,13.519
1747597960.70,0.090,0.045,0.025,-1.602,0.013,0.393,-53.096,-5.803,13.942
1747597960.72,0.078,0.050,0.011,-1.547,-0.018,0.210,-54.910,-5.548,14.190
1747597960.74,0.021,0.018,-0.001,-1.529,-0.034,0.099,-56.666,-5.596,14.135
1747597960.76,0.041,-0.001,0.033,-1.521,-0.120,0.027,-58.408,-5.814,13.899
1747597960.78,0.052,-0.018,0.029,-1.644,-0.225,0.112,-60.228,-6.228,13.597
1747597960.80,-0.006,-0.050,-0.020,-1.499,-0.255,0.081,-62.027,-6.664,13.380
1747597960.82,-0.043,-0.031,0.028,-1.498,-0.011,0.093,-63.731,-7.014,13.080
1747597960.84,-0.052,-0.001,0.014,-1.471,0.106,0.070,-65.418,-7.211,12.734
1747597960.86,0.028,0.006,0.038,-1.512,0.134,0.031,-67.119,-7.394,12.231
1747597960.88,0.100,-0.015,0.001,-1.441,0.031,-0.005,-68.793,-7.823,11.591
1747597960.90,0.139,-0.042,0.041,-1.446,-0.099,0.036,-70.451,-8.439,10.823
1747597960.92,0.032,-0.052,-0.061,-1.406,-0.197,-0.012,-72.056,-9.293,9.998
1747597960.94,-0.038,0.007,-0.013,-1.288,-0.125,-0.080,-73.574,-10.497,8.774
1747597960.96,-0.116,-0.000,0.005,-1.219,0.124,-0.124,-74.942,-11.943,7.149
1747597960.98,-0.090,-0.036,0.026,-1.256,0.276,-0.056,-76.292,-13.324,5.331
1747597961.00,-0.016,-0.051,0.050,-1.283,0.343,-0.012,-77.692,-14.732,3.365
1747597961.02,0.045,-0.086,0.034,-1.230,0.282,0.067,-79.088,-16.030,1.514
1747597961.04,0.050,-0.023,-0.038,-1.105,0.147,-0.001,-80.383,-17.627,-0.527
1747597961.06,-0.004,0.060,0.059,-1.048,0.203,-0.099,-81.524,-20.438,-3.739
1747597961.08,-0.059,0.020,0.056,-1.147,0.296,-0.066,-82.643,-24.044,-7.842
1747597961.10,-0.028,-0.106,-0.002,-1.095,0.317,-0.099,-83.765,-29.436,-13.826
1747597961.12,0.117,-0.091,0.031,-1.072,0.195,0.043,-84.778,-36.020,-20.941
1747597961.14,0.114,0.017,0.033,-1.065,0.107,0.051,-85.767,-44.793,-30.100
1747597961.16,-0.029,0.009,-0.078,-0.987,-0.036,-0.096,-86.475,-58.503,-44.049
1747597961.18,-0.075,0.023,-0.074,-0.938,0.056,-0.099,-86.800,-76.844,-62.591
1747597961.20,-0.069,0.042,-0.071,-0.761,0.229,-0.146,-86.737,-93.884,-79.988
1747597961.22,-0.017,-0.027,-0.079,-0.619,0.286,-0.127,-86.436,-106.184,-92.824
1747597961.24,0.006,-0.054,-0.080,-0.553,0.221,-0.104,-86.094,-114.846,-101.985
1747597961.26,-0.004,-0.011,-0.091,-0.472,0.178,-0.149,-85.687,-121.030,-108.623
1747597961.28,-0.036,0.011,-0.036,-0.460,0.289,-0.136,-85.256,-125.336,-113.378
1747597961.30,-0.039,0.027,-0.005,-0.382,0.445,-0.073,-84.865,-128.366,-117.040
1747597961.32,-0.043,-0.005,0.002,-0.290,0.477,-0.066,-84.555,-130.661,-120.102
1747597961.34,-0.035,0.007,-0.038,-0.049,0.388,-0.073,-84.366,-131.021,-121.164
1747597961.36,-0.003,0.010,0.026,-0.014,0.288,-0.018,-84.321,-130.415,-121.141
1747597961.38,0.026,-0.012,0.023,-0.181,0.161,-0.009,-84.243,-130.819,-122.030
1747597961.40,0.061,-0.015,0.042,-0.223,0.006,-0.036,-84.058,-132.415,-123.956
1747597961.42,0.060,0.011,0.001,-0.127,-0.102,-0.087,-83.870,-133.394,-125.077
1747597961.44,0.017,-0.018,0.016,-0.013,-0.065,-0.075,-83.742,-133.394,-125.166
1747597961.46,-0.070,-0.012,0.059,0.024,-0.078,-0.076,-83.692,-132.908,-124.805
1747597961.48,-0.107,0.008,0.016,0.068,-0.051,-0.060,-83.671,-132.138,-124.127
1747597961.50,-0.045,-0.029,0.006,-0.015,0.080,0.016,-83.676,-131.856,-124.046
1747597961.52,0.012,-0.018,-0.003,0.025,0.153,0.022,-83.697,-131.978,-124.497
1747597961.54,0.060,0.037,0.026,0.092,0.153,0.015,-83.748,-131.421,-124.321
1747597961.56,0.072,-0.007,0.021,0.120,0.018,0.000,-83.827,-130.474,-123.647
1747597961.58,0.028,-0.015,0.012,0.124,-0.126,-0.031,-83.889,-129.396,-122.677
1747597961.60,0.016,-0.009,-0.021,0.145,-0.166,-0.010,-83.964,-128.277,-121.540
1747597961.62,0.014,0.008,0.049,0.180,-0.137,0.032,-84.090,-127.233,-120.510
1747597961.64,-0.042,-0.009,0.039,0.208,-0.141,0.029,-84.267,-125.971,-119.222
1747597961.66,-0.009,-0.017,0.083,0.156,-0.085,0.040,-84.422,-124.852,-118.136
1747597961.68,0.009,-0.017,0.047,0.238,-0.130,0.019,-84.577,-123.357,-116.683
1747597961.70,-0.020,0.016,0.030,0.355,-0.149,-0.036,-84.741,-120.669,-113.964
1747597961.72,-0.055,0.030,-0.016,0.515,-0.109,-0.032,-84.905,-115.950,-109.218
1747597961.74,-0.056,0.011,0.055,0.557,-0.018,0.058,-85.144,-109.660,-102.983
1747597961.76,-0.065,-0.036,0.081,0.549,-0.033,0.099,-85.413,-102.533,-95.952
1747597961.78,-0.033,-0.049,0.072,0.494,0.024,0.092,-85.620,-95.328,-88.842
1747597961.80,-0.014,0.007,0.033,0.640,0.031,0.024,-85.705,-86.992,-80.648
1747597961.82,-0.023,0.044,0.010,0.772,-0.068,-0.052,-85.570,-76.464,-70.220
1747597961.84,-0.010,0.004,-0.033,0.938,-0.223,-0.069,-85.180,-65.661,-59.327
1747597961.86,0.064,0.018,0.040,0.988,-0.151,0.018,-84.601,-55.128,-48.668
1747597961.88,0.002,-0.021,0.100,1.016,-0.157,0.049,-83.913,-46.233,-39.698
1747597961.90,-0.102,-0.046,0.035,1.038,-0.096,0.054,-83.087,-39.059,-32.453
1747597961.92,-0.048,-0.050,-0.016,1.139,0.024,0.019,-82.124,-33.115,-26.526
1747597961.94,-0.018,0.048,-0.078,1.292,-0.127,-0.163,-80.888,-28.860,-22.233
1747597961.96,-0.004,0.063,0.131,1.238,0.293,-0.056,-79.506,-25.676,-19.167
1747597961.98,-0.081,-0.064,0.129,1.109,0.323,0.157,-78.311,-22.227,-16.140
1747597962.00,-0.135,-0.089,0.104,1.120,0.351,0.272,-77.229,-18.676,-13.001
1747597962.02,0.024,-0.053,-0.095,1.247,-0.017,0.072,-75.997,-15.902,-10.423
1747597962.04,0.140,0.066,0.012,1.281,0.168,-0.170,-74.582,-14.596,-9.212
1747597962.06,-0.030,0.070,0.010,1.151,0.217,-0.149,-73.143,-13.975,-8.836
1747597962.08,-0.026,-0.036,0.107,0.988,0.510,0.235,-72.006,-12.541,-7.844
1747597962.10,0.077,-0.039,0.071,1.068,0.560,0.353,-70.931,-10.084,-5.994
1747597962.12,0.154,-0.022,0.048,1.127,0.235,0.023,-69.728,-8.385,-4.794
1747597962.14,0.013,-0.001,-0.104,1.265,-0.078,-0.114,-68.338,-8.081,-4.540
1747597962.16,-0.011,-0.016,0.034,1.098,0.320,-0.029,-66.987,-7.683,-4.302
1747597962.18,-0.079,0.001,0.005,1.087,0.284,0.109,-65.759,-6.877,-3.869
1747597962.20,0.111,-0.020,0.002,1.140,0.229,0.212,-64.539,-5.838,-3.115
1747597962.22,0.227,-0.023,-0.045,1.215,0.063,0.065,-63.191,-5.068,-2.529
1747597962.24,0.147,-0.043,-0.012,1.127,0.071,-0.014,-61.863,-4.744,-2.287
1747597962.26,0.012,-0.085,-0.066,1.122,0.015,0.030,-60.564,-4.508,-2.129
1747597962.28,-0.047,-0.047,-0.080,1.061,-0.080,0.123,-59.345,-4.250,-1.798
1747597962.30,0.052,-0.004,0.007,1.205,-0.070,0.120,-58.069,-3.913,-1.328
1747597962.32,0.025,0.011,-0.008,1.250,-0.089,-0.093,-56.649,-3.822,-1.165
1747597962.34,-0.116,-0.043,0.001,1.138,0.020,-0.130,-55.274,-3.984,-1.285
1747597962.36,-0.103,-0.106,0.023,0.963,0.237,-0.008,-54.058,-3.886,-1.335
1747597962.38,0.108,-0.017,0.017,0.913,0.114,0.194,-53.028,-3.355,-0.998
1747597962.40,0.111,0.081,0.033,1.034,-0.196,0.025,-51.961,-3.119,-0.624
1747597962.42,0.039,0.095,-0.037,1.149,-0.403,-0.103,-50.681,-3.416,-0.537
1747597962.44,-0.077,0.074,-0.013,0.969,-0.342,-0.178,-49.465,-3.978,-0.653
1747597962.46,-0.090,-0.026,-0.035,0.891,-0.175,-0.058,-48.397,-4.340,-0.700
1747597962.48,-0.026,-0.063,0.048,0.884,-0.065,0.122,-47.415,-4.353,-0.440
1747597962.50,0.084,-0.041,0.040,0.952,-0.050,0.040,-46.360,-4.202,-0.113
1747597962.52,0.079,0.051,-0.055,0.997,-0.091,-0.025,-45.261,-4.212,0.078
1747597962.54,0.070,0.076,0.089,1.020,-0.016,-0.117,-44.095,-4.234,0.174
1747597962.56,0.053,0.024,-0.054,0.917,-0.164,-0.085,-42.990,-4.393,0.169
1747597962.58,0.102,-0.067,-0.013,0.905,-0.174,0.053,-41.947,-4.538,0.358
1747597962.60,0.018,0.000,0.006,0.937,-0.209,0.051,-40.910,-4.601,0.685
1747597962.62,-0.083,0.030,-0.019,0.997,-0.161,-0.101,-39.805,-4.791,0.881
1747597962.64,-0.052,0.003,0.018,0.909,-0.023,-0.262,-38.690,-4.953,0.842
1747597962.66,0.005,-0.099,-0.172,0.875,-0.328,-0.163,-37.689,-5.248,0.714
1747597962.68,0.132,-0.142,-0.042,1.005,-0.380,0.058,-36.581,-5.697,0.854
1747597962.70,0.136,-0.065,0.013,0.977,-0.515,0.037,-35.490,-6.030,1.241
1747597962.72,-0.048,0.112,0.094,1.019,-0.335,-0.136,-34.358,-6.514,1.451
1747597962.74,-0.044,0.138,0.152,1.089,-0.141,-0.257,-33.121,-6.817,1.472
1747597962.76,-0.053,0.027,-0.026,1.032,-0.356,-0.202,-31.875,-7.183,1.443
1747597962.78,-0.103,-0.059,0.014,0.913,-0.149,-0.117,-30.743,-7.519,1.572
1747597962.80,-0.162,-0.033,0.043,0.857,0.079,-0.178,-29.733,-7.557,1.685
1747597962.82,-0.064,-0.020,0.040,0.887,0.132,-0.305,-28.718,-7.496,1.674
1747597962.84,0.050,-0.022,0.049,0.977,0.036,-0.398,-27.606,-7.559,1.503
1747597962.86,0.081,0.043,0.035,0.947,-0.087,-0.292,-26.454,-7.725,1.359
1747597962.88,-0.001,0.131,-0.015,0.953,-0.042,-0.108,-25.351,-7.860,1.392
1747597962.90,-0.010,0.172,-0.020,0.947,0.027,-0.125,-24.275,-7.831,1.606
1747597962.92,0.050,0.063,0.050,1.047,-0.008,-0.242,-23.115,-7.839,1.709
1747597962.94,0.137,-0.041,0.033,1.019,-0.127,-0.261,-21.886,-7.967,1.724
1747597962.96,0.131,-0.067,0.003,1.008,-0.272,-0.151,-20.701,-8.263,1.786
1747597962.98,0.122,0.001,-0.042,0.969,-0.104,0.029,-19.577,-8.422,2.097
1747597963.00,-0.006,0.064,-0.052,1.001,-0.071,0.047,-18.481,-8.476,2.490
1747597963.02,0.032,-0.009,0.095,1.187,0.135,-0.033,-17.256,-8.371,2.890
1747597963.04,0.069,-0.014,0.056,1.197,0.037,-0.119,-15.858,-8.182,3.176
1747597963.06,-0.034,-0.061,-0.097,1.048,-0.033,-0.118,-14.584,-8.229,3.404
1747597963.08,-0.135,-0.031,-0.066,0.974,0.046,-0.129,-13.425,-8.202,3.605
1747597963.10,-0.084,0.068,-0.018,0.962,0.012,-0.131,-12.318,-8.166,3.790
1747597963.12,0.056,0.111,0.042,1.064,-0.007,-0.171,-11.161,-8.176,3.963
1747597963.14,0.029,0.137,0.064,1.102,0.036,-0.205,-9.892,-8.176,4.103
1747597963.16,-0.115,0.055,-0.040,1.151,0.238,-0.201,-8.580,-8.054,4.209
1747597963.18,-0.170,0.012,-0.039,1.065,0.386,-0.217,-7.287,-7.672,4.312
1747597963.20,-0.088,-0.006,-0.028,0.981,0.286,-0.242,-6.096,-7.277,4.349
1747597963.22,0.095,0.017,0.009,1.044,0.003,-0.347,-4.926,-7.126,4.313
