Time,AccX,AccY,AccZ,GyroX,GyroY,GyroZ,Pitch,Roll,Yaw
1747602427.48,0.022,-0.016,-0.013,0.009,-0.011,0.028,-80.855,41.529,9.530
1747602427.49,-0.016,-0.000,-0.030,0.009,-0.051,0.043,-80.822,41.665,9.699
1747602427.51,-0.031,0.003,-0.020,0.007,-0.078,0.034,-80.782,41.765,9.875
1747602427.53,0.001,-0.002,-0.034,0.014,-0.076,0.029,-80.741,41.751,9.949
1747602427.55,0.033,-0.005,-0.045,0.006,-0.093,0.041,-80.701,41.833,10.130
1747602427.57,0.024,0.006,-0.044,-0.000,-0.138,0.039,-80.662,41.868,10.299
1747602427.59,-0.017,0.001,-0.029,-0.025,-0.120,0.028,-80.647,41.895,10.490
1747602427.61,-0.029,-0.023,-0.011,-0.050,-0.062,0.023,-80.657,42.057,10.752
1747602427.63,-0.005,-0.013,-0.030,-0.077,-0.107,0.019,-80.685,42.394,11.178
1747602427.65,0.004,-0.002,-0.046,-0.096,-0.145,0.025,-80.731,42.696,11.645
1747602427.67,-0.013,-0.017,-0.005,-0.108,-0.090,0.045,-80.781,43.205,12.293
1747602427.69,-0.070,0.004,-0.005,-0.135,-0.026,0.023,-80.852,43.868,13.040
1747602427.71,-0.083,-0.003,0.002,-0.188,0.030,0.024,-80.964,44.754,13.923
1747602427.73,-0.049,-0.010,0.028,-0.261,0.070,0.053,-81.108,46.101,15.241
1747602427.75,0.005,-0.006,0.077,-0.299,0.128,0.099,-81.258,48.155,17.189
1747602427.77,-0.023,0.012,0.027,-0.321,0.097,0.053,-81.420,50.421,19.360
1747602427.79,-0.010,-0.007,0.044,-0.292,0.189,-0.012,-81.629,52.533,21.335
1747602427.81,0.052,-0.039,0.031,-0.250,0.195,-0.002,-81.831,54.402,22.984
1747602427.83,0.105,0.026,0.014,-0.187,0.102,0.041,-81.951,56.106,24.535
1747602427.85,0.135,0.039,0.036,-0.189,-0.071,0.051,-82.021,57.640,26.052
1747602427.87,0.106,-0.033,0.035,-0.157,-0.277,0.023,-82.089,58.789,27.418
1747602427.89,0.038,-0.018,0.028,-0.056,-0.411,-0.010,-82.147,59.246,28.280
1747602427.91,-0.054,0.059,-0.011,0.052,-0.350,-0.059,-82.181,58.615,28.116
1747602427.93,-0.111,0.048,-0.006,0.125,-0.075,-0.072,-82.195,57.401,27.146
1747602427.95,-0.068,-0.009,0.008,0.101,0.245,-0.000,-82.162,56.508,26.143
1747602427.97,-0.000,-0.038,-0.008,0.131,0.459,0.102,-82.042,56.396,25.612
1747602427.99,0.052,-0.030,-0.056,0.181,0.500,0.106,-81.837,56.445,25.098
1747602428.01,0.135,-0.008,-0.090,0.285,0.432,0.053,-81.618,55.886,23.987
1747602428.03,0.117,0.017,-0.096,0.411,0.199,0.013,-81.349,54.166,21.864
1747602428.05,0.035,-0.008,-0.101,0.481,0.143,-0.052,-81.061,51.552,19.072
1747602428.07,0.120,-0.019,0.054,0.336,0.433,0.031,-80.769,49.440,16.605
1747602428.09,0.162,0.076,0.251,0.197,0.425,0.075,-80.526,48.949,15.560
1747602428.11,0.115,-0.007,0.191,0.219,-0.065,-0.046,-80.356,48.298,14.662
1747602428.13,0.068,-0.083,0.079,0.282,-0.663,-0.145,-80.248,46.222,12.994
1747602428.15,-0.085,0.066,-0.048,0.278,-0.764,-0.302,-80.173,42.860,10.485
1747602428.17,-0.195,0.166,0.038,0.130,-0.225,-0.337,-80.263,39.737,7.906
1747602428.19,-0.189,0.046,0.080,-0.003,0.353,-0.196,-80.396,38.133,6.193
1747602428.21,-0.079,-0.082,0.091,-0.082,0.538,-0.044,-80.531,38.288,5.780
1747602428.23,0.008,-0.081,-0.008,-0.073,0.254,-0.037,-80.615,38.988,6.013
1747602428.25,0.042,-0.020,-0.081,-0.045,-0.037,-0.153,-80.740,38.849,5.760
1747602428.27,0.056,0.027,-0.116,0.011,-0.057,-0.200,-80.882,37.796,4.771
1747602428.29,-0.017,0.046,-0.135,-0.005,-0.120,-0.185,-81.011,36.590,3.621
1747602428.31,-0.100,-0.005,-0.119,-0.027,-0.239,-0.163,-81.141,35.386,2.646
1747602428.33,-0.048,-0.104,0.008,-0.129,0.022,-0.148,-81.312,34.589,1.978
1747602428.35,0.035,-0.100,0.019,-0.206,0.085,-0.031,-81.544,34.824,2.123
1747602428.37,0.059,-0.004,-0.072,-0.200,0.015,0.064,-81.718,36.007,3.266
1747602428.39,-0.008,0.044,-0.103,-0.113,0.003,-0.013,-81.838,36.920,4.192
1747602428.41,-0.086,0.004,-0.066,-0.056,0.104,-0.079,-81.956,37.026,4.237
1747602428.43,-0.108,-0.000,-0.075,0.034,0.146,-0.048,-82.005,36.754,3.814
1747602428.45,-0.004,0.031,-0.035,0.034,0.176,0.005,-81.983,36.614,3.493
1747602428.47,0.091,0.010,0.029,-0.003,0.252,0.017,-81.949,36.866,3.484
1747602428.49,0.047,-0.048,0.053,-0.050,0.073,-0.005,-81.973,37.246,3.667
1747602428.51,0.024,-0.053,0.024,-0.052,-0.131,-0.030,-82.036,37.334,3.804
1747602428.53,0.048,0.045,-0.002,-0.038,-0.126,-0.041,-82.104,37.111,3.753
1747602428.55,0.022,0.062,0.015,-0.031,0.009,-0.022,-82.154,37.005,3.706
1747602428.57,-0.049,-0.020,0.018,-0.066,0.030,-0.016,-82.210,37.149,3.819
1747602428.59,-0.018,-0.081,0.035,-0.079,-0.002,0.032,-82.274,37.637,4.288
1747602428.61,0.023,-0.012,-0.033,-0.021,-0.117,0.011,-82.301,38.034,4.752
1747602428.63,-0.002,0.058,-0.044,0.042,-0.176,-0.030,-82.298,37.764,4.658
1747602428.64,-0.042,0.050,-0.045,0.106,-0.086,-0.052,-82.261,36.902,3.948
1747602428.67,-0.055,-0.012,-0.007,0.083,0.003,-0.018,-82.193,36.085,3.174
1747602428.69,-0.048,-0.037,0.053,0.059,0.110,0.026,-82.128,35.883,2.899
1747602428.70,-0.009,-0.029,0.029,0.068,0.088,0.060,-82.038,35.963,2.863
1747602428.73,0.066,-0.014,0.019,0.106,0.040,0.066,-81.917,36.076,2.902
1747602428.74,0.072,0.049,-0.014,0.198,-0.043,0.031,-81.738,35.672,2.494
1747602428.76,0.027,0.073,0.004,0.263,-0.107,-0.008,-81.514,34.591,1.487
1747602428.78,-0.058,0.003,0.032,0.274,-0.090,-0.040,-81.274,33.164,0.171
1747602428.80,-0.074,-0.044,0.079,0.278,0.048,-0.012,-81.032,31.900,-1.087
1747602428.82,-0.066,-0.015,0.036,0.313,0.102,0.022,-80.736,30.948,-2.149
1747602428.84,-0.042,0.004,0.010,0.347,0.115,0.045,-80.396,30.134,-3.092
1747602428.86,0.036,0.005,0.023,0.378,0.147,0.073,-80.006,29.471,-3.940
1747602428.88,0.035,0.008,-0.018,0.418,0.051,0.085,-79.559,28.756,-4.766
1747602428.90,0.035,-0.025,-0.015,0.508,-0.023,0.086,-79.058,27.940,-5.631
1747602428.92,0.068,-0.018,-0.057,0.638,-0.047,0.148,-78.413,26.936,-6.594
1747602428.94,0.056,0.014,-0.025,0.687,0.057,0.160,-77.647,26.084,-7.460
1747602428.96,-0.016,0.011,0.047,0.642,0.137,0.141,-76.881,25.429,-8.265
1747602428.98,-0.064,-0.022,0.039,0.641,0.068,0.141,-76.160,24.822,-8.999
1747602429.00,-0.033,0.008,0.060,0.671,0.088,0.164,-75.403,24.361,-9.578
1747602429.02,-0.054,0.039,0.021,0.689,-0.006,0.104,-74.633,23.750,-10.262
1747602429.04,0.012,0.019,0.013,0.711,0.005,0.112,-73.845,22.972,-11.053
1747602429.06,-0.014,0.019,0.039,0.746,0.072,0.137,-73.028,22.408,-11.699
1747602429.08,-0.081,0.004,0.009,0.720,0.089,0.164,-72.193,21.998,-12.219
1747602429.10,-0.066,-0.006,-0.011,0.732,0.207,0.136,-71.343,21.702,-12.709
1747602429.12,-0.037,0.016,0.070,0.671,0.296,0.082,-70.562,21.505,-13.238
1747602429.14,-0.004,0.019,0.024,0.587,0.122,0.128,-69.850,21.296,-13.718
1747602429.16,0.071,0.017,0.061,0.579,0.082,0.181,-69.177,21.212,-13.915
1747602429.18,0.041,0.019,0.049,0.598,-0.089,0.174,-68.473,21.095,-14.063
1747602429.20,0.061,-0.000,0.043,0.573,-0.078,0.144,-67.784,20.801,-14.241
1747602429.22,0.053,-0.019,0.027,0.598,-0.080,0.128,-67.103,20.503,-14.493
1747602429.24,0.009,-0.005,-0.027,0.584,-0.175,0.191,-66.394,20.174,-14.671
1747602429.26,-0.017,0.008,-0.025,0.563,-0.120,0.150,-65.709,19.951,-14.736
1747602429.28,-0.073,0.013,-0.015,0.561,-0.051,0.088,-65.074,19.630,-14.963
1747602429.30,-0.046,0.001,0.025,0.666,0.037,0.106,-64.377,19.359,-15.273
1747602429.32,-0.028,0.014,-0.037,0.683,0.024,0.111,-63.605,19.114,-15.575
1747602429.34,-0.014,0.021,-0.020,0.698,0.041,0.111,-62.812,18.867,-15.885
1747602429.36,-0.005,0.003,0.021,0.704,0.082,0.101,-62.011,18.683,-16.183
1747602429.38,0.020,-0.041,0.008,0.691,0.103,0.098,-61.231,18.495,-16.491
1747602429.40,0.067,-0.061,0.003,0.668,0.080,0.122,-60.445,18.394,-16.753
1747602429.42,0.080,-0.006,0.000,0.668,-0.028,0.134,-59.681,18.253,-16.949
1747602429.44,0.055,0.051,0.004,0.707,-0.127,0.118,-58.896,17.996,-17.159
1747602429.46,0.039,0.050,-0.008,0.699,-0.185,0.087,-58.091,17.589,-17.403
1747602429.48,0.022,-0.006,-0.011,0.712,-0.193,0.084,-57.291,17.131,-17.708
1747602429.50,0.013,-0.064,-0.008,0.692,-0.188,0.150,-56.490,16.750,-17.891
1747602429.52,0.004,-0.041,-0.039,0.738,-0.149,0.136,-55.656,16.444,-18.012
1747602429.54,0.002,0.021,-0.005,0.713,-0.038,0.073,-54.827,16.160,-18.220
1747602429.56,-0.019,0.039,-0.010,0.714,-0.121,0.079,-54.010,15.860,-18.481
1747602429.58,-0.022,0.025,0.004,0.702,-0.161,0.109,-53.216,15.520,-18.675
1747602429.60,-0.002,0.017,0.045,0.681,-0.093,0.125,-52.413,15.295,-18.801
1747602429.62,-0.017,0.031,0.055,0.637,-0.126,0.132,-51.655,15.100,-18.887
1747602429.64,0.026,0.067,0.054,0.657,-0.142,0.118,-50.913,14.903,-18.972
1747602429.66,0.055,0.082,0.037,0.748,-0.212,0.121,-50.094,14.591,-19.079
1747602429.68,0.009,0.027,0.005,0.734,-0.206,0.087,-49.238,14.243,-19.240
1747602429.70,-0.025,-0.085,-0.011,0.639,-0.243,0.165,-48.445,13.907,-19.320
1747602429.72,0.043,-0.096,0.027,0.596,-0.154,0.154,-47.720,13.713,-19.291
1747602429.74,0.048,0.015,0.007,0.612,-0.256,0.167,-47.017,13.509,-19.276
1747602429.76,0.003,0.086,-0.005,0.712,-0.307,0.200,-46.222,13.192,-19.229
1747602429.78,-0.056,0.064,-0.022,0.724,-0.263,0.167,-45.377,12.874,-19.203
1747602429.80,-0.074,-0.008,-0.013,0.662,-0.144,0.118,-44.569,12.663,-19.216
1747602429.82,-0.030,-0.059,-0.018,0.619,-0.076,0.131,-43.828,12.530,-19.205
1747602429.84,-0.022,-0.014,0.005,0.614,-0.148,0.156,-43.112,12.411,-19.125
1747602429.86,0.008,0.065,0.078,0.680,-0.106,0.116,-42.363,12.272,-19.031
1747602429.88,-0.006,0.057,-0.023,0.685,-0.102,0.089,-41.560,12.111,-19.027
1747602429.90,-0.045,-0.015,-0.064,0.608,-0.182,0.081,-40.822,11.917,-19.015
1747602429.92,-0.074,-0.024,0.003,0.583,-0.105,0.024,-40.140,11.673,-19.024
1747602429.94,-0.054,0.037,-0.010,0.584,-0.146,0.023,-39.494,11.429,-19.072
1747602429.96,-0.005,0.060,0.005,0.602,-0.085,0.002,-38.826,11.211,-19.119
1747602429.98,0.032,0.018,-0.022,0.547,-0.086,-0.002,-38.173,11.015,-19.207
1747602430.00,0.025,-0.030,-0.033,0.560,-0.233,0.033,-37.550,10.723,-19.253
1747602430.02,0.025,-0.045,-0.028,0.550,-0.166,0.035,-36.914,10.427,-19.268
1747602430.04,-0.018,-0.066,-0.022,0.559,-0.144,0.042,-36.285,10.193,-19.270
1747602430.06,0.004,-0.057,0.017,0.572,-0.090,0.020,-35.646,10.007,-19.287
1747602430.08,0.037,-0.061,-0.024,0.597,-0.239,0.022,-34.988,9.779,-19.340
1747602430.10,0.122,-0.045,0.011,0.555,-0.212,0.048,-34.330,9.444,-19.358
1747602430.12,0.098,-0.010,-0.004,0.576,-0.321,0.097,-33.678,9.113,-19.318
1747602430.14,0.065,0.014,-0.051,0.530,-0.290,0.169,-33.031,8.798,-19.180
1747602430.16,0.020,-0.014,-0.028,0.508,-0.215,0.184,-32.414,8.581,-18.957
1747602430.18,0.012,-0.025,-0.033,0.488,-0.224,0.188,-31.815,8.407,-18.739
1747602430.20,0.031,-0.025,0.001,0.462,-0.244,0.155,-31.249,8.203,-18.538
1747602430.22,-0.009,-0.065,-0.041,0.436,-0.195,0.155,-30.712,8.019,-18.366
1747602430.24,0.004,-0.019,-0.023,0.422,-0.192,0.094,-30.222,7.843,-18.203
1747602430.26,0.022,0.073,-0.025,0.434,-0.183,0.074,-29.721,7.656,-18.127
1747602430.28,-0.026,0.067,-0.025,0.371,-0.199,0.072,-29.249,7.453,-18.029
1747602430.30,-0.026,0.004,-0.030,0.345,-0.151,0.057,-28.827,7.246,-17.960
1747602430.32,-0.039,-0.023,-0.019,0.329,-0.110,0.067,-28.441,7.109,-17.885
1747602430.34,-0.007,0.012,-0.062,0.318,-0.058,0.059,-28.072,7.041,-17.792
1747602430.36,0.009,0.062,-0.017,0.323,-0.050,0.034,-27.706,6.990,-17.727
1747602430.38,-0.012,0.048,0.021,0.312,-0.107,0.034,-27.339,6.898,-17.685
1747602430.40,0.025,0.054,-0.037,0.259,-0.140,0.016,-27.014,6.742,-17.633
1747602430.42,-0.057,0.088,-0.040,0.197,-0.067,-0.030,-26.764,6.625,-17.621
1747602430.44,-0.143,0.012,-0.006,0.183,0.060,-0.018,-26.549,6.589,-17.624
1747602430.46,-0.002,-0.017,-0.031,0.161,0.089,-0.062,-26.363,6.652,-17.654
1747602430.48,0.093,0.006,-0.019,0.147,0.001,-0.056,-26.197,6.662,-17.713
1747602430.50,0.108,-0.016,-0.010,0.150,-0.081,-0.033,-26.039,6.577,-17.755
1747602430.52,0.083,-0.044,-0.002,0.125,-0.063,0.010,-25.879,6.463,-17.746
1747602430.54,0.012,-0.029,0.020,0.081,-0.014,0.098,-25.758,6.445,-17.649
1747602430.56,0.111,-0.027,-0.042,0.079,-0.006,0.168,-25.648,6.517,-17.443
1747602430.58,0.118,0.020,-0.041,0.079,-0.076,0.143,-25.533,6.552,-17.212
1747602430.60,-0.007,-0.007,0.025,0.081,-0.073,0.156,-25.427,6.535,-16.988
1747602430.62,-0.073,0.002,-0.025,0.088,-0.066,0.149,-25.312,6.537,-16.769
1747602430.64,-0.078,0.044,-0.020,0.104,-0.028,0.080,-25.189,6.542,-16.586
1747602430.66,-0.091,-0.013,-0.023,0.135,0.042,0.019,-25.042,6.572,-16.506
1747602430.68,-0.053,-0.030,-0.057,0.105,0.035,-0.001,-24.904,6.603,-16.475
1747602430.70,-0.016,0.101,-0.024,0.090,0.059,-0.031,-24.800,6.653,-16.475
1747602430.72,-0.017,0.052,-0.008,0.079,0.020,-0.037,-24.710,6.685,-16.488
1747602430.74,0.035,-0.022,0.003,0.087,0.011,-0.046,-24.621,6.649,-16.536
1747602430.76,0.027,-0.024,-0.004,0.043,-0.023,-0.011,-24.544,6.613,-16.553
1747602430.78,0.084,0.029,-0.045,-0.012,0.004,-0.027,-24.531,6.608,-16.536
1747602430.80,0.094,-0.025,-0.048,-0.050,-0.008,0.029,-24.575,6.594,-16.512
1747602430.82,0.092,0.013,-0.039,-0.085,-0.118,0.097,-24.643,6.575,-16.398
1747602430.84,0.045,0.051,-0.040,-0.147,-0.116,0.107,-24.758,6.511,-16.204
1747602430.86,-0.051,0.012,-0.032,-0.124,-0.057,0.014,-24.891,6.412,-16.096
1747602430.88,-0.083,-0.048,-0.043,-0.199,0.005,-0.035,-25.071,6.410,-16.069
1747602430.90,-0.012,-0.019,-0.077,-0.288,0.039,0.015,-25.351,6.445,-16.018
1747602430.92,0.042,0.057,-0.069,-0.374,0.018,0.001,-25.733,6.506,-15.931
1747602430.94,0.018,0.015,-0.061,-0.405,0.117,-0.056,-26.191,6.595,-15.881
1747602430.96,-0.003,-0.041,-0.075,-0.482,0.072,-0.015,-26.688,6.695,-15.840
1747602430.98,0.020,0.004,-0.045,-0.578,0.132,-0.019,-27.299,6.861,-15.748
1747602431.00,0.049,0.041,-0.043,-0.594,0.098,-0.029,-27.968,7.025,-15.658
1747602431.02,0.053,0.006,-0.035,-0.653,0.050,-0.058,-28.664,7.124,-15.580
1747602431.04,0.025,-0.113,-0.105,-0.755,0.091,-0.037,-29.475,7.214,-15.507
1747602431.06,0.001,-0.148,-0.052,-0.826,0.202,0.033,-30.372,7.451,-15.330
1747602431.08,-0.076,-0.066,-0.011,-0.877,0.247,-0.044,-31.336,7.784,-15.140
1747602431.10,-0.094,-0.025,-0.062,-0.922,0.205,-0.130,-32.372,8.065,-15.065
1747602431.12,0.014,-0.054,-0.062,-1.017,0.239,-0.115,-33.488,8.331,-15.015
1747602431.14,0.031,-0.031,0.007,-1.005,0.312,-0.107,-34.658,8.674,-14.924
1747602431.16,-0.026,0.016,-0.014,-0.994,0.277,-0.101,-35.800,9.062,-14.829
1747602431.18,-0.006,0.012,-0.054,-0.953,0.346,-0.116,-36.921,9.439,-14.696
1747602431.20,0.007,-0.031,-0.042,-0.931,0.388,-0.191,-38.002,9.889,-14.663
1747602431.22,0.004,-0.104,-0.045,-0.981,0.385,-0.148,-39.107,10.311,-14.622
1747602431.24,0.022,-0.128,-0.050,-1.069,0.374,-0.103,-40.290,10.815,-14.494
1747602431.26,0.035,-0.098,0.001,-1.057,0.389,-0.105,-41.508,11.359,-14.281
1747602431.28,0.012,-0.045,-0.023,-1.061,0.373,-0.152,-42.715,11.892,-14.115
1747602431.30,-0.004,-0.002,-0.032,-1.152,0.375,-0.140,-43.985,12.409,-13.947
1747602431.32,0.015,0.026,-0.009,-1.204,0.400,-0.124,-45.337,12.999,-13.733
1747602431.34,0.062,0.053,0.027,-1.217,0.362,-0.124,-46.715,13.637,-13.478
1747602431.36,0.109,0.059,0.027,-1.237,0.292,-0.084,-48.106,14.243,-13.153
1747602431.38,0.105,0.047,-0.022,-1.286,0.185,-0.072,-49.518,14.828,-12.733
1747602431.40,0.046,0.032,-0.020,-1.319,0.160,-0.098,-50.974,15.376,-12.265
1747602431.42,-0.047,0.025,0.017,-1.338,0.073,-0.135,-52.481,15.873,-11.812
1747602431.44,-0.050,0.006,0.021,-1.358,0.103,-0.158,-54.008,16.318,-11.365
1747602431.46,-0.009,-0.017,-0.021,-1.330,0.113,-0.214,-55.536,16.791,-10.959
1747602431.48,0.018,-0.017,-0.028,-1.322,0.065,-0.285,-57.068,17.146,-10.655
1747602431.50,0.004,-0.022,-0.029,-1.280,-0.055,-0.328,-58.593,17.314,-10.466
1747602431.52,0.031,-0.051,-0.023,-1.350,-0.105,-0.305,-60.133,17.384,-10.273
1747602431.54,0.057,-0.066,-0.036,-1.324,-0.176,-0.256,-61.700,17.501,-9.957
1747602431.56,0.083,-0.059,-0.047,-1.273,-0.148,-0.230,-63.198,17.673,-9.538
1747602431.58,0.021,-0.020,-0.022,-1.176,-0.127,-0.249,-64.606,17.848,-9.175
1747602431.60,-0.038,-0.006,0.045,-1.180,-0.017,-0.240,-65.975,18.100,-8.796
1747602431.62,-0.077,-0.020,0.012,-1.200,0.031,-0.291,-67.351,18.413,-8.478
1747602431.64,-0.018,-0.057,-0.026,-1.151,0.108,-0.261,-68.743,18.836,-8.117
1747602431.66,0.038,-0.033,-0.048,-1.043,0.009,-0.189,-70.011,19.357,-7.632
1747602431.68,-0.001,0.048,-0.002,-0.945,0.030,-0.251,-71.151,19.796,-7.175
1747602431.69,-0.095,0.044,0.038,-0.910,0.185,-0.325,-72.258,20.041,-7.045
1747602431.71,-0.106,-0.002,0.032,-0.883,0.355,-0.269,-73.342,20.427,-6.943
1747602431.74,-0.111,-0.030,0.085,-0.931,0.472,-0.263,-74.407,21.221,-6.633
1747602431.75,-0.008,-0.032,0.040,-0.957,0.405,-0.255,-75.525,22.198,-6.151
1747602431.77,0.139,-0.019,0.020,-0.957,0.242,-0.208,-76.637,23.321,-5.399
1747602431.79,0.140,0.008,-0.019,-0.888,0.002,-0.200,-77.693,24.406,-4.416
1747602431.81,0.061,0.022,-0.011,-0.887,-0.134,-0.248,-78.717,25.260,-3.445
1747602431.83,-0.029,-0.003,-0.040,-0.891,-0.083,-0.292,-79.766,25.942,-2.615
1747602431.85,-0.070,-0.023,0.011,-0.922,0.057,-0.275,-80.832,26.873,-1.654
1747602431.87,-0.066,-0.034,-0.006,-0.995,0.011,-0.274,-81.959,28.564,-0.007
1747602431.89,-0.006,-0.067,-0.070,-0.918,0.035,-0.255,-83.048,30.484,1.906
1747602431.91,0.047,-0.004,-0.019,-0.923,0.151,-0.154,-84.078,33.973,5.310
1747602431.93,-0.038,0.068,-0.086,-0.795,0.061,-0.168,-84.958,38.611,9.844
1747602431.95,-0.065,0.014,-0.015,-0.781,0.169,-0.242,-85.790,43.780,14.921
1747602431.97,-0.035,-0.011,0.033,-0.734,0.331,-0.233,-86.593,51.040,21.886
1747602431.99,-0.021,-0.054,-0.013,-0.588,0.327,-0.259,-87.248,59.882,30.378
1747602432.01,0.052,-0.033,0.049,-0.612,0.476,-0.205,-87.780,71.813,41.858
1747602432.03,0.023,-0.027,-0.020,-0.583,0.331,-0.139,-88.081,90.860,60.449
1747602432.05,-0.028,-0.074,-0.111,-0.459,0.311,-0.134,-88.128,109.987,79.262
1747602432.07,-0.012,-0.150,0.001,-0.395,0.548,-0.056,-88.013,124.694,93.481
1747602432.09,-0.022,-0.140,0.006,-0.361,0.591,-0.001,-87.747,134.893,102.974
1747602432.11,-0.042,-0.039,-0.057,-0.334,0.282,-0.073,-87.478,142.280,109.891
1747602432.13,-0.001,0.010,0.035,-0.347,0.316,-0.081,-87.208,149.091,116.402
1747602432.15,0.024,0.023,0.100,-0.321,0.308,-0.049,-86.901,154.251,121.175
1747602432.17,0.031,0.100,-0.003,-0.160,0.069,-0.081,-86.673,157.698,124.419
1747602432.19,0.093,0.137,-0.024,-0.013,0.003,-0.086,-86.627,159.862,126.576
1747602432.21,0.043,0.161,-0.043,0.032,-0.161,-0.040,-86.673,160.821,127.602
1747602432.23,-0.109,0.158,-0.018,0.048,-0.176,-0.043,-86.730,161.049,128.071
1747602432.25,-0.118,-0.051,0.063,-0.009,0.116,-0.056,-86.769,161.912,128.973
1747602432.27,-0.036,-0.090,0.068,-0.003,0.280,-0.021,-86.780,162.900,129.716
1747602432.29,0.061,0.011,0.068,-0.005,0.091,0.030,-86.758,163.165,129.747
1747602432.31,0.075,0.037,0.036,0.050,-0.006,0.016,-86.788,162.446,129.006
1747602432.33,0.021,-0.018,0.077,0.052,0.075,-0.019,-86.838,162.296,128.820
1747602432.35,-0.059,-0.008,0.062,0.058,0.006,-0.047,-86.909,162.715,129.173
1747602432.37,-0.061,0.006,-0.004,0.025,-0.082,-0.075,-86.986,163.641,130.156
1747602432.39,0.011,-0.033,0.015,-0.019,-0.053,-0.033,-86.992,164.778,131.366
1747602432.41,0.021,-0.020,-0.002,-0.011,-0.123,-0.008,-86.975,165.036,131.733
1747602432.43,0.036,0.023,-0.003,0.031,-0.139,-0.016,-86.991,165.128,131.976
1747602432.45,0.036,0.020,-0.024,0.072,-0.113,-0.001,-87.053,164.967,131.959
1747602432.47,0.004,-0.020,-0.037,0.076,-0.025,0.001,-87.139,164.396,131.477
1747602432.49,-0.016,0.008,-0.020,0.073,0.086,-0.009,-87.215,164.009,131.041
1747602432.51,-0.046,0.040,-0.047,0.095,0.050,-0.026,-87.320,163.901,130.848
1747602432.53,-0.038,0.008,-0.011,0.049,0.113,0.008,-87.403,163.649,130.520
1747602432.55,-0.037,-0.038,0.019,0.031,0.114,0.034,-87.440,162.917,129.637
1747602432.57,0.029,-0.048,-0.028,0.058,0.068,0.049,-87.480,161.563,128.187
1747602432.59,0.074,0.004,-0.013,0.105,0.041,0.050,-87.547,159.832,126.376
1747602432.61,0.027,0.048,-0.003,0.114,-0.076,0.012,-87.656,157.864,124.429
1747602432.63,-0.021,0.011,0.006,0.113,-0.106,-0.014,-87.779,156.747,123.425
1747602432.65,-0.008,-0.035,0.007,0.109,-0.109,-0.016,-87.901,155.672,122.463
1747602432.67,0.008,-0.012,-0.010,0.148,-0.149,-0.004,-88.042,153.900,120.841
1747602432.69,-0.015,0.026,0.027,0.138,-0.125,0.023,-88.182,151.086,118.184
1747602432.71,-0.055,0.010,0.024,0.170,-0.057,0.061,-88.301,146.661,113.868
1747602432.73,-0.058,-0.026,0.020,0.212,0.014,0.071,-88.432,140.026,107.251
1747602432.75,-0.011,-0.004,0.004,0.262,0.035,0.068,-88.569,130.658,97.842
1747602432.77,0.018,0.020,0.004,0.272,-0.059,0.087,-88.670,118.464,85.658
1747602432.79,0.026,-0.007,0.026,0.352,-0.078,0.105,-88.697,102.715,69.978
1747602432.81,0.007,-0.015,0.014,0.420,-0.177,0.119,-88.603,83.444,50.843
1747602432.83,-0.021,0.023,0.013,0.433,-0.274,0.085,-88.356,66.480,34.140
1747602432.85,-0.010,0.019,0.056,0.452,-0.231,0.076,-88.031,53.885,21.829
1747602432.87,0.003,-0.014,0.035,0.523,-0.269,0.086,-87.591,44.152,12.368
1747602432.89,0.018,-0.018,0.058,0.534,-0.222,0.104,-87.063,37.056,5.547
1747602432.91,0.000,0.014,0.029,0.612,-0.271,0.147,-86.443,32.359,1.108
1747602432.93,-0.080,0.037,0.015,0.645,-0.233,0.166,-85.727,28.938,-2.002
1747602432.95,-0.130,0.022,0.067,0.666,0.059,0.113,-84.988,26.384,-4.469
1747602432.97,-0.113,-0.015,0.031,0.667,0.098,0.089,-84.255,24.055,-6.931
1747602432.99,0.001,-0.013,-0.037,0.763,0.000,0.170,-83.450,22.354,-8.686
1747602433.01,0.089,0.012,-0.001,0.777,0.135,0.205,-82.541,21.413,-9.693
1747602433.03,0.055,-0.000,0.091,0.769,0.134,0.190,-81.630,20.792,-10.508
1747602433.05,-0.036,-0.042,0.012,0.728,0.059,0.225,-80.752,20.423,-10.980
1747602433.07,-0.038,-0.040,0.041,0.718,0.156,0.231,-79.887,20.300,-11.224
1747602433.09,0.030,0.017,-0.019,0.771,0.019,0.189,-79.004,20.062,-11.601
1747602433.11,0.071,0.045,0.028,0.779,0.010,0.172,-78.106,19.494,-12.155
1747602433.13,0.059,-0.009,0.048,0.750,0.013,0.252,-77.194,19.236,-12.462
1747602433.15,-0.034,-0.031,0.022,0.649,-0.036,0.290,-76.331,19.317,-12.340
1747602433.17,-0.044,-0.029,0.041,0.633,0.055,0.305,-75.537,19.653,-12.007
1747602433.19,0.027,-0.002,-0.017,0.719,0.011,0.295,-74.699,19.985,-11.733
1747602433.21,0.040,0.026,-0.078,0.806,-0.108,0.204,-73.769,19.793,-11.860
1747602433.23,0.003,0.022,-0.036,0.774,-0.051,0.169,-72.842,19.268,-12.269
1747602433.25,-0.023,-0.023,-0.051,0.688,0.228,0.204,-71.963,19.116,-12.552
1747602433.27,-0.085,-0.059,0.024,0.568,0.209,0.310,-71.213,19.530,-12.405
1747602433.29,-0.033,-0.031,0.007,0.593,0.171,0.317,-70.467,20.123,-12.010
1747602433.31,0.068,-0.000,-0.070,0.720,0.066,0.227,-69.657,20.340,-11.922
1747602433.33,0.058,0.013,-0.060,0.729,0.099,0.184,-68.790,20.242,-12.128
1747602433.35,-0.065,0.011,-0.026,0.671,0.024,0.168,-67.951,20.037,-12.407
1747602433.37,-0.039,-0.039,0.042,0.565,0.148,0.218,-67.223,20.050,-12.499
1747602433.39,0.028,-0.046,-0.015,0.652,0.097,0.218,-66.499,20.242,-12.471
1747602433.41,0.051,-0.016,-0.068,0.791,-0.062,0.161,-65.642,20.083,-12.667
1747602433.43,0.040,0.022,0.031,0.801,-0.004,0.110,-64.700,19.638,-13.096
1747602433.45,-0.045,0.030,0.013,0.675,-0.019,0.093,-63.856,19.246,-13.513
1747602433.47,-0.016,0.001,-0.001,0.575,-0.038,0.175,-63.147,19.043,-13.713
1747602433.49,0.053,0.024,-0.042,0.614,-0.162,0.210,-62.452,18.936,-13.700
1747602433.51,0.057,0.083,-0.024,0.686,-0.141,0.156,-61.658,18.673,-13.794
1747602433.53,-0.073,0.094,0.072,0.681,0.028,0.064,-60.880,18.368,-14.060
1747602433.55,-0.087,0.023,0.086,0.581,0.075,0.084,-60.161,18.129,-14.396
1747602433.57,0.084,-0.054,0.043,0.461,0.077,0.165,-59.566,18.181,-14.476
1747602433.59,0.195,-0.062,0.002,0.445,-0.187,0.239,-59.017,18.229,-14.351
1747602433.61,0.158,0.007,-0.033,0.586,-0.347,0.223,-58.376,18.043,-14.197
1747602433.63,0.012,0.078,-0.036,0.626,-0.321,0.098,-57.639,17.578,-14.271
1747602433.65,-0.096,0.052,-0.002,0.572,-0.205,0.061,-56.965,17.073,-14.517
1747602433.67,-0.067,-0.065,-0.045,0.518,-0.034,0.110,-56.333,16.782,-14.674
1747602433.69,0.017,-0.144,-0.028,0.560,-0.077,0.147,-55.711,16.703,-14.737
1747602433.71,0.050,-0.102,-0.058,0.594,-0.156,0.168,-55.024,16.543,-14.755
1747602433.73,0.042,-0.014,-0.034,0.706,-0.209,0.123,-54.273,16.256,-14.836
1747602433.75,0.045,0.021,0.047,0.603,-0.073,0.120,-53.481,15.974,-14.988
1747602433.77,0.021,-0.021,-0.026,0.447,-0.159,0.193,-52.874,15.852,-14.993
1747602433.79,0.027,-0.044,0.005,0.466,-0.266,0.255,-52.327,15.774,-14.792
1747602433.81,0.007,0.025,-0.011,0.610,-0.289,0.214,-51.655,15.579,-14.630
1747602433.83,-0.045,0.089,-0.061,0.731,-0.275,0.110,-50.864,15.211,-14.676
1747602433.85,-0.058,0.072,0.032,0.774,-0.150,0.073,-50.004,14.789,-14.878
1747602433.87,-0.037,-0.010,-0.005,0.690,-0.141,0.106,-49.160,14.484,-15.069
1747602433.89,0.040,-0.049,0.001,0.593,-0.190,0.120,-48.429,14.247,-15.138
1747602433.91,0.028,-0.011,0.039,0.660,-0.243,0.099,-47.720,13.944,-15.211
1747602433.93,-0.030,0.047,0.004,0.770,-0.239,0.063,-46.900,13.551,-15.366
1747602433.95,-0.064,0.041,0.012,0.768,-0.173,0.037,-46.035,13.153,-15.579
1747602433.97,-0.054,0.006,0.005,0.724,-0.158,0.016,-45.187,12.842,-15.810
1747602433.99,0.010,0.007,0.043,0.687,-0.165,0.031,-44.389,12.498,-16.022
1747602434.01,0.086,0.022,0.032,0.685,-0.156,-0.001,-43.615,12.147,-16.233
1747602434.03,0.081,0.020,0.004,0.595,-0.135,0.037,-42.907,11.887,-16.426
1747602434.05,0.018,0.015,-0.022,0.613,-0.225,0.113,-42.218,11.628,-16.490
1747602434.07,0.033,0.025,-0.014,0.706,-0.245,0.050,-41.463,11.326,-16.562
1747602434.09,0.055,-0.010,0.017,0.722,-0.248,0.024,-40.639,10.927,-16.730
1747602434.11,0.094,-0.067,0.025,0.647,-0.230,0.051,-39.864,10.570,-16.838
1747602434.13,0.123,-0.072,-0.052,0.604,-0.201,0.077,-39.135,10.244,-16.905
1747602434.15,0.040,-0.023,-0.035,0.575,-0.347,0.111,-38.477,9.969,-16.898
1747602434.17,-0.078,0.072,-0.004,0.626,-0.324,0.124,-37.771,9.575,-16.796
1747602434.19,-0.133,0.096,0.077,0.680,-0.123,0.019,-37.013,9.275,-16.781
1747602434.21,-0.116,0.036,-0.015,0.652,-0.132,-0.054,-36.257,9.035,-16.972
1747602434.23,-0.000,0.001,-0.044,0.508,-0.174,-0.004,-35.614,8.769,-17.106
1747602434.25,0.026,0.005,-0.011,0.512,-0.208,0.065,-35.037,8.495,-17.140
1747602434.27,-0.004,0.019,-0.010,0.534,-0.192,0.039,-34.436,8.262,-17.143
1747602434.29,-0.009,-0.001,-0.031,0.576,-0.201,-0.005,-33.809,7.980,-17.205
1747602434.31,0.003,-0.037,-0.006,0.621,-0.220,-0.036,-33.128,7.683,-17.317
1747602434.33,0.057,-0.026,-0.003,0.544,-0.175,0.010,-32.459,7.367,-17.401
1747602434.35,0.033,-0.027,-0.039,0.478,-0.233,0.060,-31.880,7.147,-17.420
1747602434.37,-0.027,-0.030,-0.018,0.492,-0.182,0.063,-31.321,6.906,-17.354
1747602434.39,-0.082,0.030,-0.014,0.517,-0.063,-0.007,-30.742,6.748,-17.361
1747602434.41,-0.056,0.056,-0.036,0.515,-0.134,-0.042,-30.161,6.582,-17.444
1747602434.43,0.003,0.038,-0.020,0.495,-0.156,-0.076,-29.592,6.333,-17.577
1747602434.45,0.038,-0.038,0.002,0.416,-0.164,-0.077,-29.083,6.066,-17.719
1747602434.47,0.049,-0.080,-0.026,0.383,-0.140,0.031,-28.632,5.842,-17.783
1747602434.49,0.037,0.042,0.000,0.408,-0.028,0.062,-28.180,5.762,-17.737
1747602434.51,-0.021,0.093,-0.001,0.411,-0.057,0.078,-27.690,5.697,-17.676
1747602434.53,-0.014,-0.001,-0.059,0.348,-0.079,0.034,-27.270,5.647,-17.615
1747602434.55,0.024,-0.069,-0.018,0.341,-0.106,0.019,-26.880,5.525,-17.606
1747602434.57,0.030,-0.018,0.036,0.352,-0.077,0.037,-26.476,5.404,-17.598
1747602434.59,-0.030,0.072,-0.005,0.241,0.061,0.094,-26.131,5.436,-17.532
1747602434.61,-0.056,0.085,-0.082,0.214,0.023,0.114,-25.854,5.513,-17.394
1747602434.63,-0.020,0.035,-0.034,0.235,-0.031,0.065,-25.598,5.553,-17.282
1747602434.65,0.081,-0.043,-0.019,0.238,-0.124,0.062,-25.324,5.483,-17.217
1747602434.67,0.078,-0.025,-0.009,0.211,-0.048,0.088,-25.048,5.395,-17.132
1747602434.69,-0.049,-0.003,-0.033,0.163,0.092,0.164,-24.820,5.477,-16.957
1747602434.70,-0.002,0.014,-0.052,0.165,0.116,0.183,-24.629,5.727,-16.716
1747602434.73,0.077,0.021,-0.022,0.207,0.046,0.100,-24.387,5.878,-16.555
1747602434.75,0.006,0.007,0.023,0.191,-0.028,0.076,-24.149,5.917,-16.463
1747602434.77,-0.016,-0.025,0.001,0.131,0.027,0.073,-23.962,5.941,-16.377
1747602434.78,-0.004,0.012,-0.033,0.094,0.047,0.058,-23.823,6.018,-16.300
1747602434.81,-0.044,0.037,-0.037,0.065,0.041,0.074,-23.729,6.097,-16.213
1747602434.82,0.010,0.024,-0.020,0.091,0.006,0.071,-23.646,6.160,-16.107
1747602434.84,0.052,0.009,-0.011,0.131,-0.061,0.041,-23.504,6.145,-16.051
1747602434.86,0.047,-0.024,-0.002,0.117,-0.052,0.052,-23.351,6.096,-15.999
1747602434.88,0.001,0.013,-0.031,0.132,-0.041,0.051,-23.209,6.045,-15.936
1747602434.90,-0.047,-0.007,0.001,0.133,0.009,0.044,-23.055,6.052,-15.889
1747602434.92,-0.017,-0.017,-0.029,0.118,-0.014,0.025,-22.914,6.068,-15.850
1747602434.94,-0.004,0.008,-0.010,0.080,-0.028,-0.010,-22.792,6.049,-15.838
1747602434.96,-0.009,-0.002,-0.005,0.119,-0.023,-0.027,-22.693,6.000,-15.869
1747602434.98,-0.003,0.016,0.017,0.156,-0.037,-0.040,-22.546,5.938,-15.911
1747602435.00,-0.011,0.021,-0.034,0.146,0.026,-0.026,-22.362,5.896,-15.970
1747602435.02,-0.013,0.026,-0.032,0.120,0.071,0.005,-22.218,5.935,-15.995
1747602435.04,0.056,0.026,-0.019,0.113,-0.008,0.005,-22.083,5.978,-15.995
1747602435.06,0.066,0.007,-0.006,0.074,-0.014,-0.019,-21.972,5.948,-16.023
1747602435.08,0.016,-0.009,-0.065,-0.001,-0.014,0.031,-21.945,5.958,-16.008
1747602435.10,0.020,0.044,-0.034,-0.036,0.051,0.062,-21.966,5.996,-15.930
1747602435.12,0.020,0.048,-0.042,-0.101,0.057,0.029,-22.032,6.078,-15.861
1747602435.14,-0.020,-0.010,-0.081,-0.203,0.091,0.037,-22.207,6.216,-15.788
1747602435.16,-0.028,0.054,-0.097,-0.267,0.084,-0.010,-22.478,6.327,-15.730
1747602435.18,0.021,0.079,-0.141,-0.140,0.077,-0.085,-22.721,6.412,-15.747
1747602435.20,0.028,0.046,-0.093,-0.172,0.135,-0.126,-22.916,6.482,-15.856
1747602435.22,-0.050,-0.002,-0.037,-0.287,0.189,-0.097,-23.177,6.614,-15.947
1747602435.24,-0.057,-0.035,-0.071,-0.275,0.372,-0.099,-23.531,6.904,-16.008
1747602435.26,-0.054,-0.020,-0.007,-0.464,0.424,-0.136,-23.984,7.340,-16.089
1747602435.28,-0.009,-0.053,-0.037,-0.533,0.427,-0.185,-24.556,7.783,-16.190
1747602435.30,0.000,-0.062,-0.052,-0.636,0.320,-0.213,-25.227,8.139,-16.338
1747602435.32,0.008,-0.057,-0.052,-0.767,0.292,-0.153,-26.048,8.442,-16.426
1747602435.34,0.015,-0.057,-0.043,-0.826,0.345,-0.102,-26.983,8.791,-16.414
1747602435.36,0.042,-0.065,-0.017,-0.806,0.401,-0.119,-27.948,9.249,-16.366
1747602435.38,0.051,-0.084,-0.108,-0.904,0.359,-0.158,-28.885,9.671,-16.348
1747602435.40,0.078,-0.129,-0.029,-1.022,0.316,-0.049,-30.008,10.098,-16.251
1747602435.42,0.047,-0.094,0.019,-1.094,0.248,0.021,-31.205,10.564,-15.976
1747602435.44,-0.010,0.002,0.019,-1.129,0.149,-0.061,-32.458,10.918,-15.717
1747602435.46,0.011,0.026,0.031,-1.182,0.087,-0.114,-33.763,11.145,-15.510
1747602435.48,0.052,-0.042,0.023,-1.253,0.053,-0.052,-35.150,11.347,-15.277
1747602435.50,0.045,-0.085,-0.026,-1.239,0.051,-0.021,-36.562,11.584,-14.968
1747602435.52,-0.060,-0.074,-0.047,-1.079,0.097,-0.080,-37.882,11.828,-14.693
1747602435.54,-0.117,-0.056,-0.087,-1.066,0.179,-0.115,-39.060,12.089,-14.528
1747602435.56,-0.028,-0.071,0.043,-1.195,0.351,-0.054,-40.363,12.527,-14.299
1747602435.58,0.115,-0.035,0.009,-1.181,0.412,0.003,-41.690,13.221,-13.929
1747602435.60,0.126,0.034,-0.039,-1.148,0.245,-0.006,-42.988,13.900,-13.504
1747602435.62,0.026,0.077,-0.056,-1.115,0.069,-0.073,-44.246,14.319,-13.127
1747602435.64,-0.089,0.052,-0.030,-1.097,0.025,-0.142,-45.503,14.574,-12.854
1747602435.66,-0.096,-0.008,-0.036,-1.143,0.121,-0.143,-46.778,14.813,-12.616
1747602435.68,-0.015,-0.051,-0.059,-1.151,0.187,-0.157,-48.085,15.178,-12.360
1747602435.70,0.043,-0.079,-0.052,-1.186,0.267,-0.181,-49.420,15.632,-12.108
1747602435.72,0.046,-0.087,-0.024,-1.249,0.283,-0.178,-50.817,16.166,-11.823
1747602435.74,0.053,-0.056,-0.003,-1.263,0.280,-0.169,-52.254,16.767,-11.471
1747602435.76,0.044,0.003,-0.025,-1.264,0.187,-0.169,-53.684,17.350,-11.083
1747602435.78,0.062,0.027,0.006,-1.269,0.131,-0.169,-55.125,17.896,-10.637
1747602435.80,0.090,0.017,-0.011,-1.241,0.044,-0.205,-56.549,18.354,-10.201
1747602435.82,0.106,-0.020,0.018,-1.255,0.008,-0.242,-57.984,18.712,-9.818
1747602435.84,0.097,-0.041,-0.024,-1.294,-0.070,-0.213,-59.438,19.036,-9.397
1747602435.86,0.080,-0.021,-0.001,-1.264,-0.116,-0.221,-60.914,19.391,-8.869
1747602435.88,0.010,0.025,-0.027,-1.206,-0.197,-0.273,-62.328,19.582,-8.443
1747602435.90,-0.061,0.043,0.015,-1.188,-0.123,-0.306,-63.722,19.681,-8.120
1747602435.92,-0.100,-0.003,0.029,-1.213,-0.011,-0.307,-65.130,19.877,-7.816
1747602435.94,-0.044,-0.061,0.066,-1.217,0.043,-0.248,-66.549,20.303,-7.385
1747602435.96,0.043,-0.031,-0.035,-1.120,0.001,-0.246,-67.903,20.851,-6.822
1747602435.98,0.052,0.043,-0.031,-1.029,-0.034,-0.325,-69.157,21.170,-6.456
1747602436.00,-0.011,0.053,0.011,-0.950,-0.006,-0.354,-70.352,21.243,-6.336
1747602436.02,-0.025,0.003,0.088,-1.005,0.239,-0.332,-71.528,21.474,-6.233
1747602436.04,-0.056,-0.051,0.014,-0.960,0.146,-0.284,-72.703,21.982,-5.955
1747602436.06,-0.012,-0.084,0.081,-0.983,0.122,-0.215,-73.849,22.705,-5.364
1747602436.08,-0.004,-0.016,-0.048,-0.951,-0.046,-0.249,-74.948,23.395,-4.677
1747602436.10,0.052,0.026,0.047,-0.896,0.104,-0.281,-76.057,24.004,-4.081
1747602436.12,-0.033,0.045,0.004,-0.877,0.106,-0.260,-77.078,24.660,-3.528
1747602436.14,-0.079,0.017,0.011,-0.916,0.117,-0.261,-78.142,25.595,-2.718
1747602436.16,-0.054,-0.015,0.009,-0.910,0.126,-0.262,-79.211,26.643,-1.772
1747602436.18,0.020,-0.018,0.065,-0.957,0.299,-0.239,-80.302,28.253,-0.397
1747602436.20,0.014,-0.008,-0.028,-0.864,0.037,-0.189,-81.329,30.235,1.394
1747602436.22,0.052,-0.018,-0.101,-0.777,-0.043,-0.169,-82.223,32.436,3.649
1747602436.24,0.052,0.010,-0.056,-0.649,-0.036,-0.230,-83.046,34.508,5.781
1747602436.26,-0.034,0.021,-0.056,-0.616,0.061,-0.244,-83.769,35.966,7.251
1747602436.28,-0.092,0.005,0.020,-0.661,0.129,-0.185,-84.519,38.575,9.762
1747602436.30,-0.108,-0.052,0.018,-0.622,0.309,-0.142,-85.188,42.468,13.434
1747602436.32,-0.034,-0.093,0.061,-0.629,0.484,-0.111,-85.792,48.136,18.630
1747602436.34,0.036,0.023,-0.022,-0.532,0.284,-0.110,-86.318,55.198,25.256
1747602436.36,0.059,0.094,-0.035,-0.400,0.253,-0.142,-86.708,61.600,31.392
1747602436.38,0.039,0.031,0.021,-0.315,0.248,-0.154,-87.047,67.423,36.906
1747602436.40,-0.029,-0.046,-0.006,-0.293,0.103,-0.096,-87.293,72.741,42.050
1747602436.42,-0.048,-0.055,0.043,-0.288,0.160,-0.095,-87.473,79.886,49.045
1747602436.44,-0.032,0.004,0.028,-0.215,0.112,-0.149,-87.647,86.183,55.192
1747602436.46,0.075,0.038,0.010,-0.103,0.003,-0.096,-87.801,91.165,60.108
1747602436.48,0.079,0.017,-0.021,0.024,-0.015,-0.049,-87.871,92.085,61.043
1747602436.50,0.010,-0.034,-0.016,0.026,-0.028,-0.050,-87.935,91.162,60.138
1747602436.52,-0.063,-0.007,-0.047,0.050,-0.179,-0.027,-87.969,90.285,59.385
1747602436.54,-0.094,0.034,-0.036,0.117,-0.102,-0.077,-88.028,87.278,56.560
1747602436.56,0.020,0.007,0.007,0.156,0.113,-0.026,-88.072,82.050,51.340
1747602436.58,0.080,-0.020,0.039,0.113,0.077,0.054,-88.030,77.984,47.119
1747602436.60,-0.007,-0.007,-0.042,0.060,-0.027,0.015,-87.956,75.405,44.536
1747602436.62,-0.042,0.026,0.047,0.018,0.148,-0.073,-87.983,73.995,43.072
1747602436.64,-0.004,0.023,0.058,0.016,0.150,-0.079,-88.071,73.056,41.921
1747602436.66,0.055,-0.012,-0.048,0.042,-0.085,-0.045,-88.124,71.506,40.333
1747602436.68,0.100,-0.012,-0.029,0.026,-0.193,-0.024,-88.144,69.959,38.959
1747602436.70,0.023,-0.006,0.033,0.080,-0.184,-0.057,-88.168,67.473,36.693
1747602436.72,-0.077,-0.017,0.042,0.086,-0.143,-0.056,-88.188,63.805,33.212
1747602436.74,-0.123,0.016,0.027,0.069,-0.067,-0.081,-88.213,60.012,29.542
1747602436.76,-0.075,0.017,0.025,0.063,-0.016,-0.088,-88.263,56.384,25.959
1747602436.78,0.022,-0.009,0.024,0.099,-0.026,-0.038,-88.266,52.428,22.020
1747602436.80,0.059,-0.020,-0.016,0.112,-0.059,0.003,-88.202,48.780,18.419
1747602436.82,0.048,-0.010,-0.002,0.126,-0.022,0.059,-88.089,46.669,16.352
1747602436.84,-0.018,0.016,-0.022,0.133,0.070,0.032,-87.942,44.468,14.121
1747602436.86,-0.041,0.008,0.005,0.101,0.007,0.034,-87.825,42.932,12.530
1747602436.88,-0.004,-0.023,0.009,0.103,0.031,0.049,-87.709,41.785,11.366
1747602436.90,0.028,-0.010,-0.009,0.137,-0.101,0.064,-87.557,40.820,10.431
1747602436.92,0.016,0.009,-0.021,0.195,-0.160,0.045,-87.374,39.047,8.823
1747602436.94,-0.029,0.009,-0.001,0.198,-0.107,0.037,-87.161,36.527,6.462
1747602436.96,-0.044,0.003,0.017,0.198,0.020,0.048,-86.960,34.644,4.621
1747602436.98,-0.016,-0.007,0.033,0.161,0.035,0.101,-86.742,33.969,3.901
1747602437.00,0.000,-0.002,0.024,0.160,-0.075,0.117,-86.517,34.119,4.075
1747602437.02,0.018,0.002,0.028,0.215,-0.069,0.100,-86.278,33.761,3.808
1747602437.04,0.013,-0.005,-0.002,0.295,-0.094,0.074,-85.989,32.453,2.574
1747602437.06,0.006,0.012,-0.037,0.380,-0.114,0.066,-85.626,30.410,0.665
1747602437.08,-0.019,0.040,0.020,0.351,-0.098,0.083,-85.226,28.697,-0.948
1747602437.10,-0.050,-0.005,-0.003,0.315,-0.054,0.113,-84.835,27.632,-1.906
1747602437.12,0.026,-0.051,0.039,0.371,0.057,0.141,-84.433,27.184,-2.374
1747602437.14,0.028,0.010,-0.003,0.482,-0.093,0.151,-83.919,26.524,-3.031
1747602437.16,-0.034,0.045,-0.006,0.471,-0.078,0.091,-83.358,25.377,-4.057
1747602437.18,-0.057,0.006,0.012,0.516,0.111,0.074,-82.815,24.130,-5.346
1747602437.20,-0.047,-0.023,0.044,0.504,0.102,0.127,-82.241,23.301,-6.320
1747602437.22,-0.011,0.002,0.045,0.499,0.157,0.166,-81.644,22.916,-6.844
1747602437.24,0.030,0.006,0.045,0.527,0.158,0.181,-81.029,22.863,-7.092
1747602437.26,0.042,-0.008,0.010,0.584,-0.002,0.123,-80.386,22.471,-7.598
1747602437.28,0.075,-0.007,-0.012,0.641,-0.120,0.130,-79.669,21.566,-8.430
1747602437.30,0.087,0.017,0.049,0.641,-0.196,0.166,-78.941,20.894,-8.928
1747602437.32,0.009,0.015,0.015,0.712,-0.200,0.150,-78.146,20.133,-9.467
1747602437.34,-0.102,-0.005,0.016,0.722,-0.281,0.105,-77.331,19.277,-10.080
1747602437.36,-0.122,-0.001,-0.040,0.747,-0.108,0.071,-76.497,18.213,-10.891
1747602437.38,-0.055,0.012,0.050,0.751,0.152,0.101,-75.654,17.575,-11.608
1747602437.40,-0.022,0.015,0.040,0.671,0.278,0.190,-74.826,17.475,-11.970
1747602437.42,0.027,-0.022,0.043,0.649,0.104,0.210,-74.049,17.770,-11.935
1747602437.44,0.014,-0.030,-0.084,0.695,-0.025,0.181,-73.252,17.672,-12.023
1747602437.46,0.032,-0.034,-0.059,0.824,0.084,0.171,-72.364,17.491,-12.270
1747602437.48,-0.024,-0.005,0.019,0.792,0.208,0.191,-71.410,17.372,-12.543
1747602437.50,-0.047,-0.005,0.081,0.684,0.333,0.236,-70.536,17.644,-12.608
1747602437.52,0.012,-0.023,-0.061,0.721,0.153,0.247,-69.708,17.994,-12.532
1747602437.54,0.079,-0.018,-0.077,0.920,-0.044,0.191,-68.740,17.956,-12.655
1747602437.56,0.045,-0.005,-0.132,0.993,-0.113,0.100,-67.608,17.346,-13.159
1747602437.58,-0.041,-0.028,0.086,0.835,0.173,0.054,-66.607,16.832,-13.741
1747602437.60,-0.084,-0.039,0.064,0.755,0.350,0.240,-65.690,16.913,-14.025
1747602437.62,-0.003,0.012,0.041,0.807,0.270,0.358,-64.753,17.457,-13.813
1747602437.64,0.122,0.048,0.026,1.029,0.167,0.266,-63.644,17.788,-13.745
1747602437.66,0.062,0.032,-0.049,1.022,-0.128,0.223,-62.413,17.578,-13.992
1747602437.68,-0.053,0.008,0.082,0.804,-0.096,0.206,-61.343,17.253,-14.163
1747602437.70,-0.006,0.021,0.079,0.657,0.077,0.223,-60.488,17.265,-14.195
1747602437.72,0.065,0.047,0.006,0.691,-0.294,0.292,-59.683,17.251,-14.079
1747602437.74,0.101,0.049,-0.047,0.926,-0.455,0.230,-58.712,16.851,-14.014
1747602437.75,-0.047,0.014,-0.075,0.929,-0.337,0.115,-57.611,16.179,-14.261
1747602437.77,-0.210,-0.063,0.049,0.756,0.033,0.143,-56.647,15.775,-14.507
1747602437.79,-0.122,-0.107,-0.023,0.684,0.149,0.274,-55.788,15.918,-14.505
1747602437.81,0.080,-0.066,0.001,0.807,0.015,0.299,-54.903,16.183,-14.322
1747602437.83,0.107,0.032,-0.107,0.986,-0.115,0.171,-53.819,16.061,-14.364
1747602437.85,0.005,0.055,-0.075,0.931,-0.121,0.044,-52.725,15.651,-14.698
1747602437.87,-0.054,-0.048,0.102,0.764,0.101,0.142,-51.776,15.420,-14.965
1747602437.89,0.044,-0.118,-0.013,0.648,0.052,0.299,-50.935,15.566,-14.927
1747602437.91,0.150,-0.025,0.047,0.714,-0.088,0.313,-50.109,15.749,-14.685
1747602437.93,0.067,0.107,-0.070,0.868,-0.335,0.236,-49.145,15.568,-14.592
1747602437.95,-0.046,0.162,-0.010,0.876,-0.290,0.090,-48.120,15.089,-14.724
1747602437.97,-0.146,0.063,0.011,0.782,-0.144,0.060,-47.176,14.637,-14.992
1747602437.99,-0.059,-0.086,0.042,0.661,-0.017,0.127,-46.364,14.447,-15.144
1747602438.01,0.081,-0.089,0.046,0.676,0.023,0.158,-45.586,14.438,-15.171
1747602438.03,0.088,0.062,-0.020,0.741,-0.105,0.116,-44.771,14.347,-15.246
1747602438.05,-0.012,0.140,-0.027,0.755,-0.236,0.093,-43.903,14.053,-15.370
1747602438.07,-0.083,0.080,-0.030,0.736,-0.230,0.020,-43.063,13.650,-15.568
1747602438.09,-0.014,-0.047,0.012,0.715,-0.160,0.026,-42.254,13.269,-15.804
1747602438.11,0.064,-0.117,-0.028,0.677,-0.118,0.079,-41.467,12.993,-15.968
1747602438.13,0.074,-0.070,-0.004,0.683,-0.133,0.096,-40.688,12.802,-16.067
1747602438.15,0.008,-0.006,-0.009,0.671,-0.210,0.141,-39.901,12.565,-16.122
1747602438.17,0.049,0.003,0.022,0.652,-0.191,0.156,-39.124,12.338,-16.115
1747602438.19,0.069,-0.005,-0.006,0.672,-0.185,0.113,-38.349,12.126,-16.123
1747602438.21,0.038,-0.019,-0.034,0.619,-0.158,0.116,-37.600,11.890,-16.158
1747602438.23,-0.034,-0.006,-0.038,0.585,-0.166,0.106,-36.900,11.696,-16.180
1747602438.25,-0.059,0.028,-0.004,0.574,-0.208,0.149,-36.225,11.496,-16.153
1747602438.27,-0.001,0.035,0.012,0.596,-0.223,0.096,-35.543,11.252,-16.115
1747602438.29,0.081,0.012,-0.015,0.633,-0.239,0.042,-34.837,10.953,-16.195
1747602438.31,0.086,-0.020,-0.014,0.578,-0.210,0.050,-34.144,10.637,-16.266
1747602438.33,-0.004,-0.027,-0.040,0.475,-0.170,0.089,-33.535,10.393,-16.298
1747602438.35,-0.029,-0.019,0.005,0.440,-0.098,0.145,-33.013,10.272,-16.217
1747602438.37,0.029,0.024,-0.001,0.472,-0.121,0.084,-32.481,10.189,-16.145
1747602438.39,0.084,0.044,0.001,0.486,-0.224,0.092,-31.919,9.980,-16.114
1747602438.41,0.039,0.024,-0.030,0.436,-0.220,0.095,-31.378,9.727,-16.077
1747602438.43,0.004,-0.029,-0.023,0.384,-0.158,0.114,-30.898,9.532,-16.004
1747602438.45,-0.012,-0.012,-0.042,0.332,-0.114,0.104,-30.478,9.411,-15.930
1747602438.47,-0.001,0.014,-0.001,0.344,-0.103,0.130,-30.085,9.333,-15.827
1747602438.49,-0.001,0.055,-0.018,0.345,-0.117,0.098,-29.671,9.240,-15.739
1747602438.51,0.014,0.037,0.000,0.301,-0.079,0.074,-29.286,9.155,-15.690
1747602438.53,-0.011,0.006,-0.074,0.246,-0.152,0.080,-28.971,9.046,-15.633
1747602438.55,-0.083,0.042,-0.040,0.253,-0.138,0.036,-28.681,8.883,-15.590
1747602438.57,-0.098,0.086,-0.014,0.267,-0.103,-0.055,-28.386,8.721,-15.647
1747602438.59,-0.008,0.050,-0.016,0.219,-0.094,-0.063,-28.116,8.537,-15.771
1747602438.61,0.083,-0.030,-0.004,0.164,-0.054,-0.001,-27.903,8.422,-15.849
1747602438.63,0.103,-0.022,-0.042,0.138,-0.120,0.079,-27.728,8.332,-15.803
1747602438.65,0.061,-0.000,-0.022,0.137,-0.157,0.060,-27.557,8.215,-15.722
1747602438.67,-0.028,-0.080,-0.035,0.115,-0.129,0.089,-27.405,8.057,-15.642
1747602438.69,-0.044,-0.094,-0.024,0.107,-0.070,0.083,-27.268,7.986,-15.537
1747602438.71,-0.004,-0.015,-0.018,0.148,-0.049,0.060,-27.110,7.963,-15.462
1747602438.73,0.005,0.032,-0.007,0.139,-0.081,0.025,-26.939,7.905,-15.416
1747602438.75,-0.040,-0.028,-0.006,0.164,-0.048,0.027,-26.763,7.821,-15.408
1747602438.77,-0.059,-0.031,-0.007,0.128,0.004,0.031,-26.585,7.805,-15.380
1747602438.79,-0.029,0.020,-0.065,0.133,0.060,0.008,-26.430,7.839,-15.388
1747602438.81,-0.015,0.041,-0.006,0.114,0.105,-0.007,-26.300,7.935,-15.398
1747602438.83,0.005,0.030,-0.013,0.108,0.034,-0.006,-26.167,8.012,-15.433
1747602438.85,0.036,0.046,-0.015,0.103,0.007,-0.037,-26.054,7.980,-15.476
1747602438.87,0.000,0.034,-0.018,0.039,-0.007,-0.039,-25.969,7.946,-15.542
1747602438.89,-0.006,0.010,-0.048,-0.029,0.098,-0.032,-25.974,7.987,-15.585
1747602438.91,0.035,0.017,-0.043,-0.068,0.043,-0.010,-26.041,8.067,-15.597
1747602438.93,0.069,0.041,-0.031,-0.059,-0.041,-0.011,-26.120,8.071,-15.578
1747602438.95,0.021,0.040,-0.009,-0.105,-0.003,-0.057,-26.198,8.021,-15.601
1747602438.97,-0.062,0.004,-0.075,-0.216,0.062,-0.035,-26.397,8.035,-15.634
1747602438.99,0.018,-0.018,-0.061,-0.252,0.087,-0.019,-26.662,8.137,-15.612
1747602439.01,0.082,0.039,-0.072,-0.292,0.001,-0.049,-26.972,8.198,-15.576
1747602439.03,0.033,-0.018,-0.037,-0.363,-0.009,-0.049,-27.355,8.180,-15.558
1747602439.05,-0.043,-0.071,-0.086,-0.468,0.095,-0.060,-27.830,8.220,-15.526
1747602439.07,0.010,-0.030,-0.093,-0.528,0.115,-0.056,-28.393,8.359,-15.500
1747602439.09,0.056,0.009,-0.095,-0.614,0.032,-0.055,-29.046,8.457,-15.432
1747602439.11,0.022,0.029,-0.027,-0.724,0.023,-0.033,-29.802,8.525,-15.338
1747602439.13,-0.015,0.048,-0.054,-0.799,0.026,-0.010,-30.667,8.606,-15.193
1747602439.15,0.027,0.035,-0.043,-0.864,0.023,0.009,-31.612,8.730,-15.004
1747602439.17,0.068,-0.026,-0.026,-0.870,0.008,0.017,-32.586,8.859,-14.777
1747602439.19,0.043,-0.095,-0.046,-0.884,-0.008,0.015,-33.568,8.956,-14.547
1747602439.21,0.015,-0.136,-0.034,-0.947,0.114,0.041,-34.596,9.144,-14.290
1747602439.23,-0.046,-0.128,-0.054,-1.030,0.181,0.075,-35.703,9.489,-13.964
1747602439.25,-0.086,-0.100,-0.002,-1.000,0.218,0.063,-36.844,9.930,-13.573
1747602439.27,-0.060,-0.064,-0.037,-0.955,0.235,-0.004,-37.932,10.368,-13.255
1747602439.29,0.003,-0.039,-0.017,-0.894,0.254,-0.067,-38.981,10.764,-13.041
1747602439.31,0.048,-0.035,-0.037,-0.884,0.211,-0.065,-39.983,11.140,-12.902
1747602439.33,0.066,-0.063,-0.045,-0.943,0.126,-0.001,-41.013,11.464,-12.681
1747602439.35,0.078,-0.080,0.001,-0.997,0.196,0.051,-42.090,11.873,-12.340
1747602439.37,0.054,-0.060,-0.001,-1.040,0.216,0.076,-43.215,12.416,-11.901
1747602439.39,0.013,-0.002,-0.017,-1.012,0.190,0.033,-44.343,12.962,-11.451
1747602439.41,-0.033,0.043,-0.058,-1.043,0.089,-0.035,-45.475,13.372,-11.089
1747602439.43,-0.031,0.021,-0.006,-1.065,0.085,-0.031,-46.663,13.719,-10.738
1747602439.45,0.002,0.008,-0.021,-1.052,0.090,-0.028,-47.845,14.109,-10.353
1747602439.47,0.006,-0.001,-0.031,-1.079,0.122,-0.048,-49.027,14.519,-9.965
1747602439.49,-0.006,-0.025,-0.032,-1.132,0.119,-0.068,-50.270,14.956,-9.570
1747602439.51,0.017,-0.035,0.005,-1.150,0.182,-0.083,-51.547,15.435,-9.163
1747602439.53,0.045,-0.018,0.024,-1.224,0.136,-0.087,-52.884,15.981,-8.720
1747602439.55,0.060,0.020,0.009,-1.198,0.031,-0.069,-54.245,16.495,-8.202
1747602439.57,0.012,0.060,-0.021,-1.170,-0.066,-0.144,-55.564,16.866,-7.721
1747602439.59,-0.034,0.047,-0.048,-1.192,-0.094,-0.216,-56.914,17.053,-7.375
1747602439.61,-0.028,0.002,0.004,-1.208,-0.030,-0.241,-58.303,17.216,-7.087
1747602439.63,0.014,-0.033,0.023,-1.207,0.078,-0.218,-59.698,17.510,-6.785
1747602439.65,0.023,-0.031,-0.005,-1.211,0.025,-0.199,-61.078,17.915,-6.390
1747602439.67,0.030,-0.020,0.014,-1.249,-0.053,-0.249,-62.503,18.284,-5.963
1747602439.69,0.010,-0.005,-0.044,-1.190,-0.075,-0.293,-63.919,18.457,-5.667
1747602439.71,-0.013,-0.002,-0.003,-1.142,-0.005,-0.294,-65.294,18.641,-5.417
1747602439.73,-0.014,-0.024,-0.017,-1.162,0.138,-0.284,-66.634,18.933,-5.161
1747602439.75,0.050,-0.058,0.021,-1.185,0.159,-0.248,-68.013,19.519,-4.757
1747602439.77,0.098,-0.056,-0.058,-1.089,-0.016,-0.210,-69.322,20.095,-4.211
1747602439.79,0.113,-0.019,-0.009,-1.043,-0.042,-0.256,-70.558,20.533,-3.702
1747602439.81,0.032,-0.008,-0.013,-1.063,-0.056,-0.261,-71.781,20.906,-3.256
1747602439.83,-0.067,-0.027,-0.045,-1.056,-0.041,-0.243,-73.014,21.368,-2.708
1747602439.85,-0.075,-0.044,-0.003,-1.046,-0.035,-0.218,-74.226,22.025,-1.984
1747602439.87,-0.006,-0.004,-0.009,-0.975,0.074,-0.231,-75.386,22.779,-1.204
1747602439.89,0.062,0.009,0.016,-0.953,0.196,-0.263,-76.511,23.644,-0.496
1747602439.91,0.032,0.018,-0.051,-0.860,-0.006,-0.220,-77.580,24.505,0.282
1747602439.93,0.000,-0.008,-0.048,-0.783,0.044,-0.212,-78.521,25.260,1.068
1747602439.95,-0.031,-0.048,0.010,-0.814,0.326,-0.245,-79.442,26.286,1.889
1747602439.97,-0.116,-0.023,0.015,-0.849,0.346,-0.209,-80.422,27.801,2.996
1747602439.99,-0.126,0.004,0.015,-0.836,0.352,-0.200,-81.375,29.904,4.757
1747602440.01,0.014,-0.011,0.059,-0.773,0.410,-0.263,-82.308,32.087,6.500
1747602440.03,0.076,0.027,-0.069,-0.688,0.340,-0.281,-83.180,34.008,8.006
1747602440.05,0.031,0.045,-0.027,-0.652,0.319,-0.248,-83.974,36.000,9.633
1747602440.07,-0.061,0.024,0.008,-0.627,0.419,-0.216,-84.712,38.720,11.956
1747602440.09,-0.125,-0.024,0.013,-0.688,0.523,-0.202,-85.427,42.813,15.538
1747602440.11,-0.072,-0.043,0.097,-0.709,0.634,-0.222,-86.176,49.247,21.289
1747602440.13,0.027,-0.013,0.037,-0.643,0.532,-0.210,-86.829,57.543,28.939
1747602440.15,0.115,0.020,-0.007,-0.513,0.534,-0.215,-87.356,67.676,38.497
1747602440.17,0.083,0.025,0.030,-0.435,0.450,-0.194,-87.738,78.717,48.959
1747602440.19,-0.051,0.009,-0.084,-0.314,0.047,-0.172,-87.985,89.571,59.539
1747602440.21,-0.099,-0.019,-0.053,-0.263,0.139,-0.207,-88.183,99.865,69.765
1747602440.23,-0.029,-0.024,0.035,-0.309,0.308,-0.135,-88.280,112.117,81.774
1747602440.25,0.009,-0.020,-0.009,-0.291,0.408,-0.107,-88.238,124.751,93.997
1747602440.27,0.074,-0.032,-0.017,-0.283,0.388,-0.066,-88.104,135.109,103.888
1747602440.29,0.114,0.018,-0.036,-0.199,0.135,-0.058,-87.937,142.261,110.736
1747602440.31,0.119,0.031,-0.034,-0.137,0.010,-0.055,-87.816,146.724,115.120
1747602440.33,0.034,0.007,-0.084,-0.039,-0.138,-0.088,-87.770,149.787,118.254
1747602440.35,-0.067,-0.032,-0.084,-0.004,-0.149,-0.128,-87.824,152.639,121.301
1747602440.37,-0.086,0.001,-0.011,-0.017,0.018,-0.101,-87.867,156.049,124.785
1747602440.39,-0.068,0.022,0.043,-0.065,0.171,-0.023,-87.861,158.327,126.952
1747602440.41,-0.005,-0.012,0.099,-0.075,0.138,0.030,-87.768,159.080,127.507
1747602440.43,0.015,-0.026,0.046,-0.047,0.010,-0.014,-87.708,159.361,127.688
1747602440.45,0.029,-0.008,0.044,-0.048,-0.028,-0.014,-87.662,160.456,128.812
1747602440.47,-0.008,0.019,0.016,-0.003,-0.050,-0.006,-87.642,160.846,129.237
1747602440.49,-0.073,0.022,0.026,-0.029,-0.010,-0.057,-87.631,161.856,130.291
1747602440.51,-0.029,0.004,0.064,-0.042,-0.019,-0.065,-87.605,163.772,132.213
1747602440.53,0.014,-0.012,0.002,-0.003,-0.143,-0.053,-87.591,165.393,133.921
1747602440.55,0.044,-0.018,-0.023,0.006,-0.175,-0.002,-87.593,166.016,134.736
1747602440.57,0.044,-0.002,-0.000,0.052,-0.152,0.032,-87.625,165.364,134.262
1747602440.59,-0.015,0.034,-0.015,0.065,-0.191,0.029,-87.679,163.957,133.053
1747602440.61,-0.069,0.016,0.005,0.076,-0.058,-0.025,-87.749,163.121,132.375
1747602440.63,-0.040,-0.026,-0.000,0.079,0.013,-0.041,-87.849,163.477,132.740
1747602440.65,0.015,-0.021,-0.013,0.076,-0.006,0.026,-87.933,162.995,132.260
1747602440.67,0.018,0.011,-0.011,0.092,0.025,0.088,-88.003,160.161,129.417
1747602440.69,-0.031,0.010,-0.001,0.094,0.055,0.049,-88.073,156.953,126.162
1747602440.71,-0.015,-0.011,0.029,0.073,0.120,0.020,-88.151,155.129,124.241
1747602440.73,0.026,0.004,0.050,0.093,0.093,0.034,-88.221,153.258,122.221
1747602440.75,0.022,-0.006,-0.010,0.098,-0.109,0.037,-88.298,150.030,119.007
1747602440.76,0.043,-0.026,-0.002,0.138,-0.094,0.009,-88.399,146.828,115.941
1747602440.79,0.011,0.023,0.015,0.160,-0.031,-0.023,-88.545,143.676,112.852
1747602440.80,-0.042,0.037,0.037,0.141,-0.026,0.012,-88.668,140.111,109.313
1747602440.83,-0.030,-0.024,-0.005,0.168,-0.030,0.046,-88.766,133.453,102.695
1747602440.85,0.014,-0.035,-0.010,0.254,0.011,0.042,-88.864,122.592,91.837
1747602440.86,-0.017,0.032,0.005,0.247,0.054,0.032,-88.955,107.586,76.803
1747602440.88,-0.047,0.035,0.040,0.221,0.128,0.079,-88.948,93.452,62.555
1747602440.90,-0.022,-0.032,0.045,0.230,0.136,0.121,-88.826,80.931,49.878
1747602440.92,0.023,-0.037,0.041,0.283,0.055,0.110,-88.623,70.366,39.194
1747602440.94,0.023,0.022,-0.007,0.336,-0.007,0.070,-88.379,59.472,28.283
1747602440.96,0.021,0.038,0.015,0.348,-0.027,0.092,-88.090,50.822,19.639
1747602440.98,-0.003,0.004,0.004,0.389,-0.157,0.126,-87.712,44.457,13.376
1747602441.00,-0.004,-0.024,0.036,0.403,-0.122,0.134,-87.281,39.959,9.061
1747602441.02,-0.020,-0.011,0.066,0.439,-0.008,0.133,-86.806,36.412,5.564
1747602441.04,-0.050,0.006,0.023,0.475,-0.084,0.171,-86.287,33.777,2.975
1747602441.06,-0.027,0.017,0.005,0.539,-0.073,0.177,-85.681,31.625,0.918
1747602441.08,-0.004,0.013,0.026,0.560,-0.027,0.149,-85.051,29.621,-1.038
1747602441.10,-0.012,0.001,0.050,0.583,-0.002,0.167,-84.391,27.871,-2.784
1747602441.12,-0.018,-0.005,0.028,0.583,-0.067,0.209,-83.700,26.803,-3.822
1747602441.14,-0.009,-0.007,0.024,0.648,-0.044,0.221,-82.966,25.953,-4.590
1747602441.16,0.048,-0.002,0.028,0.736,0.002,0.248,-82.129,25.162,-5.387
1747602441.18,-0.007,0.019,-0.018,0.760,-0.148,0.205,-81.232,24.303,-6.183
1747602441.20,-0.050,0.010,-0.062,0.709,-0.217,0.126,-80.390,23.022,-7.238
1747602441.22,0.018,-0.014,0.073,0.673,-0.110,0.158,-79.616,21.991,-8.122
1747602441.24,0.031,-0.014,-0.020,0.786,-0.191,0.177,-78.767,21.128,-8.802
1747602441.26,0.045,-0.019,-0.005,0.821,-0.055,0.204,-77.819,20.368,-9.434
1747602441.28,0.032,-0.002,-0.019,0.808,-0.043,0.242,-76.864,19.970,-9.799
1747602441.30,-0.048,-0.013,0.002,0.769,0.076,0.275,-75.918,19.874,-9.909
1747602441.32,-0.022,-0.057,-0.002,0.803,0.134,0.324,-74.952,20.046,-9.864
1747602441.34,0.078,-0.042,0.009,0.725,0.100,0.377,-73.996,20.479,-9.556
1747602441.36,0.089,0.036,0.034,0.745,0.080,0.314,-73.071,20.854,-9.276
1747602441.38,-0.036,0.056,-0.028,0.760,-0.154,0.250,-72.155,20.785,-9.309
1747602441.40,-0.081,-0.014,-0.013,0.808,-0.052,0.206,-71.232,20.422,-9.533
1747602441.42,-0.116,-0.019,-0.004,0.761,0.149,0.179,-70.300,20.162,-9.885
1747602441.44,-0.127,0.007,0.027,0.646,0.331,0.187,-69.482,20.211,-10.126
1747602441.46,-0.074,0.036,-0.045,0.661,0.266,0.222,-68.710,20.466,-10.239
1747602441.48,0.012,0.008,-0.048,0.732,0.214,0.281,-67.853,20.707,-10.267
1747602441.50,0.039,-0.048,-0.086,0.750,0.011,0.256,-66.956,20.821,-10.282
1747602441.52,0.082,-0.084,-0.008,0.798,0.117,0.188,-66.031,20.702,-10.480
1747602441.54,0.059,-0.072,-0.016,0.759,0.034,0.213,-65.120,20.551,-10.749
1747602441.56,0.056,-0.030,0.036,0.687,-0.029,0.292,-64.251,20.525,-10.780
1747602441.58,0.046,0.035,0.037,0.663,-0.070,0.313,-63.416,20.604,-10.633
1747602441.60,0.081,0.072,0.003,0.687,-0.169,0.257,-62.582,20.542,-10.551
1747602441.62,0.068,0.060,-0.003,0.746,-0.278,0.197,-61.728,20.202,-10.643
1747602441.64,-0.007,0.020,0.045,0.722,-0.280,0.194,-60.845,19.703,-10.833
1747602441.66,-0.048,-0.020,-0.002,0.643,-0.120,0.192,-60.031,19.397,-10.939
1747602441.68,-0.084,-0.049,-0.068,0.639,-0.121,0.237,-59.265,19.227,-10.959
1747602441.70,-0.020,-0.028,-0.032,0.745,-0.075,0.188,-58.447,19.088,-10.991
1747602441.72,-0.005,-0.002,-0.015,0.731,-0.012,0.117,-57.579,18.862,-11.208
1747602441.74,-0.003,0.010,0.023,0.692,0.004,0.101,-56.761,18.620,-11.484
1747602441.76,0.073,-0.008,0.059,0.642,0.019,0.171,-56.003,18.502,-11.666
1747602441.78,0.116,-0.019,-0.018,0.649,-0.197,0.263,-55.231,18.410,-11.642
1747602441.80,0.071,0.016,-0.014,0.757,-0.316,0.229,-54.382,18.147,-11.604
1747602441.82,-0.035,0.058,-0.037,0.777,-0.281,0.107,-53.478,17.675,-11.740
1747602441.84,-0.081,0.053,0.062,0.753,-0.159,0.018,-52.625,17.143,-12.090
1747602441.86,0.017,-0.013,0.047,0.636,0.072,0.131,-51.851,16.922,-12.351
1747602441.88,-0.002,-0.042,-0.079,0.648,-0.138,0.234,-51.094,16.878,-12.351
1747602441.90,-0.035,0.017,-0.008,0.788,-0.131,0.122,-50.250,16.690,-12.381
1747602441.92,-0.094,0.077,0.005,0.844,-0.022,-0.090,-49.332,16.292,-12.784
1747602441.94,-0.081,0.047,0.072,0.783,0.043,-0.096,-48.468,15.856,-13.364
1747602441.96,0.044,-0.016,-0.069,0.677,0.076,-0.033,-47.680,15.603,-13.810
1747602441.98,0.116,-0.043,0.008,0.624,-0.073,0.067,-46.968,15.419,-14.071
1747602442.00,0.103,-0.005,0.042,0.665,-0.185,0.104,-46.237,15.170,-14.208
1747602442.02,0.129,0.019,0.043,0.707,-0.171,0.143,-45.442,14.879,-14.304
1747602442.04,0.102,0.017,0.028,0.628,-0.167,0.147,-44.646,14.680,-14.355
1747602442.06,0.091,-0.025,-0.040,0.487,-0.246,0.210,-43.982,14.455,-14.319
1747602442.08,0.092,-0.045,0.007,0.504,-0.324,0.286,-43.384,14.285,-14.110
1747602442.10,-0.022,0.012,-0.006,0.622,-0.365,0.250,-42.678,14.024,-13.909
1747602442.12,-0.106,0.060,0.001,0.697,-0.348,0.149,-41.896,13.624,-13.851
1747602442.14,-0.078,0.077,0.011,0.631,-0.186,0.045,-41.113,13.257,-13.958
1747602442.16,-0.029,0.009,-0.082,0.521,-0.207,0.107,-40.465,12.980,-14.061
1747602442.18,-0.034,-0.043,-0.016,0.567,-0.209,0.134,-39.840,12.743,-14.047
1747602442.20,-0.120,-0.026,-0.027,0.648,-0.168,0.063,-39.129,12.497,-14.094
1747602442.22,-0.118,0.021,-0.007,0.673,-0.100,-0.055,-38.386,12.209,-14.296
1747602442.24,-0.053,0.030,-0.012,0.603,-0.027,-0.152,-37.682,11.931,-14.656
1747602442.26,0.017,-0.033,-0.048,0.454,-0.086,-0.001,-37.122,11.687,-14.942
1747602442.28,0.107,-0.058,0.025,0.485,-0.092,0.151,-36.586,11.581,-14.943
1747602442.30,0.114,0.015,-0.003,0.564,-0.186,0.128,-35.962,11.473,-14.901
1747602442.32,0.107,0.020,0.051,0.602,-0.246,0.102,-35.276,11.206,-14.887
1747602442.34,0.074,-0.021,-0.044,0.488,-0.311,0.083,-34.632,10.872,-14.918
1747602442.36,0.009,-0.069,-0.056,0.436,-0.285,0.215,-34.096,10.564,-14.804
1747602442.38,-0.054,-0.002,-0.005,0.440,-0.231,0.227,-33.562,10.400,-14.587
1747602442.40,-0.042,0.053,0.019,0.491,-0.214,0.170,-33.003,10.218,-14.408
1747602442.42,0.017,0.030,-0.004,0.451,-0.161,0.094,-32.427,10.033,-14.340
1747602442.44,-0.056,-0.030,-0.089,0.347,-0.163,0.132,-31.966,9.872,-14.281
1747602442.46,-0.076,-0.022,-0.010,0.358,-0.078,0.178,-31.542,9.820,-14.121
1747602442.48,0.024,0.042,-0.017,0.422,-0.162,0.095,-31.079,9.737,-14.008
1747602442.50,0.114,0.012,0.015,0.468,-0.287,0.045,-30.555,9.473,-14.017
1747602442.52,0.083,-0.075,-0.041,0.407,-0.305,0.125,-30.047,9.125,-13.999
1747602442.54,0.050,-0.060,-0.025,0.353,-0.200,0.178,-29.585,8.889,-13.851
1747602442.56,-0.038,0.009,-0.033,0.261,-0.132,0.194,-29.218,8.783,-13.656
1747602442.58,-0.087,-0.006,0.010,0.339,-0.017,0.156,-28.848,8.788,-13.463
1747602442.60,-0.067,0.009,-0.061,0.362,-0.062,0.046,-28.435,8.779,-13.391
1747602442.62,-0.064,0.023,-0.030,0.393,-0.060,-0.048,-28.007,8.671,-13.458
1747602442.64,-0.082,0.040,-0.013,0.289,-0.058,-0.084,-27.630,8.512,-13.605
1747602442.66,-0.042,0.022,-0.098,0.199,-0.078,-0.053,-27.370,8.359,-13.742
1747602442.68,0.017,0.018,0.002,0.237,-0.023,-0.050,-27.135,8.250,-13.828
1747602442.70,0.006,0.051,-0.027,0.301,-0.077,-0.091,-26.838,8.143,-13.966
1747602442.72,0.068,-0.003,0.007,0.303,-0.094,-0.106,-26.505,7.958,-14.138
1747602442.74,0.114,-0.088,0.001,0.182,-0.050,-0.085,-26.245,7.797,-14.289
1747602442.76,0.049,-0.066,-0.092,0.081,-0.071,0.007,-26.112,7.681,-14.350
1747602442.78,0.007,0.042,-0.019,0.082,0.022,0.045,-26.025,7.679,-14.294
1747602442.80,0.034,0.089,0.023,0.138,-0.025,0.020,-25.900,7.701,-14.256
1747602442.82,0.047,-0.009,0.011,0.121,-0.067,0.007,-25.738,7.644,-14.247
1747602442.84,0.015,-0.022,-0.018,0.087,-0.031,0.006,-25.618,7.581,-14.240
1747602442.86,0.018,0.023,-0.014,0.093,-0.042,0.008,-25.510,7.549,-14.241
1747602442.88,-0.020,0.022,-0.030,0.063,-0.080,0.015,-25.428,7.468,-14.231
1747602442.90,-0.068,-0.001,-0.011,0.071,0.031,-0.011,-25.354,7.450,-14.232
1747602442.92,-0.046,-0.002,0.012,0.100,0.057,-0.009,-25.261,7.499,-14.251
1747602442.94,0.079,0.053,0.035,0.149,0.011,-0.024,-25.118,7.527,-14.289
1747602442.96,0.110,0.036,0.007,0.117,-0.035,0.007,-24.956,7.487,-14.319
1747602442.98,0.050,-0.011,-0.055,0.082,-0.037,0.048,-24.851,7.453,-14.296
1747602443.00,-0.013,-0.010,0.003,0.096,-0.003,0.038,-24.743,7.450,-14.253
1747602443.02,0.001,-0.022,-0.004,0.153,0.003,0.036,-24.608,7.461,-14.245
1747602443.04,0.025,-0.007,0.001,0.175,-0.020,0.046,-24.410,7.473,-14.207
1747602443.06,-0.007,0.022,-0.027,0.170,-0.009,0.023,-24.209,7.458,-14.195
1747602443.08,-0.032,-0.044,0.012,0.113,0.017,0.000,-24.046,7.460,-14.201
1747602443.10,-0.058,-0.039,-0.064,0.098,0.067,-0.003,-23.922,7.496,-14.216
1747602443.12,-0.047,0.035,-0.012,0.103,0.094,-0.003,-23.815,7.593,-14.228
1747602443.14,0.051,0.054,-0.012,0.088,0.014,-0.028,-23.704,7.646,-14.263
1747602443.16,0.024,-0.005,-0.081,-0.006,-0.033,-0.006,-23.660,7.600,-14.294
1747602443.18,-0.072,0.007,-0.057,-0.045,0.065,0.046,-23.686,7.635,-14.255
1747602443.20,0.047,0.075,-0.053,0.034,0.036,0.033,-23.706,7.729,-14.199
1747602443.22,0.100,0.070,-0.082,-0.041,0.023,-0.027,-23.681,7.730,-14.214
1747602443.24,0.032,-0.053,-0.098,-0.102,0.145,0.027,-23.741,7.849,-14.214
1747602443.26,0.045,-0.004,-0.076,-0.233,0.071,0.008,-23.929,7.964,-14.170
1747602443.28,0.130,0.027,-0.039,-0.344,0.008,0.008,-24.257,8.049,-14.122
1747602443.30,0.083,-0.019,-0.031,-0.512,0.002,0.039,-24.725,8.093,-14.024
1747602443.32,0.015,-0.051,-0.067,-0.643,0.034,0.064,-25.370,8.159,-13.853
1747602443.34,0.029,-0.034,-0.020,-0.760,0.011,0.047,-26.152,8.304,-13.642
1747602443.36,0.068,-0.055,-0.024,-0.891,0.066,-0.012,-27.074,8.410,-13.460
1747602443.38,0.033,-0.067,-0.110,-0.922,0.021,0.012,-28.130,8.548,-13.279
1747602443.40,-0.063,-0.053,-0.048,-0.908,0.092,0.018,-29.148,8.702,-13.037
1747602443.42,-0.074,-0.014,-0.025,-0.954,0.249,-0.056,-30.210,8.952,-12.845
1747602443.44,-0.047,0.011,-0.091,-0.863,0.346,-0.125,-31.262,9.340,-12.742
1747602443.46,-0.031,0.016,-0.086,-0.898,0.371,-0.120,-32.291,9.762,-12.698
1747602443.48,-0.028,-0.034,-0.059,-0.946,0.306,-0.065,-33.307,10.202,-12.574
1747602443.50,0.017,-0.060,0.056,-0.994,0.381,-0.097,-34.431,10.654,-12.420
1747602443.52,0.054,-0.052,0.033,-1.046,0.368,-0.155,-35.591,11.158,-12.328
1747602443.54,0.046,-0.048,-0.052,-1.118,0.194,-0.184,-36.851,11.528,-12.264
1747602443.56,0.026,-0.069,-0.053,-1.198,0.070,-0.172,-38.178,11.720,-12.180
1747602443.58,0.009,-0.102,0.021,-1.348,0.035,-0.160,-39.650,11.861,-12.035
1747602443.60,0.037,-0.107,0.002,-1.358,0.132,-0.156,-41.205,12.076,-11.842
1747602443.62,0.009,-0.066,-0.062,-1.319,0.114,-0.144,-42.737,12.373,-11.636
1747602443.64,-0.028,-0.031,-0.062,-1.319,0.127,-0.108,-44.233,12.672,-11.378
1747602443.66,-0.018,-0.021,-0.031,-1.246,0.140,-0.130,-45.704,13.042,-11.090
1747602443.68,-0.030,-0.012,-0.079,-1.234,0.170,-0.195,-47.113,13.361,-10.886
1747602443.70,-0.072,-0.023,-0.056,-1.195,0.203,-0.249,-48.527,13.651,-10.773
1747602443.72,-0.103,-0.026,-0.018,-1.236,0.336,-0.279,-49.940,14.000,-10.724
1747602443.74,-0.067,-0.049,-0.021,-1.267,0.413,-0.212,-51.398,14.507,-10.606
1747602443.76,0.013,-0.027,-0.004,-1.313,0.452,-0.173,-52.882,15.248,-10.322
1747602443.78,0.047,0.037,-0.009,-1.239,0.358,-0.216,-54.347,15.966,-10.006
1747602443.79,0.004,0.098,0.016,-1.216,0.281,-0.345,-55.781,16.447,-9.855
1747602443.81,-0.025,0.048,-0.027,-1.235,0.265,-0.404,-57.233,16.725,-9.898
1747602443.84,0.021,-0.047,-0.013,-1.334,0.214,-0.358,-58.774,17.012,-9.887
1747602443.85,0.074,-0.061,0.036,-1.369,0.098,-0.316,-60.367,17.361,-9.703
1747602443.87,0.108,-0.018,0.015,-1.332,0.026,-0.319,-61.938,17.643,-9.452
1747602443.89,0.104,0.011,0.022,-1.373,-0.042,-0.333,-63.533,17.876,-9.191
1747602443.91,0.051,0.006,-0.028,-1.380,-0.249,-0.334,-65.143,17.940,-8.922
1747602443.93,0.039,-0.041,-0.070,-1.316,-0.213,-0.344,-66.733,17.912,-8.650
1747602443.95,0.009,-0.071,-0.057,-1.319,-0.093,-0.335,-68.285,17.935,-8.421
1747602443.97,-0.011,-0.077,0.028,-1.345,0.047,-0.272,-69.831,18.284,-8.040
1747602443.99,0.022,-0.046,-0.024,-1.331,0.027,-0.222,-71.383,18.980,-7.350
1747602444.01,0.067,-0.009,-0.007,-1.296,-0.014,-0.211,-72.873,19.801,-6.484
1747602444.03,0.032,-0.022,0.003,-1.166,-0.064,-0.266,-74.287,20.578,-5.644
1747602444.05,-0.040,-0.055,-0.093,-1.125,-0.157,-0.285,-75.622,21.055,-5.002
1747602444.07,-0.061,-0.030,-0.093,-1.030,-0.021,-0.296,-76.885,21.469,-4.456
1747602444.09,-0.056,0.025,0.000,-0.944,0.224,-0.284,-78.059,22.091,-3.927
1747602444.11,-0.066,0.027,0.059,-0.964,0.284,-0.289,-79.175,22.954,-3.391
1747602444.13,-0.037,-0.017,0.033,-1.037,0.127,-0.218,-80.350,24.242,-2.288
1747602444.15,0.011,-0.043,0.082,-0.981,0.284,-0.191,-81.495,26.274,-0.479
1747602444.17,-0.014,0.021,0.041,-0.955,0.370,-0.192,-82.573,29.006,1.896
1747602444.19,-0.058,0.052,0.045,-0.926,0.434,-0.279,-83.633,32.022,4.477
1747602444.21,0.034,-0.009,0.097,-0.924,0.388,-0.266,-84.695,35.652,7.629
1747602444.23,0.085,-0.025,0.049,-0.922,0.230,-0.196,-85.683,41.386,13.029
1747602444.25,0.061,-0.030,-0.012,-0.869,0.056,-0.183,-86.549,50.211,21.714
1747602444.27,-0.004,-0.029,-0.027,-0.742,0.063,-0.267,-87.276,61.828,33.289
1747602444.29,-0.015,-0.005,-0.042,-0.676,0.019,-0.304,-87.877,77.307,48.738
1747602444.31,-0.002,0.061,-0.054,-0.568,0.103,-0.326,-88.273,98.295,69.668
1747602444.33,-0.012,0.042,-0.021,-0.453,0.090,-0.228,-88.388,121.043,92.308
1747602444.35,-0.043,-0.040,-0.008,-0.471,0.220,-0.138,-88.207,139.067,110.195
1747602444.37,-0.046,-0.067,0.057,-0.532,0.415,-0.067,-87.800,151.440,122.203
1747602444.39,-0.060,-0.025,-0.002,-0.463,0.314,-0.094,-87.308,159.311,129.642
1747602444.41,-0.020,0.014,-0.039,-0.384,0.278,-0.179,-86.894,165.348,135.373
1747602444.43,0.026,-0.024,0.003,-0.319,0.240,-0.264,-86.552,171.548,141.261
1747602444.45,0.026,-0.207,0.005,-0.306,0.003,-0.193,-86.233,176.577,146.142
1747602444.47,0.025,-0.133,-0.004,-0.254,-0.220,-0.076,-85.906,178.744,148.456
1747602444.49,0.011,-0.042,-0.025,-0.141,-0.315,-0.087,-85.680,179.584,149.590
1747602444.51,-0.017,0.054,-0.055,-0.073,-0.292,-0.143,-85.559,-179.048,151.351
1747602444.53,-0.011,0.101,0.040,-0.055,0.037,-0.097,-85.487,-177.328,153.196
1747602444.55,-0.032,0.117,0.023,-0.110,-0.091,0.006,-85.402,-176.802,153.747
1747602444.57,-0.030,0.115,0.008,-0.070,-0.166,0.026,-85.283,-177.383,153.335
1747602444.59,-0.019,0.140,0.033,0.014,0.059,-0.053,-85.262,-177.159,153.631
1747602444.61,-0.043,0.010,0.060,0.006,0.213,0.000,-85.272,-176.514,154.106
1747602444.63,-0.084,-0.057,0.030,-0.057,0.090,0.054,-85.245,-176.851,153.579
1747602444.65,-0.044,-0.061,-0.031,0.003,0.088,0.003,-85.207,-177.194,153.161
1747602444.67,0.063,0.006,-0.009,0.120,0.155,-0.019,-85.271,-176.833,153.366
1747602444.69,0.079,0.078,-0.027,0.137,0.069,0.029,-85.426,-176.553,153.506
1747602444.71,0.021,0.023,-0.017,0.138,-0.195,0.069,-85.586,-177.305,152.820
1747602444.73,0.002,-0.038,0.005,0.155,-0.229,0.031,-85.755,-178.274,152.121
1747602444.75,0.007,-0.009,0.084,0.137,-0.049,-0.013,-85.926,-178.425,152.123
1747602444.77,-0.014,0.007,0.055,0.117,-0.036,0.047,-86.080,-178.663,151.929
1747602444.79,-0.036,-0.028,0.046,0.087,0.030,0.090,-86.190,-179.996,150.590
1747602444.81,-0.064,-0.008,0.022,0.098,0.044,0.040,-86.292,178.799,149.348
1747602444.83,-0.025,0.018,0.016,0.102,0.087,0.011,-86.400,178.456,148.932
1747602444.85,0.039,0.013,-0.015,0.189,0.094,0.048,-86.549,178.033,148.386
1747602444.87,0.029,0.015,-0.023,0.179,-0.036,0.088,-86.755,176.583,146.901
1747602444.89,-0.010,-0.004,0.002,0.159,-0.120,0.061,-86.932,174.772,145.180
1747602444.91,0.005,-0.032,0.018,0.139,-0.049,0.046,-87.086,173.398,143.912
1747602444.93,0.019,-0.024,0.008,0.227,-0.048,0.055,-87.277,171.562,142.116
1747602444.95,-0.017,0.003,-0.010,0.287,-0.143,0.087,-87.559,168.461,139.127
1747602444.97,-0.001,0.012,-0.015,0.313,-0.097,0.130,-87.861,163.157,133.977
1747602444.99,-0.010,0.003,-0.002,0.337,0.018,0.125,-88.150,155.619,126.472
1747602445.01,-0.040,-0.003,0.046,0.284,0.087,0.140,-88.380,145.499,116.295
1747602445.03,-0.069,0.008,0.070,0.226,0.146,0.121,-88.501,134.482,105.132
1747602445.05,-0.029,-0.009,0.041,0.260,0.107,0.093,-88.574,123.438,93.938
1747602445.07,0.066,0.004,-0.018,0.389,-0.057,0.102,-88.635,107.900,78.353
1747602445.09,0.079,0.031,-0.028,0.455,-0.176,0.111,-88.571,86.916,57.505
1747602445.11,0.013,0.013,-0.016,0.481,-0.227,0.108,-88.331,68.283,39.097
1747602445.13,-0.067,-0.027,-0.010,0.509,-0.197,0.104,-87.952,54.553,25.615
1747602445.15,-0.078,-0.001,0.025,0.538,-0.039,0.111,-87.468,44.826,16.018
1747602445.17,-0.024,0.040,0.007,0.646,-0.027,0.137,-86.866,37.888,9.088
1747602445.19,0.008,0.031,0.045,0.628,0.011,0.179,-86.163,33.275,4.485
1747602445.21,0.005,-0.016,0.042,0.646,-0.002,0.181,-85.433,30.460,1.653
1747602445.23,-0.006,-0.040,0.056,0.668,0.039,0.197,-84.684,28.422,-0.412
1747602445.25,-0.032,0.000,-0.007,0.754,-0.006,0.205,-83.851,26.719,-2.157
1747602445.27,-0.023,0.036,0.033,0.780,0.000,0.166,-82.981,25.093,-3.779
1747602445.29,-0.017,0.036,0.044,0.805,0.018,0.149,-82.064,23.430,-5.470
1747602445.31,-0.040,-0.014,-0.008,0.791,-0.035,0.153,-81.149,22.084,-6.828
1747602445.33,-0.010,-0.046,0.014,0.764,0.135,0.173,-80.268,21.222,-7.749
1747602445.35,0.035,-0.021,0.024,0.786,0.103,0.192,-79.378,20.725,-8.417
1747602445.37,0.077,0.027,-0.031,0.882,0.029,0.170,-78.382,20.056,-9.160
1747602445.39,0.055,0.030,0.105,0.828,0.151,0.149,-77.417,19.423,-9.906
1747602445.41,-0.047,-0.020,-0.017,0.749,0.052,0.217,-76.500,19.101,-10.384
1747602445.43,-0.032,-0.087,-0.029,0.757,0.066,0.298,-75.595,19.149,-10.372
1747602445.45,0.073,-0.032,-0.008,0.782,0.111,0.345,-74.647,19.497,-10.141
1747602445.47,0.107,0.016,0.014,0.776,0.024,0.336,-73.675,19.804,-9.888
1747602445.49,0.146,-0.004,0.045,0.730,0.125,0.351,-72.741,20.143,-9.627
1747602445.51,0.046,-0.038,-0.044,0.717,-0.043,0.342,-71.823,20.489,-9.331
1747602445.53,-0.076,-0.033,-0.059,0.788,-0.302,0.288,-70.896,20.383,-9.217
1747602445.55,-0.066,0.003,-0.055,0.772,-0.277,0.189,-69.954,19.899,-9.351
1747602445.57,-0.042,0.037,-0.016,0.810,-0.076,0.096,-69.052,19.261,-9.815
1747602445.59,-0.058,0.044,0.027,0.774,0.026,0.152,-68.138,18.823,-10.294
1747602445.61,-0.032,-0.010,-0.005,0.696,0.038,0.241,-67.270,18.717,-10.416
1747602445.63,-0.003,-0.033,-0.010,0.703,0.062,0.218,-66.442,18.800,-10.415
1747602445.65,-0.046,-0.016,-0.042,0.701,-0.051,0.220,-65.601,18.746,-10.475
1747602445.67,-0.061,0.017,-0.061,0.815,0.002,0.170,-64.708,18.576,-10.612
1747602445.69,-0.005,0.025,-0.038,0.867,0.135,0.059,-63.738,18.278,-11.043
1747602445.71,0.009,-0.020,0.008,0.701,0.140,0.087,-62.871,18.023,-11.522
1747602445.73,0.054,-0.073,0.048,0.602,0.078,0.270,-62.105,18.091,-11.598
1747602445.75,0.140,-0.064,0.001,0.586,-0.076,0.313,-61.367,18.315,-11.345
1747602445.77,0.183,-0.010,-0.003,0.708,-0.261,0.265,-60.562,18.279,-11.168
1747602445.79,0.090,0.069,-0.068,0.830,-0.338,0.155,-59.640,17.859,-11.252
1747602445.81,-0.110,0.059,-0.065,0.788,-0.217,0.103,-58.706,17.276,-11.538
1747602445.83,-0.234,-0.046,0.022,0.666,0.044,0.111,-57.883,16.964,-11.786
1747602445.85,-0.135,-0.113,-0.030,0.637,0.141,0.127,-57.134,16.952,-11.947
1747602445.87,0.040,-0.027,0.070,0.744,0.187,0.126,-56.342,17.028,-12.097
1747602445.89,0.065,0.110,0.007,0.829,0.066,0.087,-55.435,16.962,-12.354
1747602445.91,0.023,0.144,-0.019,0.755,0.017,0.002,-54.547,16.698,-12.728
1747602445.93,0.005,0.056,0.016,0.682,-0.040,0.009,-53.761,16.362,-13.131
1747602445.95,0.103,-0.052,0.036,0.610,-0.134,0.110,-53.036,16.045,-13.385
1747602445.97,0.222,-0.087,0.090,0.659,-0.192,0.198,-52.300,15.849,-13.418
1747602445.99,0.238,-0.000,-0.008,0.640,-0.272,0.234,-51.512,15.617,-13.362
1747602446.01,0.111,0.038,-0.019,0.632,-0.399,0.254,-50.737,15.346,-13.238
1747602446.03,-0.036,0.009,-0.040,0.571,-0.330,0.215,-50.011,15.041,-13.106
1747602446.05,-0.109,-0.044,-0.051,0.558,-0.258,0.185,-49.332,14.744,-13.029
1747602446.07,-0.102,-0.055,0.030,0.624,-0.192,0.135,-48.642,14.509,-13.014
1747602446.09,-0.045,0.001,-0.036,0.707,-0.149,0.118,-47.864,14.262,-13.100
1747602446.11,-0.014,0.034,-0.019,0.640,-0.116,0.061,-47.085,14.029,-13.213
1747602446.13,-0.062,-0.014,-0.098,0.631,-0.184,0.002,-46.374,13.717,-13.432
1747602446.15,-0.060,-0.081,-0.023,0.619,-0.216,-0.015,-45.684,13.309,-13.674
1747602446.17,-0.044,-0.023,-0.016,0.632,-0.279,-0.076,-45.003,12.812,-13.975
1747602446.19,0.032,0.048,0.019,0.686,-0.243,-0.087,-44.296,12.234,-14.337
1747602446.21,0.077,0.064,0.017,0.609,-0.072,-0.043,-43.561,11.832,-14.666
1747602446.23,-0.071,-0.011,-0.162,0.455,-0.268,0.064,-42.989,11.523,-14.830
1747602446.25,-0.081,-0.060,0.034,0.547,-0.019,0.118,-42.411,11.367,-14.813
1747602446.27,-0.062,0.020,0.010,0.561,0.047,0.045,-41.757,11.367,-14.859
1747602446.29,0.039,0.050,0.034,0.574,-0.071,0.028,-41.112,11.266,-14.986
1747602446.31,0.128,0.040,0.017,0.513,-0.151,0.017,-40.494,11.072,-15.104
1747602446.33,0.081,-0.015,-0.058,0.398,-0.286,0.098,-39.977,10.801,-15.160
1747602446.35,-0.015,-0.028,0.037,0.419,-0.206,0.143,-39.497,10.552,-15.083
1747602446.37,-0.072,0.001,0.006,0.456,-0.101,0.097,-38.977,10.417,-15.025
1747602446.39,-0.061,0.006,-0.022,0.464,-0.065,0.071,-38.439,10.318,-15.025
1747602446.41,-0.023,-0.001,-0.052,0.468,-0.096,0.055,-37.898,10.207,-15.061
1747602446.43,-0.026,-0.020,-0.022,0.438,-0.030,0.032,-37.378,10.093,-15.118
1747602446.45,-0.039,-0.032,0.022,0.425,0.027,0.050,-36.902,10.055,-15.163
1747602446.47,0.018,0.020,0.028,0.413,0.031,0.025,-36.420,10.093,-15.215
1747602446.49,0.083,0.046,-0.030,0.400,-0.053,0.050,-35.959,10.053,-15.268
1747602446.51,0.066,0.043,-0.047,0.436,-0.138,0.091,-35.478,9.937,-15.262
1747602446.53,0.002,0.034,0.015,0.468,-0.091,0.029,-34.949,9.788,-15.287
1747602446.55,0.004,-0.038,0.002,0.418,-0.064,0.016,-34.440,9.655,-15.375
1747602446.57,0.067,-0.069,-0.006,0.341,-0.057,0.057,-34.014,9.605,-15.414
1747602446.59,0.073,0.031,-0.039,0.351,-0.138,0.121,-33.600,9.502,-15.357
1747602446.61,0.018,0.086,0.012,0.389,-0.141,0.105,-33.165,9.387,-15.281
1747602446.63,-0.013,0.015,-0.004,0.336,-0.146,0.085,-32.729,9.241,-15.230
1747602446.65,-0.003,-0.063,-0.010,0.282,-0.093,0.039,-32.368,9.108,-15.224
1747602446.67,0.013,-0.070,-0.035,0.258,-0.083,0.106,-32.057,9.044,-15.191
1747602446.69,0.045,0.031,-0.025,0.300,-0.099,0.114,-31.724,8.982,-15.095
1747602446.71,0.034,0.038,-0.016,0.330,-0.161,0.101,-31.347,8.867,-15.020
1747602446.73,0.023,-0.038,-0.004,0.329,-0.138,0.091,-30.949,8.721,-14.964
1747602446.75,0.030,-0.070,-0.048,0.269,-0.157,0.095,-30.595,8.599,-14.906
1747602446.77,0.025,-0.012,-0.034,0.257,-0.203,0.124,-30.283,8.441,-14.816
1747602446.79,0.029,0.025,-0.040,0.224,-0.249,0.154,-29.990,8.252,-14.677
1747602446.81,0.017,0.002,-0.038,0.240,-0.283,0.156,-29.706,8.024,-14.489
1747602446.83,0.014,-0.013,0.020,0.250,-0.196,0.144,-29.403,7.827,-14.333
1747602446.85,-0.025,0.049,0.010,0.183,-0.128,0.123,-29.130,7.731,-14.198
1747602446.87,-0.058,0.034,-0.055,0.182,-0.182,0.120,-28.908,7.622,-14.047
1747602446.88,-0.015,0.033,-0.001,0.208,-0.175,0.072,-28.680,7.480,-13.929
1747602446.90,-0.008,0.016,0.009,0.240,-0.145,0.015,-28.413,7.293,-13.910
1747602446.93,-0.034,-0.004,-0.050,0.214,-0.023,-0.011,-28.156,7.157,-13.941
1747602446.94,-0.085,0.001,-0.004,0.216,-0.008,-0.015,-27.923,7.118,-13.978
1747602446.96,-0.056,0.021,-0.028,0.180,0.018,-0.028,-27.707,7.094,-14.014
1747602446.98,-0.002,0.017,0.008,0.206,-0.014,-0.056,-27.506,7.063,-14.100
1747602447.00,0.041,0.017,-0.040,0.180,-0.097,-0.050,-27.294,6.942,-14.184
1747602447.02,0.036,-0.013,-0.008,0.167,-0.029,-0.043,-27.106,6.820,-14.266
1747602447.04,0.020,-0.027,-0.019,0.114,0.028,0.004,-26.940,6.788,-14.305
1747602447.06,0.039,0.010,-0.049,0.111,0.068,0.040,-26.823,6.854,-14.294
1747602447.08,0.004,0.036,-0.048,0.118,0.009,0.035,-26.696,6.919,-14.244
1747602447.10,0.020,-0.007,-0.016,0.108,-0.026,-0.017,-26.562,6.913,-14.249
1747602447.12,0.019,-0.070,-0.005,0.025,-0.026,-0.023,-26.485,6.864,-14.284
1747602447.14,0.002,-0.012,-0.062,-0.063,0.022,0.047,-26.513,6.863,-14.240
1747602447.16,0.006,0.118,-0.019,-0.087,0.077,0.036,-26.591,6.970,-14.157
1747602447.18,0.020,0.025,-0.035,-0.115,0.073,0.019,-26.690,7.081,-14.106
1747602447.20,0.010,-0.029,-0.090,-0.191,-0.014,-0.017,-26.862,7.120,-14.091
1747602447.22,0.003,-0.001,-0.046,-0.235,0.018,-0.023,-27.104,7.124,-14.078
1747602447.24,-0.001,0.043,-0.055,-0.318,0.061,-0.032,-27.409,7.172,-14.074
1747602447.26,0.026,0.031,-0.099,-0.437,0.080,-0.025,-27.849,7.261,-14.055
1747602447.28,0.030,0.063,-0.053,-0.472,0.075,-0.033,-28.370,7.382,-14.009
1747602447.30,-0.010,0.079,-0.038,-0.524,0.047,-0.087,-28.939,7.449,-13.999
1747602447.32,-0.040,-0.003,-0.040,-0.567,0.075,-0.116,-29.567,7.491,-14.051
1747602447.34,-0.008,-0.056,-0.036,-0.671,0.074,-0.097,-30.287,7.561,-14.079
1747602447.36,0.050,-0.051,-0.039,-0.720,0.162,-0.078,-31.087,7.682,-14.078
1747602447.38,0.074,-0.048,-0.041,-0.789,0.194,-0.021,-31.949,7.939,-14.008
1747602447.40,0.074,-0.016,-0.053,-0.844,0.161,-0.031,-32.879,8.205,-13.882
1747602447.42,0.043,-0.002,-0.018,-0.902,0.097,-0.038,-33.868,8.419,-13.760
1747602447.44,0.033,-0.029,0.012,-0.904,0.096,-0.017,-34.903,8.610,-13.616
1747602447.46,0.012,-0.036,-0.025,-0.912,0.079,-0.005,-35.927,8.816,-13.432
1747602447.48,-0.057,0.001,-0.019,-0.910,0.042,-0.040,-36.962,8.991,-13.259
1747602447.50,-0.119,0.028,-0.028,-0.904,0.126,-0.088,-37.987,9.146,-13.151
1747602447.52,-0.102,-0.002,-0.067,-0.903,0.224,-0.094,-39.024,9.392,-13.070
1747602447.54,-0.069,-0.046,0.016,-0.893,0.336,-0.139,-40.056,9.757,-13.014
1747602447.56,-0.049,-0.080,-0.016,-0.920,0.316,-0.150,-41.098,10.132,-13.009
1747602447.58,0.048,-0.081,-0.016,-0.970,0.322,-0.126,-42.202,10.535,-12.945
1747602447.60,0.077,-0.023,-0.018,-0.925,0.314,-0.158,-43.289,10.948,-12.886
1747602447.62,0.015,0.017,-0.027,-0.965,0.251,-0.166,-44.383,11.290,-12.863
1747602447.64,-0.004,-0.009,-0.029,-1.056,0.214,-0.076,-45.542,11.631,-12.733
1747602447.66,0.098,-0.040,-0.015,-1.054,0.265,-0.025,-46.747,12.137,-12.440
1747602447.68,0.155,-0.056,-0.043,-1.063,0.193,-0.031,-47.932,12.649,-12.101
1747602447.70,0.140,-0.067,-0.060,-1.116,0.061,-0.065,-49.146,13.043,-11.771
1747602447.72,0.038,-0.065,-0.015,-1.149,0.006,-0.075,-50.430,13.328,-11.430
1747602447.74,-0.053,-0.050,-0.016,-1.144,0.000,-0.053,-51.728,13.623,-11.061
1747602447.76,-0.068,-0.036,-0.047,-1.150,0.058,-0.036,-53.008,13.987,-10.626
1747602447.78,-0.026,-0.007,-0.004,-1.157,0.183,-0.083,-54.306,14.493,-10.177
1747602447.80,-0.018,0.030,0.019,-1.216,0.262,-0.127,-55.646,15.061,-9.794
1747602447.82,-0.001,0.047,0.002,-1.223,0.212,-0.109,-57.024,15.699,-9.371
1747602447.84,0.031,0.039,0.028,-1.201,0.090,-0.107,-58.398,16.301,-8.862
1747602447.86,0.072,0.019,-0.001,-1.196,0.043,-0.180,-59.743,16.760,-8.408
1747602447.88,0.054,-0.010,-0.047,-1.232,-0.065,-0.243,-61.136,17.048,-8.071
1747602447.90,0.009,-0.040,-0.046,-1.253,-0.147,-0.263,-62.582,17.188,-7.768
1747602447.92,0.027,-0.040,-0.049,-1.220,-0.128,-0.253,-64.024,17.280,-7.465
1747602447.94,0.084,-0.048,-0.005,-1.246,-0.039,-0.249,-65.444,17.519,-7.120
1747602447.96,0.079,-0.040,-0.037,-1.236,-0.118,-0.246,-66.885,17.779,-6.730
1747602447.98,0.073,-0.063,-0.010,-1.269,-0.092,-0.233,-68.334,18.115,-6.245
1747602448.00,0.035,-0.053,-0.105,-1.156,-0.234,-0.248,-69.743,18.379,-5.758
1747602448.02,0.014,-0.034,-0.087,-1.036,-0.144,-0.283,-71.019,18.462,-5.428
1747602448.04,-0.073,-0.040,-0.053,-0.996,-0.010,-0.357,-72.217,18.409,-5.386
1747602448.06,-0.147,-0.016,-0.002,-1.063,0.132,-0.340,-73.463,18.447,-5.436
1747602448.08,-0.121,-0.036,0.020,-1.147,0.279,-0.273,-74.783,18.921,-5.168
1747602448.10,0.014,-0.028,-0.008,-1.016,0.317,-0.211,-76.043,19.847,-4.583
1747602448.12,0.077,-0.018,0.005,-0.950,0.326,-0.244,-77.172,20.857,-3.921
1747602448.14,0.076,0.047,0.032,-0.847,0.383,-0.299,-78.253,21.620,-3.552
1747602448.16,0.032,0.059,-0.018,-0.768,0.169,-0.298,-79.222,22.047,-3.470
1747602448.18,-0.039,0.011,-0.083,-0.837,0.020,-0.335,-80.192,22.164,-3.429
1747602448.20,-0.024,-0.062,0.012,-0.914,0.214,-0.355,-81.272,22.390,-3.326
1747602448.22,-0.030,-0.075,-0.007,-0.819,0.285,-0.302,-82.352,22.941,-3.084
1747602448.24,-0.028,-0.034,-0.035,-0.786,0.198,-0.223,-83.299,23.909,-2.380
1747602448.26,0.009,0.054,0.008,-0.682,0.276,-0.215,-84.172,25.439,-1.103
1747602448.28,-0.010,0.087,-0.008,-0.651,0.358,-0.248,-84.952,26.682,-0.210
1747602448.30,-0.011,0.024,0.106,-0.749,0.515,-0.209,-85.789,28.875,1.481
1747602448.32,-0.090,-0.029,-0.020,-0.659,0.373,-0.171,-86.598,32.930,5.030
1747602448.34,-0.138,-0.054,-0.008,-0.739,0.476,-0.222,-87.363,38.825,10.474
1747602448.36,-0.083,0.001,0.087,-0.674,0.736,-0.252,-88.145,48.705,19.650
1747602448.38,-0.023,0.034,0.024,-0.612,0.600,-0.238,-88.785,67.609,37.774
1747602448.40,0.106,0.025,-0.078,-0.457,0.455,-0.218,-89.124,100.234,69.829
1747602448.42,0.163,0.006,-0.051,-0.384,0.359,-0.195,-89.104,135.718,104.838
1747602448.44,0.080,-0.015,-0.079,-0.349,0.274,-0.168,-88.882,158.586,127.362
1747602448.46,-0.026,-0.048,-0.026,-0.389,0.147,-0.098,-88.500,170.297,138.825
1747602448.48,-0.094,-0.041,-0.036,-0.264,0.095,-0.111,-88.124,175.797,144.209
1747602448.50,-0.076,0.037,-0.052,-0.076,0.167,-0.161,-87.954,-179.339,148.934
1747602448.52,0.008,0.072,-0.007,-0.078,0.388,-0.070,-87.868,-174.999,152.964
1747602448.54,0.029,-0.008,0.005,-0.131,0.354,0.050,-87.750,-174.703,152.808
1747602448.56,0.026,-0.066,-0.027,-0.121,0.225,0.063,-87.596,-176.620,150.557
1747602448.58,-0.004,-0.013,-0.042,0.026,0.022,-0.019,-87.546,-177.116,149.918
1747602448.60,-0.026,0.048,0.003,0.110,-0.078,-0.042,-87.624,-176.009,151.075
1747602448.62,-0.028,0.005,0.020,0.053,-0.076,0.013,-87.727,-175.567,151.609
1747602448.64,-0.012,-0.042,0.032,-0.022,-0.027,0.002,-87.741,-175.969,151.262
1747602448.66,0.019,-0.008,0.020,0.020,-0.092,-0.030,-87.736,-175.661,151.631
1747602448.68,0.030,0.032,0.054,0.020,-0.080,-0.029,-87.761,-174.724,152.682
1747602448.70,-0.015,0.011,0.056,0.021,-0.059,0.034,-87.780,-174.645,152.831
1747602448.72,-0.058,-0.029,0.036,-0.011,-0.050,0.067,-87.790,-176.253,151.281
1747602448.74,-0.062,-0.009,0.025,0.006,-0.003,0.041,-87.774,-178.078,149.483
1747602448.76,-0.058,0.023,0.000,-0.009,0.049,-0.005,-87.777,-178.735,148.809
1747602448.78,-0.012,-0.012,0.045,-0.028,0.122,0.015,-87.738,-178.619,148.812
1747602448.80,0.015,-0.023,-0.001,0.007,-0.040,0.015,-87.722,-178.999,148.366
1747602448.82,0.037,0.015,-0.021,0.028,-0.127,0.018,-87.740,-179.222,148.260
1747602448.84,0.046,0.014,-0.016,0.021,-0.175,0.041,-87.765,179.820,147.468
1747602448.86,0.019,-0.014,0.001,0.021,-0.162,0.037,-87.788,178.595,146.448
1747602448.88,0.009,-0.008,0.021,0.010,-0.161,0.015,-87.805,177.512,145.527
1747602448.90,-0.007,0.010,-0.006,0.022,-0.171,-0.013,-87.826,177.321,145.536
1747602448.92,0.029,-0.006,-0.005,0.001,-0.139,0.039,-87.837,176.317,144.720
1747602448.94,-0.005,-0.012,0.010,0.005,-0.055,0.059,-87.852,174.345,142.859
1747602448.96,-0.051,-0.015,0.022,-0.007,0.003,0.050,-87.814,172.603,141.140
1747602448.98,-0.019,0.006,-0.039,0.056,0.024,0.035,-87.845,171.348,139.861
1747602449.00,0.023,0.048,-0.021,0.048,-0.090,-0.024,-87.905,170.477,139.009
1747602449.02,0.002,0.071,-0.068,0.052,-0.248,-0.135,-87.961,172.507,141.241
1747602449.04,0.010,0.039,-0.038,0.111,-0.199,-0.180,-88.067,177.725,146.739
1747602449.06,0.077,-0.057,0.047,0.115,-0.159,-0.051,-88.210,-177.898,151.308
1747602449.08,0.055,-0.077,0.038,0.086,-0.228,0.069,-88.324,-178.862,150.563
1747602449.10,-0.002,-0.023,0.026,0.106,-0.253,0.062,-88.433,177.849,147.556
1747602449.12,-0.038,0.016,0.026,0.131,-0.171,0.034,-88.576,175.257,145.211
1747602449.14,-0.047,0.020,0.046,0.113,-0.114,0.064,-88.698,171.901,142.011
1747602449.16,-0.047,-0.005,0.001,0.134,-0.092,0.083,-88.815,166.353,136.584
1747602449.18,-0.003,-0.027,0.003,0.186,-0.064,0.083,-88.950,158.981,129.293
1747602449.20,0.011,-0.012,-0.023,0.280,-0.072,0.088,-89.144,146.782,117.173
1747602449.22,0.009,0.014,0.005,0.365,-0.078,0.151,-89.302,121.098,91.565
1747602449.24,-0.031,0.016,-0.011,0.446,-0.075,0.205,-89.195,82.072,52.633
1747602449.26,-0.056,-0.013,0.046,0.441,-0.023,0.236,-88.779,59.105,29.714
1747602449.28,-0.093,-0.012,0.034,0.423,0.006,0.243,-88.270,50.037,20.658
1747602449.30,-0.058,-0.000,0.021,0.453,0.024,0.175,-87.748,44.150,14.745
1747602449.32,0.062,0.014,0.000,0.517,-0.083,0.159,-87.222,39.048,9.659
1747602449.34,0.121,0.014,-0.018,0.573,-0.239,0.186,-86.600,34.881,5.669
1747602449.36,0.093,0.006,-0.049,0.571,-0.328,0.182,-85.933,31.723,2.844
1747602449.38,-0.006,-0.008,-0.017,0.560,-0.196,0.187,-85.261,29.418,0.854
1747602449.40,-0.089,-0.001,0.059,0.528,0.046,0.175,-84.627,28.117,-0.391
1747602449.42,-0.123,0.003,0.003,0.566,0.018,0.197,-83.981,27.159,-1.397
1747602449.44,-0.051,0.008,-0.013,0.632,0.086,0.202,-83.263,26.270,-2.329
1747602449.46,0.030,0.032,0.016,0.712,0.231,0.186,-82.478,25.371,-3.431
1747602449.48,0.031,0.030,0.099,0.615,0.157,0.228,-81.684,24.815,-4.238
1747602449.50,-0.019,-0.021,0.015,0.566,-0.009,0.252,-80.956,24.668,-4.463
1747602449.52,0.024,-0.051,0.049,0.568,-0.073,0.247,-80.261,24.625,-4.455
1747602449.54,0.078,0.009,-0.018,0.724,-0.204,0.166,-79.492,23.984,-4.962
1747602449.56,0.052,0.058,-0.003,0.805,-0.358,0.133,-78.606,22.613,-6.007
1747602449.58,-0.034,0.039,-0.027,0.739,-0.207,0.090,-77.747,21.271,-7.037
1747602449.60,-0.064,-0.033,0.039,0.646,0.038,0.179,-76.953,20.496,-7.732
1747602449.62,-0.048,-0.055,0.057,0.636,0.126,0.283,-76.166,20.599,-7.748
1747602449.64,-0.030,-0.018,-0.003,0.600,0.147,0.335,-75.392,21.095,-7.388
1747602449.66,0.038,0.000,-0.022,0.764,0.114,0.295,-74.550,21.508,-7.128
1747602449.68,0.048,0.010,-0.044,0.770,0.055,0.249,-73.568,21.404,-7.323
1747602449.70,-0.027,0.015,0.091,0.617,-0.003,0.231,-72.767,21.371,-7.410
1747602449.72,-0.109,0.008,-0.065,0.563,-0.016,0.251,-72.026,21.340,-7.397
1747602449.74,0.007,-0.045,0.011,0.759,0.048,0.253,-71.248,21.406,-7.366
1747602449.76,0.114,-0.019,-0.095,0.860,0.017,0.207,-70.259,21.163,-7.659
1747602449.78,0.087,-0.002,-0.005,0.868,0.146,0.097,-69.265,20.728,-8.230
1747602449.80,-0.074,-0.025,0.012,0.687,0.136,0.174,-68.389,20.402,-8.766
1747602449.82,-0.106,-0.059,-0.005,0.597,0.109,0.360,-67.599,20.630,-8.652
1747602449.84,0.030,-0.033,0.017,0.674,0.143,0.352,-66.795,21.130,-8.280
1747602449.86,0.159,0.037,-0.045,0.853,0.053,0.210,-65.853,21.225,-8.308
1747602449.88,0.121,0.071,-0.021,0.867,-0.063,0.073,-64.852,20.724,-8.832
1747602449.89,0.014,0.014,0.133,0.847,-0.027,0.072,-63.919,20.133,-9.465
1747602449.91,-0.085,-0.029,-0.095,0.781,-0.191,0.155,-62.999,19.630,-9.882
1747602449.93,-0.032,-0.028,-0.004,0.881,-0.151,0.120,-62.060,19.110,-10.220
1747602449.95,0.006,0.014,-0.031,0.964,-0.165,0.040,-61.019,18.470,-10.768
1747602449.97,-0.010,0.047,0.002,0.885,-0.011,0.047,-59.991,17.829,-11.358
1747602449.99,-0.022,0.021,0.075,0.718,0.242,0.109,-59.103,17.623,-11.750
1747602450.01,-0.043,-0.022,-0.022,0.713,0.125,0.210,-58.257,17.729,-11.902
1747602450.03,-0.003,-0.030,0.014,0.731,0.063,0.232,-57.406,17.842,-11.885
1747602450.05,0.012,0.019,-0.019,0.879,-0.079,0.130,-56.478,17.724,-12.014
1747602450.07,0.003,0.077,-0.001,0.795,0.028,-0.007,-55.505,17.321,-12.439
1747602450.09,-0.051,0.035,0.015,0.717,0.005,0.003,-54.705,16.982,-12.919
1747602450.11,0.018,-0.023,-0.054,0.703,-0.105,0.150,-53.904,16.700,-13.157
1747602450.13,0.040,-0.014,0.048,0.857,-0.109,0.092,-53.015,16.455,-13.339
1747602450.15,-0.033,0.010,-0.046,0.841,-0.139,0.002,-52.052,15.997,-13.716
1747602450.17,0.034,-0.025,0.008,0.702,0.050,0.025,-51.209,15.654,-14.088
1747602450.19,0.117,-0.070,0.025,0.609,-0.056,0.155,-50.476,15.550,-14.256
1747602450.21,0.153,-0.058,-0.042,0.633,-0.256,0.265,-49.732,15.432,-14.168
1747602450.23,0.072,-0.024,-0.013,0.761,-0.367,0.185,-48.895,15.130,-14.093
1747602450.25,-0.010,0.008,-0.048,0.814,-0.415,0.103,-47.975,14.574,-14.217
1747602450.27,0.016,0.003,0.043,0.709,-0.178,0.110,-47.100,14.093,-14.377
1747602450.29,0.072,-0.050,-0.034,0.553,-0.162,0.211,-46.360,13.948,-14.383
1747602450.31,0.025,-0.040,-0.035,0.560,-0.252,0.292,-45.686,13.834,-14.181
1747602450.33,-0.052,0.027,0.032,0.623,-0.233,0.231,-44.955,13.693,-13.987
1747602450.35,-0.005,0.085,0.017,0.672,-0.242,0.167,-44.177,13.463,-13.929
1747602450.37,0.034,0.104,0.015,0.634,-0.216,0.109,-43.417,13.193,-13.951
1747602450.39,-0.013,0.027,-0.067,0.589,-0.349,0.123,-42.715,12.828,-14.004
1747602450.41,-0.052,-0.051,0.008,0.617,-0.346,0.182,-42.006,12.448,-13.967
1747602450.43,-0.033,-0.037,0.008,0.672,-0.301,0.151,-41.249,12.116,-13.919
1747602450.45,-0.030,0.010,0.003,0.719,-0.288,0.087,-40.445,11.747,-13.963
1747602450.47,-0.012,-0.029,-0.000,0.737,-0.198,0.102,-39.597,11.410,-14.048
1747602450.49,-0.052,-0.080,-0.058,0.602,-0.107,0.137,-38.816,11.226,-14.081
1747602450.51,-0.001,-0.130,-0.022,0.580,-0.068,0.251,-38.117,11.189,-13.958
1747602450.53,0.110,-0.015,0.008,0.628,-0.158,0.234,-37.385,11.186,-13.773
1747602450.55,0.134,0.043,0.053,0.666,-0.250,0.193,-36.619,11.014,-13.653
1747602450.57,0.072,0.005,-0.021,0.638,-0.326,0.223,-35.830,10.744,-13.549
1747602450.59,-0.021,-0.035,-0.029,0.573,-0.193,0.259,-35.104,10.543,-13.366
1747602450.61,-0.098,-0.006,-0.021,0.540,-0.117,0.270,-34.424,10.494,-13.142
1747602450.63,-0.060,0.048,-0.003,0.589,-0.121,0.185,-33.748,10.469,-12.956
1747602450.65,-0.041,0.069,0.004,0.635,-0.204,0.078,-33.018,10.293,-12.934
1747602450.67,-0.088,0.026,-0.040,0.600,-0.145,0.019,-32.315,10.019,-13.029
1747602450.69,-0.154,-0.006,-0.052,0.616,-0.051,-0.025,-31.643,9.818,-13.172
1747602450.71,-0.162,0.029,-0.036,0.583,0.093,-0.081,-30.991,9.769,-13.366
1747602450.73,-0.133,0.047,-0.048,0.572,0.078,-0.133,-30.356,9.734,-13.639
1747602450.75,0.015,0.013,-0.036,0.582,-0.016,-0.214,-29.745,9.615,-13.978
1747602450.77,0.101,-0.089,-0.019,0.533,-0.038,-0.172,-29.154,9.378,-14.357
1747602450.79,0.100,-0.057,0.014,0.470,0.072,-0.112,-28.619,9.292,-14.628
1747602450.81,0.051,0.035,0.022,0.454,0.102,-0.009,-28.097,9.291,-14.809
1747602450.83,0.074,0.069,-0.014,0.382,0.090,0.082,-27.606,9.375,-14.844
1747602450.85,0.205,0.020,-0.036,0.341,-0.084,0.032,-27.188,9.384,-14.850
1747602450.87,0.173,-0.034,-0.024,0.286,-0.179,0.098,-26.821,9.231,-14.835
1747602450.89,0.037,-0.016,-0.042,0.283,-0.174,0.143,-26.479,9.056,-14.736
1747602450.91,-0.023,-0.001,0.021,0.303,-0.068,0.105,-26.122,8.961,-14.633
1747602450.93,-0.068,-0.038,-0.056,0.261,0.047,0.071,-25.793,8.969,-14.591
1747602450.95,-0.054,0.003,-0.073,0.259,0.008,0.047,-25.488,9.019,-14.553
1747602450.97,-0.042,0.071,-0.026,0.259,-0.054,-0.060,-25.195,8.966,-14.610
1747602450.99,-0.038,-0.027,0.015,0.227,-0.062,-0.108,-24.935,8.831,-14.767
1747602451.01,-0.014,-0.049,-0.057,0.210,-0.094,-0.048,-24.692,8.673,-14.908
1747602451.03,0.029,0.068,-0.029,0.215,0.003,-0.027,-24.460,8.611,-14.985
1747602451.05,0.061,0.034,-0.025,0.201,-0.004,-0.014,-24.215,8.583,-15.065
1747602451.07,0.087,-0.061,-0.033,0.125,-0.027,-0.006,-24.034,8.538,-15.108
1747602451.09,0.044,-0.021,-0.034,0.097,-0.040,0.017,-23.905,8.493,-15.121
1747602451.11,0.009,0.068,-0.011,0.106,-0.008,0.019,-23.785,8.463,-15.124
1747602451.13,-0.004,0.040,-0.058,0.033,-0.061,0.014,-23.712,8.420,-15.112
1747602451.15,-0.015,0.004,-0.035,-0.079,0.102,-0.008,-23.734,8.447,-15.111
1747602451.17,-0.014,0.023,-0.054,-0.139,0.028,0.008,-23.850,8.529,-15.092
1747602451.19,0.066,0.052,-0.052,-0.161,-0.027,-0.008,-24.022,8.539,-15.070
1747602451.21,0.009,0.060,-0.046,-0.263,0.013,-0.025,-24.255,8.523,-15.069
1747602451.23,-0.036,-0.000,-0.093,-0.368,0.067,-0.022,-24.623,8.586,-15.028
1747602451.25,-0.026,-0.004,-0.066,-0.395,0.101,-0.125,-25.071,8.675,-15.043
1747602451.27,-0.008,-0.004,-0.073,-0.496,0.069,-0.161,-25.596,8.726,-15.144
1747602451.29,0.037,0.003,-0.073,-0.626,0.074,-0.112,-26.256,8.783,-15.197
1747602451.31,0.019,-0.009,-0.080,-0.704,0.124,-0.106,-27.028,8.885,-15.184
1747602451.33,0.014,-0.007,-0.058,-0.711,0.179,-0.158,-27.856,9.056,-15.190
1747602451.35,-0.008,-0.026,-0.032,-0.773,0.195,-0.172,-28.710,9.233,-15.234
1747602451.37,-0.022,-0.064,-0.025,-0.868,0.230,-0.146,-29.672,9.459,-15.264
1747602451.39,0.052,-0.083,-0.059,-0.953,0.204,-0.074,-30.727,9.739,-15.207
1747602451.41,0.103,-0.049,-0.046,-0.981,0.231,-0.066,-31.830,10.059,-15.065
1747602451.43,0.033,-0.022,-0.057,-1.025,0.189,-0.100,-32.969,10.370,-14.937
1747602451.45,-0.063,-0.025,-0.026,-1.076,0.147,-0.113,-34.168,10.617,-14.819
1747602451.47,-0.084,-0.029,0.005,-1.092,0.222,-0.130,-35.415,10.897,-14.708
1747602451.49,-0.002,-0.026,-0.022,-1.029,0.244,-0.126,-36.624,11.230,-14.591
1747602451.51,-0.006,-0.007,-0.037,-0.955,0.247,-0.219,-37.778,11.549,-14.548
1747602451.53,-0.093,-0.048,-0.033,-1.020,0.289,-0.254,-38.932,11.799,-14.609
1747602451.55,-0.090,-0.122,-0.067,-1.088,0.352,-0.233,-40.163,12.145,-14.642
1747602451.57,-0.012,-0.116,0.027,-1.103,0.451,-0.217,-41.455,12.643,-14.608
1747602451.59,0.035,-0.029,-0.035,-1.000,0.378,-0.237,-42.670,13.128,-14.588
1747602451.61,0.078,0.025,-0.066,-1.046,0.289,-0.272,-43.866,13.494,-14.616
1747602451.63,0.123,-0.036,-0.022,-1.139,0.300,-0.236,-45.153,13.821,-14.606
1747602451.65,0.166,-0.122,-0.030,-1.218,0.192,-0.135,-46.508,14.233,-14.442
1747602451.67,0.194,-0.126,0.009,-1.206,0.128,-0.065,-47.881,14.687,-14.076
1747602451.69,0.109,-0.048,-0.026,-1.185,0.030,-0.090,-49.219,15.082,-13.670
1747602451.71,0.009,0.009,-0.047,-1.228,-0.038,-0.118,-50.574,15.352,-13.296
1747602451.73,-0.008,0.004,-0.017,-1.292,0.018,-0.086,-51.991,15.669,-12.867
1747602451.75,0.020,-0.007,0.014,-1.333,0.078,-0.016,-53.455,16.210,-12.272
1747602451.77,0.051,0.003,0.001,-1.290,0.076,-0.011,-54.901,16.889,-11.539
1747602451.79,0.016,0.022,-0.036,-1.273,0.022,-0.114,-56.304,17.477,-10.898
1747602451.81,-0.048,-0.012,-0.006,-1.288,0.001,-0.195,-57.759,17.919,-10.394
1747602451.83,-0.061,-0.027,-0.034,-1.320,-0.041,-0.259,-59.254,18.237,-9.987
1747602451.85,-0.015,-0.012,-0.042,-1.298,-0.083,-0.283,-60.779,18.476,-9.633
1747602451.87,0.010,0.000,-0.010,-1.265,-0.057,-0.290,-62.270,18.669,-9.304
1747602451.89,0.000,0.022,-0.009,-1.272,-0.059,-0.307,-63.739,18.890,-8.998
1747602451.91,-0.020,0.007,0.063,-1.291,0.025,-0.322,-65.253,19.161,-8.663
1747602451.93,-0.018,-0.028,-0.010,-1.189,0.006,-0.302,-66.710,19.467,-8.358
1747602451.95,0.029,-0.047,-0.042,-1.163,0.029,-0.289,-68.081,19.816,-7.992
1747602451.97,0.028,-0.038,-0.038,-1.120,0.022,-0.330,-69.424,20.144,-7.678
1747602451.99,-0.005,0.012,-0.016,-1.094,0.038,-0.352,-70.743,20.360,-7.475
1747602452.01,-0.007,-0.002,0.055,-1.074,0.052,-0.326,-72.046,20.631,-7.246
1747602452.03,-0.015,-0.020,0.043,-1.050,0.058,-0.309,-73.305,20.986,-6.932
1747602452.05,-0.023,-0.038,-0.011,-1.041,0.029,-0.301,-74.544,21.411,-6.554
1747602452.07,-0.038,-0.016,-0.035,-0.928,0.030,-0.283,-75.713,21.818,-6.141
1747602452.09,-0.039,-0.005,0.005,-0.870,0.174,-0.295,-76.771,22.222,-5.842
1747602452.11,-0.034,0.021,0.082,-0.981,0.153,-0.261,-77.874,22.918,-5.345
1747602452.13,-0.013,0.024,0.038,-0.986,0.056,-0.237,-79.034,23.993,-4.365
1747602452.15,0.009,0.023,0.038,-0.907,-0.012,-0.250,-80.129,25.141,-3.231
1747602452.17,0.035,-0.011,0.006,-0.803,-0.185,-0.299,-81.150,25.832,-2.405
1747602452.19,0.050,-0.026,-0.019,-0.817,-0.102,-0.332,-82.128,26.109,-1.933
1747602452.21,-0.005,0.001,-0.020,-0.771,-0.080,-0.255,-83.101,26.772,-1.165
1747602452.23,-0.082,0.015,-0.027,-0.787,0.160,-0.169,-83.986,28.529,0.571
1747602452.25,-0.088,-0.016,0.044,-0.808,0.194,-0.140,-84.859,31.928,3.755
1747602452.27,-0.049,-0.025,-0.005,-0.726,0.235,-0.170,-85.689,36.521,8.124
1747602452.29,-0.005,-0.007,-0.051,-0.633,0.166,-0.207,-86.425,41.377,12.745
1747602452.31,0.015,0.007,-0.048,-0.550,0.117,-0.217,-87.084,46.565,17.814
1747602452.33,0.014,-0.002,-0.015,-0.528,0.276,-0.206,-87.660,53.474,24.510
1747602452.35,0.007,0.029,0.010,-0.502,0.306,-0.123,-88.135,64.772,35.470
1747602452.37,-0.017,0.029,0.058,-0.587,0.267,-0.058,-88.392,83.372,53.757
1747602452.39,-0.042,-0.020,0.036,-0.536,0.274,-0.107,-88.411,108.398,78.469
1747602452.41,-0.014,-0.105,-0.071,-0.359,0.156,-0.157,-88.308,126.766,96.611
1747602452.43,0.048,-0.024,-0.133,-0.194,0.093,-0.193,-88.244,139.345,109.047
1747602452.45,0.076,0.108,-0.094,-0.183,-0.001,-0.056,-88.182,147.150,116.813
1747602452.47,-0.010,0.061,-0.012,-0.145,-0.041,0.043,-88.013,150.010,119.697
1747602452.49,-0.103,-0.029,-0.029,-0.049,-0.020,-0.002,-87.892,150.677,120.414
1747602452.51,-0.088,-0.026,-0.044,0.046,0.064,-0.101,-87.938,152.298,121.999
1747602452.53,0.031,-0.005,0.007,0.069,0.173,-0.004,-88.028,153.501,123.073
1747602452.55,0.035,0.006,-0.000,0.088,0.112,0.099,-88.083,150.704,120.088
1747602452.57,-0.072,0.041,-0.026,0.107,0.122,0.039,-88.134,146.786,116.073
1747602452.59,-0.090,0.022,0.090,0.050,0.434,-0.045,-88.231,145.637,114.595
1747602452.61,-0.017,-0.050,0.126,-0.055,0.418,-0.017,-88.252,147.558,115.990
1747602452.63,0.079,-0.073,0.004,-0.109,0.139,0.038,-88.152,149.072,117.184
1747602452.65,0.152,-0.024,-0.005,-0.052,-0.024,0.067,-88.031,149.126,117.183
1747602452.67,0.132,0.037,-0.020,0.038,-0.139,0.018,-87.995,147.834,115.982
1747602452.69,0.014,0.027,-0.070,0.102,-0.199,-0.073,-88.089,147.124,115.474
1747602452.71,-0.044,-0.009,-0.053,0.110,-0.230,-0.090,-88.241,147.613,116.204
1747602452.73,-0.075,0.011,0.000,0.128,-0.244,-0.027,-88.399,146.666,115.537
1747602452.75,-0.074,0.024,0.022,0.105,-0.127,0.023,-88.510,143.439,112.541
1747602452.77,-0.048,0.001,0.031,0.105,-0.006,0.057,-88.577,138.780,107.944
1747602452.79,-0.033,-0.029,0.047,0.091,0.079,0.056,-88.609,133.936,103.061
1747602452.81,-0.025,-0.003,0.066,0.076,0.102,0.055,-88.631,129.198,98.206
1747602452.83,-0.019,0.016,0.008,0.088,0.049,0.043,-88.643,125.125,94.043
1747602452.85,0.015,0.001,-0.032,0.193,-0.011,0.026,-88.700,118.852,87.749
1747602452.87,0.049,0.007,-0.010,0.217,-0.045,0.029,-88.768,108.913,77.837
1747602452.89,0.022,0.014,-0.006,0.175,-0.201,0.035,-88.792,98.447,67.496
1747602452.91,-0.010,-0.004,0.000,0.212,-0.299,0.052,-88.757,88.343,57.690
1747602452.93,-0.011,-0.016,0.050,0.202,-0.187,0.078,-88.654,77.797,47.443
1747602452.94,-0.003,-0.011,0.073,0.234,-0.036,0.096,-88.482,69.205,38.951
1747602452.97,-0.026,0.003,0.019,0.242,-0.158,0.106,-88.257,62.250,32.091
1747602452.99,-0.016,0.011,-0.008,0.283,-0.179,0.097,-88.007,56.079,26.124
1747602453.00,-0.004,0.036,-0.005,0.347,-0.130,0.077,-87.708,49.822,20.038
1747602453.02,-0.012,0.024,0.031,0.346,-0.048,0.063,-87.383,44.304,14.615
1747602453.04,-0.030,-0.016,-0.016,0.404,-0.097,0.103,-86.998,39.714,10.092
1747602453.06,-0.032,-0.036,-0.018,0.451,-0.063,0.142,-86.531,36.283,6.766
1747602453.08,0.009,0.003,0.013,0.486,0.029,0.160,-85.988,33.800,4.289
1747602453.10,0.016,0.026,0.029,0.474,-0.011,0.133,-85.439,31.693,2.159
1747602453.12,0.022,-0.002,-0.004,0.595,-0.091,0.147,-84.839,29.665,0.170
1747602453.14,-0.006,0.001,-0.020,0.596,-0.089,0.142,-84.144,27.575,-1.808
1747602453.16,-0.036,0.027,0.052,0.548,-0.051,0.115,-83.504,26.045,-3.277
1747602453.18,-0.022,-0.016,0.056,0.544,0.007,0.108,-82.890,24.706,-4.590
1747602453.20,0.079,-0.045,0.035,0.529,-0.014,0.157,-82.268,23.817,-5.500
1747602453.22,0.068,0.006,0.006,0.542,-0.187,0.183,-81.636,23.265,-5.957
1747602453.24,0.054,0.031,0.016,0.542,-0.320,0.183,-80.981,22.677,-6.255
1747602453.26,0.069,-0.003,-0.018,0.426,-0.391,0.191,-80.385,22.118,-6.385
1747602453.28,0.069,-0.072,-0.057,0.489,-0.218,0.188,-79.863,21.945,-6.214
1747602453.30,-0.036,-0.016,-0.049,0.711,-0.175,0.149,-79.133,21.263,-6.686
1747602453.32,-0.101,0.057,-0.031,0.663,-0.220,0.162,-78.327,20.447,-7.301
1747602453.34,-0.164,0.026,-0.011,0.620,-0.139,0.169,-77.582,19.869,-7.643
1747602453.36,-0.109,-0.036,-0.013,0.704,-0.020,0.210,-76.807,19.575,-7.879
1747602453.38,0.023,-0.056,-0.018,0.801,0.069,0.242,-75.905,19.407,-8.068
1747602453.40,0.108,-0.021,0.020,0.818,0.181,0.278,-74.914,19.409,-8.213
1747602453.42,0.060,0.016,0.015,0.759,0.077,0.288,-73.967,19.619,-8.162
1747602453.44,0.004,0.027,0.037,0.709,0.079,0.300,-73.069,19.814,-8.042
1747602453.46,-0.074,0.023,-0.007,0.800,0.004,0.243,-72.147,19.884,-8.023
1747602453.48,-0.037,-0.007,-0.012,0.838,0.079,0.196,-71.184,19.669,-8.291
1747602453.50,0.000,-0.011,0.013,0.807,0.055,0.208,-70.204,19.418,-8.631
1747602453.52,-0.002,-0.008,0.085,0.716,0.175,0.245,-69.321,19.458,-8.726
1747602453.54,-0.000,-0.000,0.026,0.732,0.246,0.224,-68.443,19.650,-8.782
1747602453.56,0.030,0.013,-0.066,0.819,-0.017,0.122,-67.541,19.524,-9.090
1747602453.58,0.104,0.021,-0.043,0.902,-0.126,0.131,-66.572,18.968,-9.571
1747602453.60,0.060,0.022,0.046,0.773,0.055,0.121,-65.583,18.490,-10.038
1747602453.62,-0.037,-0.044,0.150,0.634,0.150,0.268,-64.753,18.491,-10.170
1747602453.64,-0.033,-0.039,-0.015,0.519,0.136,0.385,-64.026,19.025,-9.792
1747602453.66,0.026,0.014,-0.062,0.738,-0.053,0.273,-63.228,19.363,-9.472
1747602453.68,0.016,0.091,-0.082,0.887,-0.216,0.084,-62.261,18.954,-9.753
1747602453.70,-0.113,0.074,-0.034,0.851,-0.095,0.010,-61.302,18.218,-10.337
1747602453.72,-0.139,-0.034,0.045,0.784,0.229,0.098,-60.405,17.869,-10.834
1747602453.74,-0.038,-0.079,0.003,0.713,0.188,0.202,-59.532,17.987,-11.029
1747602453.76,0.144,-0.078,0.027,0.709,0.105,0.260,-58.696,18.161,-11.003
1747602453.78,0.207,-0.077,-0.051,0.804,-0.122,0.273,-57.767,18.205,-10.969
1747602453.80,0.139,-0.036,-0.008,0.751,-0.221,0.272,-56.817,18.007,-10.941
1747602453.82,0.049,0.048,0.038,0.584,-0.227,0.259,-55.996,17.830,-10.853
1747602453.84,0.024,0.100,0.014,0.584,-0.373,0.268,-55.291,17.640,-10.679
1747602453.86,-0.019,0.094,-0.032,0.737,-0.521,0.175,-54.479,17.150,-10.644
1747602453.88,-0.195,0.054,-0.044,0.773,-0.544,0.022,-53.618,16.308,-10.893
1747602453.90,-0.267,0.023,-0.018,0.669,-0.140,-0.048,-52.815,15.559,-11.322
1747602453.92,-0.170,-0.030,0.010,0.589,0.143,0.059,-52.146,15.336,-11.647
1747602453.94,0.038,-0.042,-0.035,0.622,0.196,0.179,-51.444,15.492,-11.705
1747602453.96,0.101,-0.011,-0.047,0.736,0.087,0.133,-50.649,15.627,-11.750
1747602453.98,0.051,-0.044,-0.052,0.757,0.035,0.041,-49.792,15.527,-11.959
1747602454.00,0.052,-0.090,-0.031,0.704,-0.005,0.032,-48.976,15.323,-12.262
1747602454.02,0.091,-0.091,0.001,0.643,-0.079,0.078,-48.226,15.120,-12.466
1747602454.04,0.048,-0.031,-0.024,0.678,-0.201,0.106,-47.477,14.853,-12.608
1747602454.06,-0.000,0.009,-0.010,0.707,-0.150,0.113,-46.683,14.551,-12.711
1747602454.08,-0.050,0.026,-0.009,0.754,-0.050,0.071,-45.842,14.340,-12.873
1747602454.10,-0.026,0.007,0.034,0.716,0.008,0.079,-45.002,14.197,-13.054
1747602454.12,0.074,0.021,0.044,0.684,-0.119,0.124,-44.205,14.059,-13.167
1747602454.14,0.165,0.043,0.045,0.700,-0.220,0.144,-43.404,13.831,-13.225
1747602454.16,0.110,0.029,-0.049,0.692,-0.377,0.145,-42.588,13.452,-13.258
1747602454.18,-0.025,-0.014,-0.003,0.662,-0.280,0.137,-41.801,13.052,-13.286
1747602454.20,-0.090,-0.033,0.024,0.644,-0.161,0.146,-41.043,12.773,-13.297
1747602454.22,-0.002,-0.009,0.006,0.681,-0.118,0.156,-40.271,12.652,-13.291
1747602454.24,0.076,0.040,-0.020,0.732,-0.260,0.143,-39.443,12.429,-13.301
1747602454.26,0.082,-0.010,-0.068,0.725,-0.328,0.090,-38.592,12.040,-13.362
1747602454.28,-0.020,-0.088,-0.061,0.652,-0.277,0.089,-37.797,11.620,-13.457
1747602454.30,-0.087,-0.118,0.040,0.640,-0.126,0.122,-37.069,11.382,-13.486
1747602454.32,-0.054,-0.020,0.030,0.691,-0.035,0.142,-36.289,11.307,-13.480
1747602454.34,0.006,0.097,-0.007,0.719,-0.119,0.079,-35.475,11.194,-13.517
1747602454.36,-0.014,0.090,-0.032,0.702,-0.180,0.030,-34.648,10.939,-13.639
1747602454.38,-0.064,0.003,-0.033,0.566,-0.222,0.061,-33.938,10.647,-13.760
1747602454.40,0.008,-0.050,0.023,0.545,-0.139,0.108,-33.294,10.422,-13.776
1747602454.42,0.115,0.003,0.046,0.533,-0.117,0.117,-32.665,10.290,-13.766
1747602454.44,0.103,0.066,-0.035,0.481,-0.175,0.165,-32.089,10.202,-13.693
1747602454.46,-0.026,0.070,-0.066,0.510,-0.119,0.175,-31.481,10.083,-13.575
1747602454.48,-0.153,-0.001,-0.076,0.502,-0.062,0.079,-30.897,9.993,-13.512
1747602454.50,-0.104,-0.100,-0.024,0.531,-0.027,-0.018,-30.309,9.924,-13.579
1747602454.52,0.073,-0.154,-0.042,0.446,-0.143,0.001,-29.755,9.763,-13.697
1747602454.54,0.135,0.046,-0.018,0.447,-0.237,-0.014,-29.249,9.481,-13.812
1747602454.56,0.046,0.067,0.030,0.392,-0.122,0.072,-28.777,9.237,-13.870
1747602454.58,-0.028,0.034,-0.030,0.340,-0.002,0.163,-28.344,9.206,-13.784
1747602454.60,0.023,0.050,-0.026,0.389,-0.052,0.118,-27.905,9.243,-13.668
1747602454.62,0.069,0.015,-0.078,0.407,-0.241,0.031,-27.429,9.088,-13.661
1747602454.64,-0.013,-0.033,0.022,0.450,-0.278,-0.053,-26.946,8.724,-13.756
1747602454.66,-0.099,-0.054,0.017,0.347,-0.097,-0.038,-26.497,8.441,-13.909
1747602454.68,-0.108,-0.031,-0.077,0.312,-0.065,0.069,-26.135,8.343,-13.935
1747602454.70,0.001,0.070,-0.030,0.289,-0.014,0.038,-25.783,8.332,-13.906
1747602454.72,0.069,0.037,-0.010,0.302,-0.065,-0.016,-25.449,8.263,-13.967
1747602454.74,0.039,-0.019,0.032,0.284,-0.057,0.005,-25.116,8.155,-14.035
1747602454.76,0.015,0.030,0.004,0.269,0.042,0.065,-24.795,8.137,-14.043
1747602454.78,-0.027,0.066,-0.061,0.262,0.023,0.041,-24.486,8.163,-14.029
1747602454.80,-0.009,0.024,-0.046,0.284,0.060,0.041,-24.166,8.223,-14.030
1747602454.82,0.029,-0.030,-0.032,0.250,0.003,0.035,-23.862,8.262,-14.030
1747602454.84,-0.021,0.041,0.047,0.244,0.031,-0.012,-23.578,8.264,-14.081
1747602454.86,-0.006,-0.006,-0.050,0.163,-0.007,-0.015,-23.347,8.266,-14.139
1747602454.88,0.013,0.043,-0.077,0.159,0.035,-0.062,-23.175,8.231,-14.232
1747602454.90,-0.062,0.052,-0.011,0.151,0.055,-0.047,-23.008,8.249,-14.330
1747602454.92,0.025,-0.017,-0.004,0.170,-0.002,-0.047,-22.840,8.252,-14.418
1747602454.94,0.052,-0.033,-0.037,0.120,-0.047,-0.076,-22.690,8.166,-14.520
1747602454.96,0.058,-0.023,-0.027,0.020,-0.031,-0.044,-22.611,8.100,-14.618
1747602454.98,0.025,-0.014,-0.078,-0.048,-0.025,0.034,-22.647,8.067,-14.618
1747602455.00,0.038,0.012,-0.046,-0.089,-0.034,0.027,-22.719,8.070,-14.559
1747602455.02,0.026,-0.037,-0.038,-0.099,-0.057,0.017,-22.818,8.032,-14.511
1747602455.04,0.057,-0.025,-0.025,-0.160,0.002,0.043,-22.953,8.022,-14.448
1747602455.06,0.028,0.075,-0.090,-0.315,0.038,0.093,-23.203,8.113,-14.323
1747602455.08,-0.042,0.091,-0.078,-0.406,-0.020,0.046,-23.605,8.183,-14.173
1747602455.10,-0.068,-0.016,-0.110,-0.495,0.001,-0.047,-24.108,8.202,-14.110
1747602455.12,-0.072,-0.041,-0.127,-0.568,0.034,-0.100,-24.722,8.217,-14.120
1747602455.14,-0.055,-0.032,-0.066,-0.636,0.129,-0.080,-25.423,8.312,-14.123
1747602455.16,-0.020,0.040,0.016,-0.659,0.224,-0.142,-26.177,8.510,-14.141
1747602455.18,0.037,-0.017,-0.049,-0.747,0.205,-0.093,-26.979,8.755,-14.160
1747602455.20,0.077,-0.067,-0.071,-0.870,0.256,-0.045,-27.902,9.036,-14.088
1747602455.22,0.094,-0.064,-0.060,-0.932,0.264,-0.020,-28.934,9.403,-13.931
1747602455.24,0.098,-0.039,-0.012,-0.922,0.180,-0.032,-29.972,9.763,-13.751
1747602455.26,0.035,-0.041,-0.044,-0.949,0.097,-0.068,-31.038,9.987,-13.594
1747602455.28,-0.003,-0.086,-0.003,-0.978,0.208,-0.064,-32.136,10.234,-13.436
1747602455.30,-0.013,-0.096,-0.039,-1.034,0.240,-0.047,-33.277,10.576,-13.266
1747602455.32,0.021,-0.046,-0.013,-1.021,0.286,-0.031,-34.438,11.005,-13.049
1747602455.34,0.021,0.021,-0.027,-0.999,0.209,-0.091,-35.585,11.411,-12.853
1747602455.36,0.033,-0.002,-0.033,-0.984,0.232,-0.136,-36.721,11.717,-12.732
1747602455.38,0.019,-0.064,-0.001,-0.989,0.261,-0.123,-37.856,12.059,-12.633
1747602455.40,0.012,-0.116,-0.023,-1.032,0.248,-0.061,-39.003,12.476,-12.458
1747602455.42,0.057,-0.117,-0.059,-1.062,0.194,-0.022,-40.178,12.915,-12.164
1747602455.44,0.108,-0.068,0.014,-1.098,0.185,-0.047,-41.393,13.336,-11.838
1747602455.46,0.094,-0.009,-0.028,-1.128,0.071,-0.053,-42.643,13.710,-11.521
1747602455.48,0.073,0.016,-0.025,-1.179,0.018,-0.001,-43.929,14.043,-11.121
1747602455.50,0.011,0.021,-0.007,-1.156,-0.063,0.013,-45.224,14.332,-10.652
1747602455.52,-0.017,0.009,0.007,-1.122,-0.051,-0.009,-46.486,14.617,-10.176
1747602455.54,-0.059,-0.014,-0.053,-1.124,-0.041,-0.028,-47.727,14.875,-9.727
1747602455.56,-0.078,-0.037,-0.047,-1.144,0.020,-0.090,-48.987,15.171,-9.318
1747602455.58,-0.111,-0.047,0.013,-1.178,0.160,-0.123,-50.306,15.531,-8.964
1747602455.60,-0.112,-0.020,-0.017,-1.235,0.234,-0.116,-51.669,16.055,-8.587
1747602455.62,-0.029,0.013,-0.002,-1.238,0.257,-0.091,-53.063,16.720,-8.116
1747602455.64,0.036,0.049,0.004,-1.203,0.203,-0.129,-54.430,17.384,-7.615
1747602455.66,0.038,0.064,0.006,-1.164,0.200,-0.205,-55.769,17.932,-7.227
1747602455.68,0.021,0.020,-0.000,-1.223,0.174,-0.230,-57.135,18.435,-6.892
1747602455.70,0.022,-0.032,0.004,-1.288,0.092,-0.237,-58.586,18.932,-6.495
1747602455.72,0.026,-0.015,-0.009,-1.235,-0.065,-0.271,-60.047,19.291,-6.100
1747602455.74,0.030,0.017,-0.003,-1.161,-0.121,-0.317,-61.448,19.404,-5.819
1747602455.76,0.028,0.015,-0.030,-1.172,-0.152,-0.346,-62.822,19.402,-5.654
1747602455.78,0.036,-0.025,0.011,-1.207,-0.141,-0.322,-64.241,19.408,-5.448
1747602455.80,0.050,-0.059,-0.017,-1.183,-0.050,-0.271,-65.642,19.589,-5.126
1747602455.82,0.041,-0.072,-0.046,-1.211,-0.068,-0.270,-67.023,19.926,-4.702
1747602455.84,0.021,-0.055,0.001,-1.220,-0.068,-0.239,-68.439,20.348,-4.155
1747602455.86,0.034,-0.020,0.003,-1.150,-0.088,-0.210,-69.797,20.896,-3.481
1747602455.88,0.029,0.017,-0.005,-1.098,-0.066,-0.226,-71.093,21.499,-2.755
1747602455.90,-0.014,0.021,-0.079,-1.034,-0.115,-0.243,-72.306,21.966,-2.142
1747602455.92,-0.048,-0.014,-0.039,-1.110,0.079,-0.275,-73.550,22.548,-1.502
1747602455.94,-0.098,-0.053,0.005,-1.056,0.073,-0.272,-74.814,23.326,-0.805
1747602455.95,-0.018,-0.076,0.003,-1.035,0.167,-0.204,-76.023,24.349,0.130
1747602455.97,0.051,0.007,-0.025,-0.934,0.145,-0.188,-77.145,25.721,1.347
1747602455.99,-0.014,0.066,-0.028,-0.791,0.156,-0.247,-78.125,26.872,2.357
1747602456.01,-0.126,0.053,-0.004,-0.810,0.336,-0.322,-79.071,27.695,2.935
1747602456.03,-0.151,-0.015,0.096,-0.874,0.545,-0.233,-80.087,29.195,3.925
1747602456.05,-0.115,-0.054,0.032,-0.951,0.515,-0.183,-81.085,31.766,5.917
1747602456.07,0.061,-0.067,0.057,-0.837,0.541,-0.211,-82.086,35.002,8.571
1747602456.09,0.188,-0.026,0.015,-0.766,0.281,-0.215,-82.971,38.082,11.182
1747602456.11,0.175,0.088,-0.057,-0.637,-0.022,-0.245,-83.737,40.801,13.784
1747602456.13,0.065,0.067,-0.044,-0.604,-0.147,-0.251,-84.463,43.200,16.322
1747602456.15,-0.064,-0.006,0.022,-0.619,0.102,-0.192,-85.134,46.620,19.780
1747602456.17,-0.150,-0.076,-0.032,-0.576,0.177,-0.177,-85.734,51.560,24.557
1747602456.19,-0.083,-0.069,-0.059,-0.485,0.226,-0.208,-86.278,57.287,30.056
1747602456.21,0.027,0.009,-0.111,-0.295,0.108,-0.216,-86.721,61.859,34.436
1747602456.23,0.103,0.046,-0.149,-0.072,0.113,-0.191,-87.017,62.953,35.425
1747602456.25,0.107,-0.013,0.041,-0.174,0.278,-0.083,-87.223,64.095,36.346
1747602456.27,-0.030,-0.006,0.029,-0.159,-0.020,0.027,-87.319,68.112,40.162
1747602456.29,-0.148,0.008,-0.042,-0.093,0.005,-0.100,-87.394,70.866,42.983
1747602456.31,-0.035,-0.006,0.055,0.020,0.196,-0.195,-87.580,70.386,42.366
1747602456.33,0.083,0.006,0.052,0.029,-0.047,-0.088,-87.727,68.115,39.967
1747602456.35,0.065,-0.001,-0.006,-0.003,-0.248,0.018,-87.748,67.439,39.511
1747602456.37,-0.008,0.008,0.028,0.009,-0.109,-0.037,-87.752,67.211,39.484
1747602456.39,-0.078,0.023,0.022,0.041,-0.119,-0.128,-87.832,65.362,37.757
1747602456.41,-0.027,0.024,0.054,-0.025,-0.095,-0.110,-87.957,63.111,35.629
1747602456.43,0.021,-0.010,0.055,-0.084,-0.089,0.000,-88.032,64.151,36.765
1747602456.45,0.011,-0.032,0.016,-0.086,-0.105,-0.009,-88.070,66.809,39.534
1747602456.47,-0.001,-0.006,-0.009,-0.007,-0.118,-0.077,-88.145,67.654,40.513
1747602456.49,-0.033,0.037,-0.007,0.061,-0.076,-0.083,-88.229,65.314,38.283
1747602456.51,-0.062,0.022,-0.025,0.035,0.010,-0.014,-88.258,62.856,35.857
1747602456.53,-0.050,-0.021,-0.015,-0.006,0.071,0.038,-88.234,63.178,36.134
1747602456.55,-0.014,-0.019,0.019,0.067,0.140,0.040,-88.174,62.980,35.815
1747602456.57,0.024,0.004,0.042,0.100,0.123,0.054,-88.086,61.152,33.822
1747602456.59,0.012,0.021,-0.018,0.091,-0.014,0.053,-87.981,58.770,31.377
1747602456.61,-0.002,-0.009,0.017,0.116,-0.017,0.040,-87.889,56.819,29.447
1747602456.63,-0.025,-0.006,-0.011,0.176,-0.028,0.007,-87.780,53.605,26.257
1747602456.65,-0.029,0.020,0.002,0.165,-0.030,-0.010,-87.667,49.801,22.478
1747602456.67,-0.005,0.030,-0.018,0.187,-0.003,0.018,-87.527,46.421,19.119
1747602456.69,-0.004,-0.013,0.018,0.189,-0.004,0.044,-87.358,43.683,16.379
1747602456.71,0.010,-0.025,0.024,0.226,0.027,0.087,-87.143,41.441,14.119
1747602456.73,-0.004,-0.019,0.006,0.283,0.007,0.122,-86.863,39.401,12.051
1747602456.75,0.012,-0.008,-0.013,0.333,0.020,0.126,-86.500,37.447,10.089
1747602456.77,0.033,0.017,-0.016,0.378,-0.044,0.105,-86.108,35.389,8.025
1747602456.79,0.039,0.026,0.003,0.428,-0.147,0.105,-85.675,33.181,5.921
1747602456.81,0.009,0.020,-0.001,0.513,-0.129,0.109,-85.149,30.636,3.550
1747602456.83,-0.005,-0.020,0.099,0.481,-0.031,0.152,-84.585,28.891,1.870
1747602456.85,-0.041,-0.022,0.012,0.532,-0.154,0.197,-83.980,27.831,0.897
1747602456.87,-0.037,-0.014,-0.023,0.633,-0.132,0.185,-83.292,26.741,-0.003
1747602456.89,-0.013,0.014,-0.021,0.679,0.014,0.114,-82.526,25.217,-1.491
1747602456.91,-0.027,0.032,0.005,0.694,0.001,0.101,-81.769,23.678,-3.062
1747602456.93,-0.035,0.031,0.024,0.685,-0.026,0.161,-80.984,22.526,-4.216
1747602456.95,-0.058,0.008,-0.010,0.672,0.007,0.172,-80.188,21.822,-4.904
1747602456.97,-0.030,-0.025,0.041,0.690,0.143,0.125,-79.403,21.195,-5.640
1747602456.99,0.040,-0.029,0.046,0.746,0.128,0.183,-78.577,20.620,-6.391
1747602457.01,0.062,-0.009,0.036,0.763,0.134,0.316,-77.664,20.600,-6.547
1747602457.03,0.031,0.004,0.042,0.784,0.232,0.291,-76.720,20.980,-6.397
1747602457.05,-0.055,0.008,-0.015,0.838,0.045,0.178,-75.761,20.815,-6.748
1747602457.07,-0.079,0.020,-0.053,0.861,-0.168,0.089,-74.798,19.957,-7.532
1747602457.09,-0.035,0.006,-0.014,0.906,0.078,0.091,-73.807,18.983,-8.464
1747602457.11,-0.030,-0.003,0.049,0.848,0.319,0.179,-72.797,18.587,-9.126
1747602457.13,-0.026,-0.014,0.083,0.739,0.420,0.315,-71.858,18.952,-9.194
1747602457.15,-0.020,-0.026,0.052,0.746,0.332,0.339,-70.955,19.695,-8.888
1747602457.17,0.120,-0.032,-0.080,0.878,0.207,0.257,-69.944,19.981,-8.905
1747602457.19,0.150,0.000,-0.044,0.885,-0.045,0.218,-68.913,19.818,-9.174
1747602457.21,0.058,0.023,0.059,0.802,0.064,0.231,-67.907,19.565,-9.426
1747602457.23,-0.054,0.003,0.042,0.754,0.061,0.252,-66.980,19.592,-9.518
1747602457.25,-0.107,-0.008,-0.042,0.698,-0.149,0.300,-66.095,19.573,-9.467
1747602457.27,0.055,-0.004,-0.041,0.857,-0.087,0.275,-65.161,19.512,-9.399
1747602457.29,0.105,0.024,-0.089,0.934,-0.198,0.183,-64.083,19.104,-9.635
1747602457.31,0.046,0.005,0.113,0.840,0.060,0.165,-63.068,18.748,-9.961
1747602457.33,-0.069,-0.025,0.001,0.754,0.023,0.258,-62.129,18.675,-10.122
1747602457.35,-0.014,-0.051,-0.074,0.794,-0.147,0.313,-61.192,18.661,-10.026
1747602457.37,0.045,-0.023,-0.025,0.944,-0.188,0.191,-60.157,18.439,-10.100
1747602457.39,-0.072,-0.006,-0.082,0.904,-0.185,0.117,-59.066,17.862,-10.461
1747602457.41,-0.097,-0.052,0.069,0.765,0.171,0.130,-58.143,17.627,-10.756
1747602457.43,-0.040,-0.036,-0.042,0.680,0.069,0.266,-57.285,17.724,-10.833
1747602457.47,0.109,0.041,0.020,0.804,-0.054,0.275,-56.412,17.827,-10.718
1747602457.48,0.113,0.072,-0.059,0.978,-0.238,0.166,-55.343,17.547,-10.852
1747602457.49,0.020,-0.002,-0.063,0.836,-0.132,0.073,-54.298,17.014,-11.184
1747602457.51,-0.020,-0.122,0.011,0.718,0.019,0.120,-53.421,16.737,-11.477
1747602457.53,0.113,-0.135,-0.002,0.634,0.029,0.260,-52.635,16.776,-11.485
1747602457.55,0.129,-0.031,-0.017,0.732,-0.202,0.286,-51.804,16.788,-11.341
1747602457.57,0.009,0.065,-0.032,0.880,-0.390,0.172,-50.847,16.447,-11.348
1747602457.59,-0.060,0.109,0.041,0.914,-0.332,0.055,-49.796,15.778,-11.623
1747602457.61,-0.048,0.041,0.017,0.683,-0.072,0.057,-48.900,15.342,-11.930
1747602457.63,0.009,-0.064,-0.027,0.602,-0.083,0.223,-48.175,15.223,-11.985
1747602457.65,-0.020,0.002,0.073,0.694,-0.129,0.197,-47.393,15.161,-11.902
1747602457.67,-0.044,0.130,-0.017,0.804,-0.193,0.089,-46.527,14.907,-11.987
1747602457.69,-0.028,0.173,0.084,0.814,-0.129,-0.029,-45.607,14.474,-12.293
1747602457.71,0.006,0.080,0.002,0.496,-0.026,-0.043,-44.869,14.153,-12.647
1747602457.73,0.041,-0.042,-0.094,0.400,-0.167,0.133,-44.403,13.992,-12.737
1747602459.12,-0.018,0.054,0.052,0.580,-0.161,0.054,-43.822,13.793,-12.749
1747602459.12,-0.134,0.154,-0.046,0.667,-0.174,-0.079,-43.125,13.427,-13.016
1747602459.12,-0.114,0.105,-0.064,0.690,-0.208,-0.144,-42.408,12.903,-13.423
1747602459.13,0.001,-0.019,0.033,0.780,-0.130,-0.234,-41.626,12.358,-13.968
1747602459.14,0.081,-0.151,-0.074,0.540,-0.227,-0.145,-40.926,11.826,-14.485
1747602459.14,0.094,-0.293,-0.048,0.582,-0.201,0.075,-40.321,11.421,-14.702
1747602459.15,0.036,-0.210,-0.015,0.612,-0.045,0.052,-39.632,11.253,-14.764
1747602459.16,0.014,-0.074,0.005,0.600,-0.025,0.060,-38.938,11.144,-14.866
1747602459.16,0.072,-0.032,0.010,0.561,-0.071,0.094,-38.270,11.061,-14.923
1747602459.16,0.035,-0.029,-0.028,0.460,-0.076,0.181,-37.668,11.004,-14.872
1747602459.17,0.008,0.005,-0.004,0.498,-0.091,0.257,-37.097,11.020,-14.677
1747602459.17,0.047,0.091,0.007,0.642,-0.129,0.118,-36.411,10.982,-14.552
1747602459.17,-0.004,0.073,-0.026,0.685,-0.281,0.041,-35.634,10.683,-14.648
1747602459.17,-0.025,-0.050,0.039,0.538,-0.085,0.053,-34.923,10.389,-14.741
1747602459.18,-0.017,-0.121,-0.089,0.419,-0.017,0.198,-34.369,10.383,-14.709
1747602459.18,0.066,0.022,0.002,0.444,0.016,0.219,-33.847,10.519,-14.498
1747602459.18,0.084,0.147,-0.013,0.535,-0.133,0.107,-33.265,10.500,-14.411
1747602459.19,0.011,0.049,-0.036,0.529,-0.243,0.094,-32.641,10.271,-14.428
1747602459.19,-0.029,-0.049,0.014,0.438,-0.109,0.063,-32.070,10.064,-14.434
1747602459.19,-0.005,-0.086,-0.078,0.293,-0.032,0.098,-31.648,9.992,-14.418
1747602459.19,0.035,-0.006,-0.027,0.257,-0.004,0.156,-31.320,10.055,-14.309
1747602459.20,0.011,0.099,-0.045,0.274,-0.096,0.097,-31.000,10.054,-14.191
1747602459.20,-0.018,0.062,-0.028,0.284,-0.128,0.032,-30.666,9.916,-14.178
1747602459.20,-0.011,-0.027,0.009,0.196,-0.088,0.035,-30.377,9.785,-14.198
1747602459.21,0.039,-0.011,-0.083,0.091,-0.084,0.068,-30.221,9.710,-14.169
1747602459.21,0.048,0.061,-0.035,0.041,-0.097,0.083,-30.134,9.660,-14.088
1747602459.21,0.004,0.047,-0.053,0.065,-0.082,0.067,-30.055,9.577,-14.033
1747602459.21,-0.008,-0.004,0.016,0.028,-0.009,0.040,-29.998,9.557,-13.982
1747602459.22,0.033,-0.014,-0.057,-0.016,-0.043,0.055,-29.975,9.579,-13.920
1747602459.22,0.029,0.051,-0.062,-0.056,-0.083,0.016,-30.013,9.519,-13.869
1747602459.22,-0.063,-0.023,-0.045,-0.109,0.024,-0.011,-30.109,9.477,-13.853
1747602459.23,-0.055,-0.053,-0.017,-0.149,0.074,-0.009,-30.257,9.553,-13.833
1747602467.42,-0.002,0.056,-0.037,-0.155,0.090,-0.060,-30.430,9.651,-13.837
1747602467.43,0.016,0.075,-0.048,-0.232,0.066,-0.048,-30.652,9.724,-13.863
1747602467.43,0.033,-0.030,-0.070,-0.336,0.064,-0.041,-30.972,9.785,-13.850
1747602467.44,0.075,-0.036,-0.056,-0.410,0.019,-0.073,-31.403,9.838,-13.854
1747602467.44,0.031,0.005,-0.045,-0.476,-0.067,-0.074,-31.912,9.800,-13.848
1747602467.45,0.010,0.024,-0.041,-0.536,0.038,-0.063,-32.490,9.793,-13.828
1747602467.46,-0.014,0.009,-0.060,-0.639,0.091,-0.013,-33.169,9.914,-13.742
1747602467.47,-0.011,-0.006,-0.053,-0.700,0.151,-0.038,-33.928,10.127,-13.607
1747602467.47,0.017,-0.039,-0.063,-0.768,0.135,-0.069,-34.756,10.349,-13.505
1747602467.48,0.026,-0.051,-0.080,-0.817,0.052,-0.076,-35.671,10.521,-13.405
1747602467.50,0.013,-0.038,-0.035,-0.853,-0.002,-0.074,-36.621,10.612,-13.285
1747602467.50,-0.014,-0.034,-0.038,-0.846,0.086,-0.121,-37.596,10.700,-13.200
1747602467.50,0.000,-0.069,-0.035,-0.914,0.168,-0.095,-38.606,10.903,-13.119
1747602467.50,0.002,-0.079,-0.058,-0.928,0.225,-0.095,-39.660,11.209,-12.991
1747602467.51,-0.013,-0.059,-0.045,-0.926,0.209,-0.135,-40.721,11.533,-12.885
1747602467.52,-0.038,-0.065,-0.054,-1.013,0.214,-0.140,-41.831,11.816,-12.806
1747602467.53,0.017,-0.087,-0.029,-1.054,0.265,-0.097,-43.029,12.191,-12.651
1747602467.53,0.065,-0.066,-0.005,-1.043,0.306,-0.078,-44.216,12.688,-12.427
1747602467.53,0.047,-0.018,-0.060,-1.092,0.212,-0.079,-45.417,13.159,-12.171
1747602467.53,0.047,-0.021,-0.050,-1.140,0.145,-0.044,-46.667,13.588,-11.858
1747602467.54,0.097,-0.066,-0.010,-1.155,0.147,0.008,-47.961,14.080,-11.411
1747602467.55,0.105,-0.059,-0.049,-1.143,0.094,0.008,-49.216,14.613,-10.912
1747602467.55,0.036,-0.035,-0.064,-1.189,-0.031,-0.007,-50.506,15.056,-10.375
1747602467.57,-0.065,-0.018,-0.029,-1.193,-0.032,-0.076,-51.830,15.387,-9.871
1747602467.58,-0.122,-0.024,0.011,-1.185,0.151,-0.142,-53.172,15.780,-9.477
1747602467.60,-0.099,-0.025,-0.012,-1.272,0.226,-0.092,-54.552,16.329,-9.052
1747602467.61,-0.006,0.008,0.006,-1.248,0.305,-0.088,-55.973,17.117,-8.480
1747602467.62,0.041,0.055,-0.009,-1.270,0.261,-0.148,-57.378,17.912,-7.923
1747602467.63,0.040,0.076,0.010,-1.237,0.128,-0.231,-58.801,18.540,-7.463
1747602467.64,0.021,0.051,0.030,-1.218,0.083,-0.277,-60.222,18.926,-7.126
1747602467.65,0.011,-0.004,-0.003,-1.249,0.046,-0.316,-61.669,19.274,-6.831
1747602467.67,0.015,-0.029,-0.044,-1.285,-0.085,-0.344,-63.158,19.480,-6.560
1747602467.68,0.059,-0.039,-0.010,-1.236,-0.108,-0.372,-64.657,19.575,-6.333
1747602467.69,0.053,-0.006,-0.011,-1.195,-0.008,-0.363,-66.095,19.611,-6.191
1747602467.70,0.018,-0.003,0.036,-1.217,0.102,-0.336,-67.526,19.926,-5.951
1747602467.71,-0.040,-0.019,-0.045,-1.217,0.087,-0.321,-68.962,20.317,-5.612
1747602467.72,-0.005,-0.060,-0.005,-1.112,0.281,-0.333,-70.345,20.881,-5.256
1747602467.72,0.004,-0.058,-0.052,-1.131,0.141,-0.338,-71.669,21.411,-4.952
