Time,AccX,AccY,AccZ,GyroX,GyroY,GyroZ,Pitch,Roll,Yaw
1747601895.00,-0.019,-0.013,-0.008,0.046,0.057,0.028,-88.475,10.980,-26.042
1747601895.01,0.005,0.004,-0.003,0.056,0.070,0.024,-88.411,11.600,-25.492
1747601895.03,0.014,0.004,-0.003,0.049,0.063,0.035,-88.345,12.531,-24.641
1747601895.05,-0.001,0.015,0.013,0.059,0.038,0.017,-88.277,13.212,-24.012
1747601895.07,-0.003,0.001,0.014,0.086,0.021,0.008,-88.189,12.792,-24.461
1747601895.09,-0.001,-0.002,0.031,0.049,0.006,0.012,-88.112,12.581,-24.692
1747601895.11,-0.002,-0.012,0.021,0.037,0.005,0.020,-88.058,12.897,-24.372
1747601895.13,-0.001,-0.005,0.039,0.014,0.023,0.018,-88.032,13.351,-23.935
1747601895.15,0.002,0.009,0.035,0.002,0.022,0.002,-88.027,13.656,-23.654
1747601895.17,-0.001,-0.005,0.030,-0.023,0.003,0.003,-88.042,13.758,-23.576
1747601895.19,0.009,-0.005,0.021,-0.023,-0.069,-0.010,-88.082,13.974,-23.323
1747601895.21,0.028,-0.003,0.011,-0.011,-0.102,-0.002,-88.108,13.768,-23.420
1747601895.23,0.022,0.005,0.006,0.005,-0.091,-0.019,-88.122,13.474,-23.605
1747601895.25,-0.012,0.008,0.002,-0.018,-0.066,-0.018,-88.141,12.625,-24.369
1747601895.27,0.001,-0.003,-0.007,0.001,-0.046,-0.005,-88.162,12.400,-24.524
1747601895.29,0.018,-0.023,0.006,0.016,-0.022,0.017,-88.155,12.619,-24.271
1747601895.31,0.013,-0.013,-0.008,0.032,-0.016,0.027,-88.123,13.517,-23.356
1747601895.33,-0.002,0.019,-0.028,0.053,-0.060,0.020,-88.071,13.773,-23.056
1747601895.35,-0.004,0.023,-0.017,0.042,0.036,0.022,-88.006,13.764,-23.042
1747601895.37,-0.013,-0.025,0.028,-0.021,0.081,0.058,-87.989,15.016,-21.866
1747601895.39,-0.018,-0.047,0.003,-0.021,0.010,0.106,-87.979,18.267,-18.673
1747601895.41,0.022,-0.022,0.004,-0.021,-0.007,0.121,-87.962,21.929,-15.013
1747601895.43,0.078,-0.023,-0.020,0.018,-0.093,0.144,-87.893,25.601,-11.289
1747601895.45,0.077,0.034,-0.056,0.068,-0.221,0.125,-87.776,28.549,-8.158
1747601895.47,0.047,0.054,-0.051,0.033,-0.238,0.068,-87.673,29.807,-6.623
1747601895.49,-0.024,0.023,0.002,0.019,-0.143,0.032,-87.619,30.471,-5.736
1747601895.51,-0.056,-0.028,0.030,-0.007,-0.149,-0.005,-87.601,30.465,-5.599
1747601895.53,-0.029,-0.012,-0.005,-0.049,-0.230,-0.016,-87.636,30.535,-5.308
1747601895.55,-0.030,0.023,-0.019,-0.014,-0.159,0.008,-87.674,30.729,-4.867
1747601895.57,-0.080,-0.013,-0.026,0.017,0.038,-0.014,-87.665,30.625,-4.897
1747601895.59,-0.150,0.001,-0.042,0.025,0.275,-0.060,-87.665,29.393,-6.306
1747601895.61,-0.083,0.022,-0.004,0.015,0.491,-0.013,-87.667,28.500,-7.658
1747601895.63,0.057,0.020,0.036,-0.038,0.499,0.058,-87.663,29.864,-6.870
1747601895.65,0.108,-0.019,0.055,-0.118,0.400,0.065,-87.695,32.863,-4.388
1747601895.67,0.119,-0.065,0.075,-0.180,0.219,0.072,-87.796,37.622,0.022
1747601895.69,0.097,-0.038,0.052,-0.134,-0.001,-0.003,-87.902,41.910,4.175
1747601895.71,-0.026,0.060,-0.013,-0.085,-0.225,-0.158,-88.053,42.195,4.608
1747601895.73,-0.077,0.054,-0.035,-0.070,-0.256,-0.222,-88.270,38.063,0.760
1747601895.75,-0.029,-0.014,-0.011,-0.101,-0.213,-0.147,-88.477,33.637,-3.395
1747601895.77,0.007,-0.022,0.013,-0.115,-0.145,-0.060,-88.643,32.053,-4.769
1747601895.79,0.024,-0.041,0.039,-0.115,-0.027,0.017,-88.765,34.369,-2.359
1747601895.81,0.048,-0.024,0.012,-0.110,-0.022,0.064,-88.842,40.151,3.439
1747601895.83,0.077,0.024,-0.040,-0.033,-0.128,0.036,-88.861,45.295,8.669
1747601895.85,-0.002,0.052,-0.044,0.069,-0.241,-0.052,-88.850,43.835,7.422
1747601895.87,-0.118,0.028,-0.010,0.055,-0.148,-0.100,-88.852,37.478,1.302
1747601895.89,-0.088,-0.041,0.047,0.036,-0.024,-0.038,-88.867,32.540,-3.537
1747601895.91,0.018,-0.042,0.062,0.036,0.061,0.062,-88.822,32.371,-3.741
1747601895.93,0.039,0.009,0.039,0.063,0.030,0.085,-88.723,34.499,-1.667
1747601895.95,0.016,0.032,0.049,0.053,0.027,0.038,-88.629,35.360,-0.842
1747601895.97,0.003,0.020,0.034,0.091,0.034,-0.008,-88.556,34.001,-2.227
1747601895.99,-0.005,-0.016,0.061,0.105,-0.022,-0.007,-88.474,31.312,-4.943
1747601896.01,0.005,-0.038,0.043,0.163,-0.059,0.014,-88.342,28.723,-7.478
1747601896.03,0.030,-0.010,0.031,0.193,-0.111,0.056,-88.146,26.849,-9.269
1747601896.05,0.005,0.030,0.004,0.218,-0.179,0.064,-87.902,25.515,-10.424
1747601896.07,0.003,0.011,0.031,0.237,-0.116,0.063,-87.658,24.496,-11.279
1747601896.09,0.001,-0.002,0.041,0.343,-0.154,0.055,-87.338,22.842,-12.796
1747601896.11,-0.028,-0.011,0.019,0.455,-0.164,0.067,-86.901,20.749,-14.687
1747601896.13,-0.017,0.006,0.031,0.515,-0.105,0.090,-86.356,18.936,-16.355
1747601896.15,-0.042,0.013,0.024,0.577,-0.047,0.107,-85.727,17.512,-17.686
1747601896.17,-0.050,-0.012,0.026,0.618,0.047,0.140,-85.039,16.750,-18.454
1747601896.19,-0.065,0.016,-0.005,0.684,0.127,0.155,-84.274,16.332,-18.978
1747601896.21,-0.038,0.003,-0.022,0.814,0.118,0.183,-83.397,15.939,-19.509
1747601896.23,0.034,0.006,0.033,0.850,0.032,0.193,-82.416,15.668,-19.900
1747601896.25,-0.034,-0.016,0.009,0.795,0.108,0.218,-81.439,15.472,-20.122
1747601896.27,-0.041,-0.044,0.061,0.789,0.224,0.250,-80.508,15.791,-20.021
1747601896.29,0.027,0.026,0.007,0.919,0.108,0.232,-79.503,16.033,-19.990
1747601896.31,0.063,0.038,0.001,1.008,-0.092,0.194,-78.363,15.667,-20.353
1747601896.33,0.003,-0.037,0.017,0.959,0.066,0.110,-77.243,14.990,-20.999
1747601896.35,-0.050,-0.049,0.034,0.876,0.214,0.237,-76.166,14.754,-21.206
1747601896.37,-0.048,0.018,0.030,0.844,0.246,0.307,-75.165,15.288,-20.707
1747601896.39,0.013,0.038,0.026,0.914,0.271,0.273,-74.104,15.784,-20.303
1747601896.41,0.049,-0.038,0.003,1.029,0.385,0.247,-72.954,16.045,-19.988
1747601896.43,0.046,-0.028,0.004,0.968,0.215,0.258,-71.761,16.293,-19.735
1747601896.45,-0.019,0.061,0.032,0.862,0.178,0.263,-70.690,16.431,-19.753
1747601896.47,0.042,0.015,0.071,0.883,0.158,0.284,-69.647,16.707,-19.507
1747601896.49,0.021,-0.035,0.005,1.071,-0.072,0.239,-68.511,16.712,-19.562
1747601896.51,-0.033,-0.037,-0.067,1.172,-0.014,0.149,-67.193,16.207,-20.002
1747601896.53,-0.054,0.040,0.012,1.030,0.039,0.098,-65.921,15.732,-20.544
1747601896.55,-0.080,0.084,0.114,0.808,0.280,0.124,-64.885,15.538,-20.953
1747601896.57,-0.073,-0.009,0.073,0.632,0.328,0.226,-64.060,15.866,-20.998
1747601896.59,-0.049,-0.025,0.082,0.763,0.116,0.241,-63.228,16.217,-20.712
1747601896.61,-0.031,0.080,-0.050,0.943,-0.131,0.151,-62.234,16.128,-20.403
1747601896.63,-0.064,0.152,0.052,0.924,0.078,-0.070,-61.146,15.581,-20.573
1747601896.65,-0.167,0.049,0.093,0.783,0.291,-0.029,-60.234,15.210,-20.931
1747601896.67,-0.078,-0.088,0.006,0.634,0.519,0.195,-59.456,15.471,-20.806
1747601896.69,0.184,-0.050,0.017,0.659,0.240,0.289,-58.660,16.054,-20.329
1747601896.71,0.137,0.069,-0.014,0.685,-0.002,0.240,-57.843,16.320,-19.817
1747601896.73,0.017,0.043,-0.024,0.739,0.040,0.174,-56.984,16.291,-19.513
1747601896.75,-0.016,0.003,0.029,0.583,0.103,0.144,-56.214,16.313,-19.270
1747601896.77,0.012,-0.040,-0.012,0.479,0.015,0.200,-55.596,16.433,-18.926
1747601896.79,0.046,-0.070,-0.008,0.597,-0.125,0.251,-54.946,16.491,-18.494
1747601896.81,0.031,-0.031,-0.045,0.620,-0.198,0.202,-54.191,16.373,-18.116
1747601896.83,-0.028,0.039,-0.052,0.610,-0.045,0.131,-53.454,16.187,-17.883
1747601896.85,-0.034,0.025,0.017,0.591,0.099,0.180,-52.747,16.180,-17.670
1747601896.87,0.029,-0.038,-0.017,0.579,0.125,0.247,-52.039,16.376,-17.331
1747601896.89,0.024,-0.089,-0.032,0.575,0.066,0.260,-51.329,16.610,-16.920
1747601896.91,-0.018,-0.054,-0.009,0.582,0.072,0.197,-50.625,16.778,-16.558
1747601896.93,-0.065,0.055,0.015,0.565,0.034,0.152,-49.934,16.836,-16.320
1747601896.95,-0.007,0.132,0.007,0.614,-0.005,0.099,-49.254,16.802,-16.141
1747601896.97,0.002,0.099,0.018,0.668,-0.064,0.074,-48.519,16.613,-16.096
1747601896.99,-0.019,-0.045,0.002,0.633,-0.002,0.140,-47.768,16.440,-16.021
1747601897.01,0.015,-0.125,0.003,0.550,0.070,0.177,-47.072,16.503,-15.807
1747601897.03,0.103,-0.036,-0.013,0.508,-0.005,0.194,-46.436,16.587,-15.339
1747601897.05,0.138,0.097,0.016,0.554,-0.274,0.199,-45.787,16.451,-15.074
1747601897.07,0.088,0.093,0.031,0.556,-0.317,0.162,-45.109,16.139,-14.841
1747601897.09,0.011,-0.016,-0.020,0.431,-0.253,0.175,-44.516,15.838,-14.597
1747601897.11,-0.005,-0.068,-0.017,0.403,-0.204,0.207,-44.006,15.649,-14.273
1747601897.13,-0.007,0.004,0.005,0.435,-0.269,0.204,-43.483,15.494,-13.937
1747601897.15,-0.015,0.081,0.003,0.457,-0.258,0.120,-42.932,15.228,-13.685
1747601897.17,0.011,0.081,0.020,0.415,-0.242,0.089,-42.430,14.943,-13.551
1747601897.19,0.037,-0.010,0.001,0.422,-0.224,0.167,-41.931,14.677,-13.332
1747601897.21,0.047,-0.036,-0.024,0.394,-0.175,0.178,-41.421,14.516,-13.066
1747601897.23,0.020,0.002,-0.031,0.393,-0.151,0.181,-40.943,14.409,-12.785
1747601897.25,0.048,0.039,-0.001,0.433,-0.176,0.106,-40.445,14.269,-12.575
1747601897.27,0.016,0.029,-0.010,0.426,-0.151,0.065,-39.951,14.039,-12.463
1747601897.29,-0.057,0.007,0.012,0.393,-0.048,0.063,-39.473,13.887,-12.375
1747601897.31,-0.095,-0.001,-0.018,0.403,0.010,0.055,-39.023,13.850,-12.279
1747601897.33,-0.024,0.037,-0.009,0.431,0.038,-0.037,-38.559,13.823,-12.267
1747601897.35,-0.006,0.068,-0.024,0.420,-0.044,-0.079,-38.096,13.644,-12.377
1747601897.36,-0.043,0.050,0.027,0.414,-0.021,-0.070,-37.644,13.461,-12.473
1747601897.39,-0.083,0.044,-0.024,0.344,0.058,-0.005,-37.238,13.380,-12.513
1747601897.40,-0.013,0.020,-0.021,0.400,0.099,-0.076,-36.836,13.357,-12.569
1747601897.42,-0.031,-0.010,0.001,0.457,0.061,-0.147,-36.388,13.268,-12.764
1747601897.44,-0.012,-0.065,0.012,0.457,0.090,-0.174,-35.910,13.142,-12.997
1747601897.47,0.021,-0.053,-0.024,0.349,0.153,-0.140,-35.508,13.105,-13.251
1747601897.48,0.082,-0.030,-0.030,0.270,0.064,-0.042,-35.185,13.089,-13.398
1747601897.50,0.265,0.038,-0.042,0.264,-0.161,0.016,-34.888,12.976,-13.390
1747601897.52,0.238,0.041,0.004,0.286,-0.273,0.097,-34.576,12.710,-13.296
1747601897.54,0.050,-0.016,0.024,0.254,-0.163,0.166,-34.236,12.507,-13.076
1747601897.56,-0.040,-0.011,0.010,0.260,-0.058,0.148,-33.908,12.465,-12.832
1747601897.58,-0.050,0.009,-0.039,0.213,-0.060,0.083,-33.611,12.452,-12.634
1747601897.60,-0.029,0.033,-0.046,0.178,-0.070,0.011,-33.387,12.391,-12.519
1747601897.62,-0.073,0.090,-0.010,0.176,-0.071,-0.042,-33.195,12.269,-12.473
1747601897.64,-0.050,0.120,0.008,0.154,-0.055,-0.057,-33.023,12.133,-12.493
1747601897.66,-0.026,0.087,-0.014,0.091,-0.015,-0.057,-32.896,12.027,-12.505
1747601897.68,0.005,0.023,-0.030,0.062,-0.030,-0.039,-32.829,11.964,-12.479
1747601897.70,0.054,0.003,-0.044,0.056,-0.087,-0.073,-32.783,11.859,-12.451
1747601897.72,0.032,-0.004,-0.014,0.047,-0.089,-0.089,-32.742,11.668,-12.472
1747601897.74,-0.033,-0.015,0.004,-0.033,-0.035,-0.045,-32.749,11.542,-12.474
1747601897.76,0.062,-0.002,-0.053,-0.110,-0.059,0.003,-32.845,11.498,-12.374
1747601897.78,0.119,0.058,-0.050,-0.138,-0.152,-0.003,-32.982,11.398,-12.245
1747601897.80,0.007,-0.027,-0.047,-0.192,-0.150,-0.001,-33.165,11.226,-12.109
1747601897.82,-0.045,-0.060,-0.015,-0.236,-0.030,-0.045,-33.404,11.140,-11.992
1747601897.84,0.028,0.037,-0.044,-0.324,-0.060,-0.003,-33.722,11.116,-11.860
1747601897.86,0.049,0.115,-0.066,-0.406,-0.076,0.017,-34.129,11.102,-11.662
1747601897.88,-0.029,0.044,-0.093,-0.460,-0.083,-0.024,-34.614,11.074,-11.444
1747601897.90,-0.069,-0.026,-0.051,-0.478,-0.016,-0.133,-35.160,11.027,-11.340
1747601897.92,-0.116,-0.047,-0.059,-0.545,0.043,-0.186,-35.760,10.986,-11.334
1747601897.94,-0.043,-0.040,-0.075,-0.632,0.132,-0.180,-36.465,11.034,-11.343
1747601897.96,0.009,0.011,-0.067,-0.711,0.138,-0.149,-37.255,11.164,-11.299
1747601897.98,0.040,0.016,-0.078,-0.762,0.078,-0.151,-38.121,11.295,-11.193
1747601898.00,0.046,-0.031,-0.061,-0.794,0.014,-0.173,-39.028,11.339,-11.126
1747601898.02,0.042,-0.073,-0.045,-0.829,-0.031,-0.167,-39.973,11.309,-11.058
1747601898.04,0.049,-0.083,-0.009,-0.863,0.017,-0.135,-40.962,11.333,-10.940
1747601898.06,0.015,-0.049,-0.012,-0.895,0.030,-0.067,-41.964,11.429,-10.732
1747601898.08,0.021,-0.003,-0.034,-0.928,0.007,-0.026,-43.004,11.616,-10.420
1747601898.10,0.003,0.031,-0.022,-0.932,0.015,-0.079,-44.053,11.773,-10.091
1747601898.12,-0.037,0.009,-0.010,-0.913,0.023,-0.132,-45.109,11.881,-9.862
1747601898.14,-0.040,-0.061,-0.016,-0.956,0.075,-0.116,-46.180,12.022,-9.650
1747601898.16,0.024,-0.064,0.004,-1.002,0.074,-0.066,-47.298,12.259,-9.358
1747601898.18,0.060,0.004,0.023,-1.029,0.088,-0.067,-48.451,12.567,-8.993
1747601898.20,0.069,0.050,-0.018,-1.010,-0.066,-0.039,-49.601,12.799,-8.599
1747601898.22,0.076,0.029,-0.022,-0.977,-0.072,-0.074,-50.720,12.945,-8.192
1747601898.24,0.009,-0.009,-0.029,-0.997,-0.072,-0.155,-51.843,13.021,-7.888
1747601898.26,-0.071,-0.036,0.014,-1.051,0.027,-0.144,-53.029,13.099,-7.639
1747601898.28,-0.065,-0.041,0.008,-1.108,0.087,-0.080,-54.258,13.375,-7.277
1747601898.30,0.018,-0.007,-0.024,-1.087,0.046,-0.064,-55.496,13.779,-6.771
1747601898.32,0.067,0.018,-0.028,-1.088,0.025,-0.110,-56.727,14.127,-6.293
1747601898.34,0.050,0.001,-0.009,-1.123,-0.057,-0.130,-57.979,14.375,-5.868
1747601898.36,0.024,-0.045,-0.008,-1.186,-0.077,-0.123,-59.308,14.623,-5.371
1747601898.38,0.021,-0.029,-0.012,-1.175,-0.169,-0.144,-60.653,14.811,-4.861
1747601898.40,0.025,0.002,0.003,-1.124,-0.216,-0.206,-61.975,14.868,-4.450
1747601898.42,-0.019,0.011,-0.035,-1.143,-0.242,-0.230,-63.280,14.749,-4.145
1747601898.44,0.004,-0.013,-0.016,-1.134,-0.214,-0.234,-64.611,14.647,-3.851
1747601898.46,0.034,-0.031,-0.006,-1.109,-0.218,-0.253,-65.928,14.506,-3.613
1747601898.48,0.048,-0.053,-0.023,-1.068,-0.163,-0.229,-67.186,14.372,-3.409
1747601898.50,0.002,-0.046,-0.029,-1.153,-0.079,-0.196,-68.475,14.402,-3.093
1747601898.52,-0.009,-0.028,0.018,-1.161,0.008,-0.183,-69.829,14.721,-2.620
1747601898.54,0.007,0.011,0.051,-1.081,-0.052,-0.149,-71.117,15.127,-2.136
1747601898.56,0.026,0.051,0.022,-1.078,-0.164,-0.211,-72.359,15.407,-1.643
1747601898.58,-0.007,0.006,0.011,-1.108,-0.133,-0.249,-73.622,15.441,-1.364
1747601898.60,-0.027,-0.019,0.011,-1.087,-0.141,-0.272,-74.902,15.490,-1.172
1747601898.62,-0.004,-0.016,0.043,-1.204,-0.145,-0.251,-76.266,15.533,-0.876
1747601898.64,-0.006,0.001,-0.018,-1.040,-0.173,-0.284,-77.580,15.609,-0.621
1747601898.66,-0.031,-0.029,-0.036,-0.977,-0.045,-0.311,-78.781,15.363,-0.744
1747601898.68,-0.013,-0.060,-0.087,-0.900,0.002,-0.287,-79.890,15.026,-1.048
1747601898.70,0.018,-0.018,-0.046,-0.875,0.078,-0.221,-80.950,15.010,-1.129
1747601898.72,-0.015,0.025,-0.033,-0.915,0.190,-0.229,-82.000,15.310,-0.968
1747601898.74,-0.013,-0.019,0.005,-1.004,0.300,-0.256,-83.139,15.805,-0.764
1747601898.76,-0.031,-0.039,-0.009,-0.944,0.146,-0.235,-84.281,16.422,-0.408
1747601898.78,-0.029,-0.011,-0.015,-0.915,0.055,-0.267,-85.396,16.881,-0.044
1747601898.80,-0.004,0.023,-0.033,-0.768,0.189,-0.300,-86.403,16.455,-0.593
1747601898.82,-0.039,0.032,0.074,-0.843,0.325,-0.297,-87.361,15.145,-2.220
1747601898.84,-0.088,0.017,0.074,-0.875,0.343,-0.244,-88.400,14.191,-3.549
1747601898.86,-0.105,-0.009,0.066,-0.831,0.506,-0.241,-89.409,12.757,-5.466
1747601898.88,0.014,-0.088,0.071,-0.864,0.589,-0.239,-89.585,-158.992,-177.861
1747601898.90,0.096,-0.048,0.023,-0.811,0.320,-0.198,-88.581,-163.221,177.361
1747601898.92,0.073,0.036,-0.050,-0.719,0.064,-0.181,-87.694,-164.293,176.099
1747601898.94,0.040,0.043,-0.054,-0.611,0.026,-0.219,-86.898,-163.996,176.345
1747601898.96,-0.026,0.014,-0.076,-0.506,0.187,-0.298,-86.207,-162.305,177.949
1747601898.98,-0.035,0.012,-0.013,-0.379,0.352,-0.233,-85.622,-159.914,-179.989
1747601899.00,-0.028,0.004,0.035,-0.269,0.185,-0.095,-85.221,-159.019,-179.436
1747601899.02,-0.039,-0.005,0.018,-0.242,-0.124,-0.035,-84.926,-159.510,-179.951
1747601899.04,-0.013,-0.055,-0.006,-0.144,-0.114,-0.033,-84.699,-160.166,179.575
1747601899.06,0.056,-0.016,0.037,-0.033,0.142,-0.020,-84.607,-160.088,179.619
1747601899.08,0.032,0.056,0.079,-0.021,0.120,0.013,-84.570,-159.986,179.546
1747601899.10,-0.025,0.001,0.055,0.011,-0.081,0.013,-84.581,-160.107,179.383
1747601899.12,-0.068,-0.019,0.005,-0.044,-0.311,-0.031,-84.559,-160.376,179.361
1747601899.14,-0.053,-0.028,0.044,-0.071,-0.191,-0.076,-84.474,-160.323,179.737
1747601899.16,0.014,-0.017,0.099,-0.034,0.053,-0.062,-84.371,-159.819,-179.697
1747601899.18,0.042,0.039,0.048,0.053,-0.010,0.043,-84.386,-159.686,-179.607
1747601899.20,-0.018,0.003,0.036,-0.048,-0.235,0.022,-84.413,-160.228,179.988
1747601899.22,-0.023,-0.031,0.011,-0.030,-0.239,-0.029,-84.339,-160.601,179.914
1747601899.24,-0.033,0.012,0.036,0.055,-0.012,-0.041,-84.341,-160.341,-179.673
1747601899.26,-0.047,-0.011,0.084,0.018,0.049,-0.035,-84.363,-159.744,-179.120
1747601899.28,0.009,-0.016,0.017,0.031,-0.093,0.008,-84.368,-159.508,-178.876
1747601899.30,0.054,-0.004,-0.037,0.121,-0.179,0.015,-84.451,-159.504,-178.692
1747601899.32,0.060,-0.018,-0.006,0.160,-0.185,0.038,-84.609,-159.392,-178.376
1747601899.34,0.019,0.042,-0.036,0.236,-0.117,0.049,-84.836,-159.206,-178.004
1747601899.36,-0.013,0.032,-0.018,0.252,-0.091,0.062,-85.120,-158.800,-177.492
1747601899.38,-0.020,-0.026,-0.020,0.280,-0.224,0.066,-85.422,-158.562,-177.064
1747601899.40,0.013,-0.023,-0.010,0.356,-0.092,0.072,-85.786,-157.959,-176.248
1747601899.42,0.050,0.014,0.052,0.384,0.023,0.156,-86.231,-157.389,-175.671
1747601899.44,-0.034,0.032,0.057,0.461,-0.075,0.129,-86.739,-157.004,-175.262
1747601899.46,-0.105,0.009,0.067,0.467,-0.127,0.089,-87.283,-155.005,-173.137
1747601899.48,-0.053,-0.026,0.100,0.517,-0.039,0.102,-87.818,-151.554,-169.579
1747601899.50,0.011,-0.028,0.078,0.619,-0.073,0.145,-88.446,-144.833,-162.814
1747601899.52,0.033,0.002,0.031,0.709,-0.189,0.177,-89.129,-125.067,-142.882
1747601899.54,0.034,0.031,0.075,0.759,-0.192,0.191,-89.406,-56.490,-74.078
1747601899.56,-0.045,0.019,0.091,0.726,-0.094,0.133,-88.774,-14.545,-31.972
1747601899.58,-0.108,-0.019,0.065,0.689,-0.045,0.084,-88.001,-5.494,-22.817
1747601899.60,-0.030,-0.059,0.076,0.822,0.120,0.111,-87.169,-1.671,-19.054
1747601899.62,0.094,0.021,-0.057,1.013,0.227,0.235,-86.073,1.701,-15.863
1747601899.64,0.110,0.105,0.073,0.979,0.058,0.286,-84.943,5.001,-12.736
1747601899.66,-0.090,-0.024,0.031,0.921,0.222,0.239,-83.821,6.985,-10.852
1747601899.68,-0.155,-0.140,0.058,0.878,0.583,0.269,-82.772,8.656,-9.650
1747601899.70,-0.052,-0.027,0.051,0.913,0.580,0.303,-81.712,10.558,-8.450
1747601899.72,0.051,0.074,-0.042,0.895,0.476,0.307,-80.596,11.931,-7.643
1747601899.74,0.143,0.055,0.079,0.808,0.075,0.233,-79.607,12.970,-6.971
1747601899.76,0.017,-0.085,-0.053,0.888,-0.243,0.245,-78.613,12.973,-6.825
1747601899.78,-0.021,-0.061,-0.051,1.091,-0.272,0.257,-77.437,12.872,-6.633
1747601899.80,-0.127,0.075,-0.072,0.994,0.060,0.124,-76.215,12.488,-6.832
1747601899.82,-0.095,0.049,0.076,0.854,0.426,0.059,-75.161,12.292,-7.387
1747601899.84,-0.062,-0.064,0.072,0.719,0.448,0.247,-74.267,12.628,-7.551
1747601899.86,0.038,-0.055,0.067,0.746,0.380,0.405,-73.366,13.801,-6.839
1747601899.88,0.060,0.003,-0.031,0.930,0.226,0.303,-72.341,14.711,-6.240
1747601899.90,0.030,0.038,-0.083,0.947,0.165,0.115,-71.228,14.739,-6.409
1747601899.92,-0.007,0.030,0.135,0.736,0.301,0.107,-70.272,14.656,-6.775
1747601899.94,-0.101,0.007,0.042,0.533,0.352,0.210,-69.528,14.958,-6.766
1747601899.96,0.023,-0.012,0.073,0.533,0.252,0.283,-68.890,15.681,-6.424
1747601899.98,0.139,0.035,-0.045,0.834,-0.236,0.189,-68.095,15.885,-6.215
1747601900.00,0.100,0.065,-0.003,0.891,-0.123,0.056,-67.054,15.235,-6.551
1747601900.02,0.006,0.030,0.024,0.835,-0.070,0.127,-66.067,14.712,-6.952
1747601900.04,-0.035,-0.045,0.010,0.716,0.135,0.258,-65.182,14.744,-6.889
1747601900.06,0.026,-0.073,-0.034,0.741,0.072,0.297,-64.298,15.123,-6.560
1747601900.08,0.006,-0.040,-0.075,0.866,0.056,0.178,-63.342,15.238,-6.437
1747601900.10,0.016,-0.030,-0.024,0.783,0.054,0.132,-62.373,15.100,-6.584
1747601900.12,-0.035,-0.008,0.086,0.701,0.108,0.229,-61.509,15.164,-6.585
1747601900.14,-0.036,0.000,0.030,0.604,0.117,0.367,-60.719,15.560,-6.224
1747601900.16,0.097,0.031,-0.014,0.796,-0.196,0.377,-59.834,15.863,-5.762
1747601900.18,0.126,0.019,-0.044,0.898,-0.310,0.261,-58.787,15.720,-5.549
1747601900.20,0.012,-0.027,-0.060,0.735,-0.194,0.198,-57.787,15.361,-5.525
1747601900.22,-0.039,-0.062,0.060,0.607,-0.002,0.181,-57.004,15.294,-5.473
1747601900.24,-0.101,-0.050,-0.003,0.637,-0.109,0.226,-56.269,15.297,-5.347
1747601900.26,-0.131,0.001,-0.056,0.800,-0.073,0.148,-55.434,15.204,-5.291
1747601900.28,-0.149,0.055,-0.105,0.898,0.103,-0.011,-54.450,14.933,-5.571
1747601900.30,-0.131,0.054,0.032,0.731,0.393,-0.081,-53.568,14.793,-6.060
1747601900.32,0.025,-0.016,0.083,0.563,0.342,0.058,-52.854,14.953,-6.370
1747601900.34,0.218,-0.005,0.030,0.555,0.050,0.161,-52.232,15.179,-6.376
1747601900.36,0.140,0.062,-0.020,0.661,-0.202,0.169,-51.511,15.077,-6.314
1747601900.38,-0.002,0.113,-0.027,0.789,-0.302,0.060,-50.665,14.650,-6.442
1747601900.40,-0.029,0.073,0.072,0.704,-0.076,-0.027,-49.807,14.170,-6.760
1747601900.42,0.011,-0.055,0.026,0.527,-0.023,0.066,-49.149,13.953,-7.004
1747601900.44,0.034,-0.094,-0.011,0.530,-0.144,0.225,-48.538,13.886,-6.916
1747601900.46,0.001,0.043,0.023,0.623,-0.148,0.165,-47.838,13.809,-6.792
1747601900.48,-0.074,0.079,-0.040,0.646,-0.106,0.092,-47.091,13.624,-6.817
1747601900.50,-0.025,0.003,0.029,0.635,0.059,0.033,-46.362,13.456,-6.961
1747601900.52,0.029,-0.016,-0.009,0.515,0.038,0.042,-45.703,13.407,-7.125
1747601900.54,0.024,-0.035,0.001,0.478,0.018,0.168,-45.143,13.415,-7.140
1747601900.56,-0.037,0.001,0.026,0.511,0.006,0.179,-44.556,13.510,-7.016
1747601900.58,-0.043,0.060,-0.020,0.588,-0.080,0.098,-43.896,13.482,-6.985
1747601900.60,0.028,0.069,-0.011,0.620,-0.177,-0.010,-43.222,13.241,-7.137
1747601900.61,0.056,0.027,-0.007,0.633,-0.195,0.003,-42.511,12.830,-7.382
1747601900.63,0.042,-0.036,-0.010,0.489,-0.040,0.060,-41.874,12.608,-7.540
1747601900.66,-0.050,-0.084,0.019,0.436,0.016,0.178,-41.325,12.596,-7.510
1747601900.67,0.127,0.013,0.043,0.447,-0.054,0.194,-40.786,12.701,-7.370
1747601900.70,0.217,0.116,-0.045,0.463,-0.354,0.243,-40.231,12.573,-7.196
1747601900.71,0.136,0.123,0.058,0.470,-0.362,0.257,-39.632,12.271,-6.957
1747601900.73,-0.036,0.016,-0.020,0.406,-0.258,0.256,-39.083,12.063,-6.719
1747601900.76,-0.074,-0.108,-0.034,0.388,-0.060,0.225,-38.584,12.039,-6.492
1747601900.77,-0.076,-0.084,-0.036,0.403,0.032,0.182,-38.101,12.139,-6.330
1747601900.79,-0.060,0.014,-0.037,0.411,0.000,0.135,-37.602,12.226,-6.227
1747601900.81,-0.036,0.056,-0.006,0.391,0.039,0.058,-37.123,12.244,-6.215
1747601900.83,-0.103,0.041,0.000,0.353,0.027,0.031,-36.707,12.254,-6.289
1747601900.85,-0.089,0.033,-0.036,0.386,0.062,-0.034,-36.295,12.246,-6.390
1747601900.87,-0.039,0.038,-0.035,0.394,0.079,-0.071,-35.863,12.210,-6.602
1747601900.89,0.006,0.022,-0.029,0.351,0.069,-0.077,-35.464,12.173,-6.813
1747601900.91,0.052,-0.024,-0.015,0.317,0.029,-0.024,-35.104,12.128,-6.961
1747601900.93,0.085,-0.005,-0.020,0.338,-0.050,-0.006,-34.742,12.057,-7.067
1747601900.95,0.091,0.015,-0.015,0.289,-0.142,0.003,-34.384,11.889,-7.159
1747601900.97,0.049,0.003,-0.027,0.239,-0.150,0.051,-34.090,11.689,-7.200
1747601900.99,-0.042,0.016,-0.002,0.209,-0.114,0.069,-33.835,11.563,-7.159
1747601901.01,-0.046,0.098,0.008,0.237,-0.134,0.005,-33.573,11.438,-7.136
1747601901.03,-0.022,0.081,0.004,0.246,-0.167,-0.052,-33.304,11.198,-7.228
1747601901.05,-0.034,0.008,-0.044,0.198,-0.093,-0.079,-33.061,10.961,-7.372
1747601901.07,-0.080,0.000,-0.040,0.175,-0.013,-0.089,-32.865,10.792,-7.526
1747601901.09,-0.056,0.035,0.027,0.202,0.032,-0.122,-32.680,10.738,-7.693
1747601901.11,0.000,0.027,-0.003,0.201,-0.027,-0.095,-32.484,10.631,-7.889
1747601901.13,0.062,-0.004,-0.037,0.197,-0.014,-0.075,-32.279,10.519,-8.043
1747601901.15,0.047,0.018,0.016,0.190,-0.018,-0.036,-32.068,10.426,-8.161
1747601901.17,0.071,-0.032,0.024,0.143,-0.026,-0.021,-31.890,10.363,-8.242
1747601901.19,0.114,-0.071,-0.047,0.095,-0.052,0.089,-31.745,10.303,-8.234
1747601901.21,0.068,0.061,-0.006,0.093,-0.051,0.102,-31.630,10.287,-8.185
1747601901.23,0.020,0.038,0.044,0.097,-0.034,0.158,-31.497,10.329,-8.023
1747601901.25,0.044,-0.042,0.002,0.089,-0.062,0.155,-31.359,10.384,-7.841
1747601901.27,0.028,0.005,-0.039,0.051,-0.058,0.112,-31.240,10.401,-7.680
1747601901.29,-0.038,0.047,-0.049,0.005,-0.024,0.111,-31.189,10.440,-7.541
1747601901.31,-0.069,0.056,-0.059,-0.014,-0.025,0.117,-31.176,10.492,-7.384
1747601901.33,-0.015,0.051,-0.014,-0.009,-0.028,0.042,-31.174,10.523,-7.275
1747601901.35,-0.021,-0.045,-0.019,-0.085,-0.027,-0.026,-31.224,10.497,-7.258
1747601901.37,-0.026,0.013,-0.045,-0.160,0.083,0.006,-31.360,10.523,-7.252
1747601901.39,0.020,0.147,-0.053,-0.214,0.051,0.048,-31.566,10.625,-7.175
1747601901.41,0.078,0.098,-0.024,-0.315,0.035,0.043,-31.851,10.737,-7.065
1747601901.43,0.067,-0.015,-0.066,-0.372,0.046,0.085,-32.228,10.874,-6.893
1747601901.45,0.057,0.024,-0.035,-0.383,0.027,0.011,-32.644,11.017,-6.727
1747601901.47,-0.026,0.027,-0.034,-0.432,0.002,-0.057,-33.102,11.058,-6.642
1747601901.49,-0.037,-0.039,-0.097,-0.572,0.061,-0.117,-33.685,11.106,-6.628
1747601901.51,-0.034,-0.022,-0.079,-0.634,0.104,-0.082,-34.387,11.211,-6.599
1747601901.53,-0.025,0.073,0.017,-0.652,0.044,-0.110,-35.140,11.337,-6.549
1747601901.55,0.018,0.079,-0.012,-0.631,0.008,-0.160,-35.881,11.355,-6.545
1747601901.57,-0.014,-0.012,-0.104,-0.712,0.073,-0.275,-36.665,11.315,-6.658
1747601901.59,-0.100,-0.104,-0.153,-0.828,0.204,-0.256,-37.601,11.374,-6.797
1747601901.61,-0.047,-0.116,-0.059,-0.861,0.307,-0.186,-38.597,11.639,-6.847
1747601901.63,0.109,-0.054,-0.054,-0.913,0.179,-0.138,-39.627,11.950,-6.771
1747601901.65,0.157,-0.009,0.030,-0.901,0.094,-0.161,-40.677,12.139,-6.688
1747601901.67,0.120,-0.052,-0.031,-0.942,-0.034,-0.103,-41.738,12.223,-6.565
1747601901.69,0.097,-0.095,-0.028,-0.982,0.023,-0.048,-42.831,12.347,-6.343
1747601901.71,0.064,-0.069,-0.029,-1.028,0.002,-0.012,-43.962,12.568,-6.020
1747601901.73,0.011,-0.014,-0.006,-1.046,0.028,-0.033,-45.119,12.839,-5.656
1747601901.75,-0.029,0.003,-0.045,-1.094,-0.035,-0.027,-46.316,13.058,-5.277
1747601901.77,0.028,0.024,0.010,-1.126,-0.015,-0.029,-47.561,13.318,-4.861
1747601901.79,-0.004,0.056,0.051,-1.125,-0.038,-0.082,-48.824,13.550,-4.461
1747601901.81,-0.029,0.069,0.015,-1.163,-0.030,-0.084,-50.123,13.753,-4.090
1747601901.83,-0.051,0.073,0.000,-1.136,-0.039,-0.144,-51.430,13.970,-3.715
1747601901.85,-0.086,0.054,-0.001,-1.085,-0.006,-0.239,-52.720,14.065,-3.494
1747601901.87,-0.091,0.001,-0.008,-1.151,0.120,-0.246,-54.012,14.168,-3.387
1747601901.89,-0.041,-0.022,0.032,-1.234,0.243,-0.206,-55.398,14.507,-3.197
1747601901.91,0.043,-0.014,0.045,-1.247,0.222,-0.117,-56.823,15.045,-2.825
1747601901.93,0.147,-0.011,-0.013,-1.197,0.021,-0.101,-58.200,15.622,-2.289
1747601901.95,0.160,-0.032,-0.068,-1.155,-0.103,-0.211,-59.539,15.889,-1.856
1747601901.97,0.089,-0.066,-0.049,-1.168,-0.265,-0.290,-60.887,15.799,-1.678
1747601901.99,0.002,-0.056,-0.017,-1.274,-0.254,-0.291,-62.304,15.593,-1.513
1747601902.01,-0.024,-0.067,0.024,-1.278,-0.140,-0.262,-63.822,15.531,-1.272
1747601902.03,0.012,-0.045,0.009,-1.310,-0.189,-0.143,-65.295,15.740,-0.812
1747601902.05,-0.013,0.037,-0.037,-1.203,-0.270,-0.203,-66.745,15.989,-0.182
1747601902.07,-0.083,0.016,-0.080,-1.123,-0.190,-0.360,-68.099,15.810,-0.019
1747601902.09,-0.034,-0.084,-0.062,-1.097,0.001,-0.318,-69.424,15.566,-0.105
1747601902.11,0.042,-0.089,-0.008,-1.131,-0.017,-0.209,-70.732,15.748,0.135
1747601902.13,0.069,-0.022,0.013,-1.178,-0.003,-0.187,-72.064,16.199,0.664
1747601902.15,0.062,0.042,0.026,-1.154,0.045,-0.227,-73.407,16.712,1.167
1747601902.17,-0.046,0.043,0.034,-0.998,-0.128,-0.277,-74.674,16.992,1.482
1747601902.19,-0.148,-0.013,-0.048,-0.965,-0.056,-0.349,-75.833,16.748,1.385
1747601902.21,-0.128,-0.034,-0.025,-0.961,-0.017,-0.373,-77.005,16.363,1.012
1747601902.23,-0.078,0.005,0.012,-1.070,0.191,-0.339,-78.246,16.138,0.710
1747601902.25,0.024,-0.007,0.077,-1.066,0.338,-0.240,-79.506,16.571,0.814
1747601902.27,0.092,-0.050,0.080,-1.028,0.169,-0.172,-80.731,17.681,1.650
1747601902.29,0.166,-0.036,0.021,-1.033,0.012,-0.192,-81.905,18.938,2.786
1747601902.31,0.131,0.024,-0.038,-0.980,0.028,-0.254,-83.081,20.060,3.937
1747601902.33,-0.021,0.039,-0.001,-1.003,-0.029,-0.349,-84.247,20.643,4.501
1747601902.35,-0.124,-0.007,0.021,-1.016,-0.102,-0.367,-85.489,20.903,4.852
1747601902.37,-0.070,-0.049,-0.031,-0.989,-0.038,-0.332,-86.702,21.243,5.300
1747601902.39,0.007,-0.056,0.005,-0.827,0.128,-0.298,-87.810,22.630,6.614
1747601902.41,-0.011,0.007,-0.057,-0.782,0.027,-0.290,-88.778,24.523,8.411
1747601902.43,0.009,0.014,-0.085,-0.636,0.124,-0.244,-89.641,34.072,17.893
1747601902.45,0.059,0.008,-0.073,-0.581,0.255,-0.188,-89.604,-173.877,169.710
1747601902.47,0.022,-0.001,0.004,-0.537,0.344,-0.139,-88.945,-167.460,175.786
1747601902.49,-0.047,0.018,0.025,-0.470,0.281,-0.153,-88.349,-165.962,176.915
1747601902.51,-0.086,-0.007,0.011,-0.495,0.293,-0.198,-87.775,-164.117,178.454
1747601902.53,-0.021,0.001,0.058,-0.492,0.301,-0.162,-87.165,-162.679,179.529
1747601902.55,0.007,0.018,0.048,-0.430,0.091,-0.109,-86.617,-162.706,179.276
1747601902.57,-0.001,-0.021,0.007,-0.372,-0.070,-0.131,-86.144,-162.929,179.063
1747601902.59,-0.019,-0.013,0.008,-0.345,0.008,-0.156,-85.702,-162.397,179.647
1747601902.61,-0.034,-0.012,0.025,-0.311,0.066,-0.164,-85.288,-161.572,-179.582
1747601902.63,0.014,-0.010,0.024,-0.236,-0.008,-0.084,-84.927,-161.098,-179.170
1747601902.65,0.013,-0.000,0.015,-0.099,-0.215,-0.065,-84.737,-161.113,-179.027
1747601902.67,-0.005,0.002,0.030,-0.016,-0.153,-0.111,-84.632,-160.513,-178.202
1747601902.69,-0.017,0.029,-0.033,0.054,0.083,-0.075,-84.626,-159.325,-176.964
1747601902.71,-0.037,0.001,0.055,0.000,0.221,0.028,-84.651,-158.691,-176.507
1747601902.73,-0.016,-0.043,0.081,-0.069,0.124,0.102,-84.638,-159.567,-177.608
1747601902.75,-0.041,-0.025,0.028,-0.049,0.045,0.038,-84.594,-160.609,-178.728
1747601902.77,0.013,-0.006,0.040,-0.030,0.195,0.017,-84.565,-160.796,-179.057
1747601902.79,0.047,0.022,0.052,-0.005,0.131,0.014,-84.542,-160.852,-179.330
1747601902.81,0.026,-0.002,-0.006,0.069,-0.163,-0.016,-84.557,-160.771,-179.222
1747601902.83,0.033,-0.006,-0.005,0.148,-0.257,-0.024,-84.668,-160.289,-178.477
1747601902.85,0.020,0.020,0.041,0.128,-0.200,-0.027,-84.809,-159.673,-177.593
1747601902.87,-0.019,0.014,0.036,0.094,-0.128,-0.020,-84.904,-159.205,-176.932
1747601902.89,-0.053,-0.016,0.061,0.051,-0.017,-0.010,-84.973,-158.869,-176.522
1747601902.91,-0.047,-0.027,0.041,0.055,-0.013,-0.008,-85.024,-158.603,-176.244
1747601902.93,-0.018,-0.005,0.031,0.136,-0.079,0.003,-85.113,-158.253,-175.841
1747601902.95,-0.009,0.014,0.021,0.175,-0.044,0.039,-85.282,-157.803,-175.293
1747601902.97,-0.038,-0.006,0.069,0.168,0.018,0.074,-85.483,-157.572,-175.071
1747601902.99,-0.053,-0.039,0.046,0.207,-0.024,0.068,-85.682,-157.496,-174.988
1747601903.01,0.024,-0.012,0.017,0.320,-0.101,0.067,-85.971,-156.829,-174.258
1747601903.03,0.056,0.060,-0.000,0.378,-0.205,0.076,-86.368,-155.653,-172.899
1747601903.05,0.033,0.010,0.038,0.429,-0.215,0.102,-86.823,-154.143,-171.149
1747601903.07,-0.002,-0.048,0.064,0.490,-0.258,0.128,-87.336,-152.104,-168.847
1747601903.09,-0.010,-0.009,0.029,0.643,-0.363,0.106,-87.967,-147.512,-163.893
1747601903.11,-0.033,0.012,0.016,0.782,-0.453,0.045,-88.653,-132.319,-148.226
1747601903.13,-0.018,0.004,-0.050,0.877,-0.345,0.087,-89.066,-87.672,-103.086
1747601903.15,0.074,0.016,0.001,0.910,-0.154,0.190,-88.690,-36.000,-51.133
1747601903.17,0.027,0.001,0.074,0.954,-0.294,0.238,-87.805,-13.985,-28.902
1747601903.19,-0.063,-0.026,-0.019,0.977,-0.416,0.219,-86.775,-5.077,-19.517
1747601903.21,-0.080,-0.027,0.030,1.052,0.050,0.224,-85.611,-0.667,-14.861
1747601903.23,-0.025,-0.007,0.077,0.968,0.261,0.233,-84.451,2.395,-12.027
1747601903.25,0.019,0.016,0.005,1.072,0.126,0.244,-83.266,4.441,-10.186
1747601903.27,0.120,0.009,0.107,1.108,0.344,0.320,-82.013,6.307,-8.556
1747601903.29,0.048,0.016,0.105,1.185,0.164,0.262,-80.652,7.854,-7.333
1747601903.31,-0.147,0.016,0.056,1.024,-0.065,0.142,-79.369,8.118,-7.091
1747601903.33,-0.076,-0.025,0.066,0.971,0.215,0.147,-78.221,8.153,-7.123
1747601903.35,0.091,-0.015,0.109,1.065,0.022,0.177,-77.064,8.511,-6.963
1747601903.37,0.053,0.041,-0.015,1.106,0.093,0.110,-75.800,8.383,-7.089
1747601903.39,0.027,0.063,0.108,1.067,0.031,0.154,-74.573,8.415,-7.194
1747601903.41,-0.101,-0.036,-0.063,1.128,0.019,0.145,-73.290,8.325,-7.261
1747601903.43,0.003,-0.090,-0.012,1.143,0.137,0.174,-71.989,8.414,-7.278
1747601903.45,0.011,-0.031,-0.055,1.066,0.048,0.135,-70.712,8.503,-7.303
1747601903.47,-0.051,0.011,-0.033,0.989,0.242,0.113,-69.502,8.517,-7.436
1747601903.49,-0.073,-0.006,-0.006,0.886,0.514,0.232,-68.439,9.006,-7.371
1747601903.51,-0.058,-0.027,-0.019,0.987,0.525,0.304,-67.348,9.984,-7.008
1747601903.53,-0.052,-0.087,-0.053,1.046,0.430,0.322,-66.116,10.878,-6.645
1747601903.55,-0.045,-0.081,-0.113,1.014,0.388,0.314,-64.875,11.557,-6.310
1747601903.57,0.026,0.014,0.039,0.792,0.635,0.280,-63.812,12.403,-6.012
1747601903.59,0.013,0.054,0.088,0.783,0.427,0.295,-62.893,13.340,-5.688
1747601903.61,0.027,-0.031,-0.015,0.917,0.209,0.330,-61.883,13.881,-5.416
1747601903.63,0.187,-0.099,-0.026,1.068,0.071,0.407,-60.654,14.294,-5.114
1747601903.65,0.134,0.024,0.075,0.995,-0.111,0.330,-59.390,14.477,-4.843
1747601903.67,-0.052,0.135,0.163,0.844,-0.094,0.232,-58.318,14.429,-4.753
1747601903.69,-0.108,0.093,0.017,0.825,-0.243,0.245,-57.355,14.323,-4.674
1747601903.71,0.013,0.046,-0.041,1.034,-0.282,0.219,-56.267,14.030,-4.652
1747601903.73,-0.042,0.061,-0.017,1.045,-0.120,0.077,-55.016,13.572,-4.896
1747601903.75,-0.184,0.004,0.092,0.821,0.217,0.093,-53.962,13.373,-5.206
1747601903.77,-0.065,-0.018,0.049,0.660,0.319,0.262,-53.113,13.754,-5.188
1747601903.79,0.078,0.084,0.020,0.774,0.045,0.305,-52.250,14.113,-4.956
1747601903.81,0.107,0.091,0.021,0.982,-0.175,0.251,-51.198,14.127,-4.855
1747601903.83,-0.020,0.018,-0.002,0.949,-0.153,0.126,-50.037,13.842,-4.934
1747601903.85,-0.025,0.004,0.020,0.744,0.035,0.045,-49.090,13.587,-5.168
1747601903.87,0.000,-0.017,-0.004,0.625,0.031,0.123,-48.328,13.550,-5.317
1747601903.89,-0.042,-0.066,-0.018,0.700,0.024,0.238,-47.552,13.617,-5.262
1747601903.91,-0.121,0.004,-0.042,0.774,0.072,0.123,-46.671,13.693,-5.249
1747601903.93,-0.091,0.100,-0.012,0.797,0.080,-0.019,-45.781,13.594,-5.471
1747601903.95,0.103,0.128,0.095,0.797,0.069,-0.083,-44.898,13.413,-5.880
1747601903.97,0.224,0.001,-0.030,0.672,-0.164,0.040,-44.089,13.138,-6.219
1747601903.99,0.139,-0.168,-0.053,0.688,-0.168,0.222,-43.303,12.885,-6.234
1747601904.01,-0.011,-0.113,0.043,0.744,-0.127,0.206,-42.438,12.791,-6.168
1747601904.03,-0.003,0.024,0.001,0.744,-0.105,0.129,-41.575,12.669,-6.187
1747601904.05,0.126,0.057,-0.003,0.773,-0.174,0.126,-40.693,12.473,-6.273
1747601904.07,0.131,-0.022,-0.035,0.666,-0.163,0.189,-39.836,12.264,-6.292
1747601904.09,0.063,-0.085,-0.041,0.595,-0.165,0.314,-39.090,12.186,-6.155
1747601904.11,0.072,-0.048,0.051,0.609,-0.131,0.370,-38.322,12.215,-5.850
1747601904.13,0.049,0.027,-0.002,0.578,-0.195,0.294,-37.579,12.222,-5.602
1747601904.15,0.021,0.063,-0.045,0.535,-0.324,0.312,-36.894,12.064,-5.390
1747601904.17,-0.055,0.076,-0.031,0.504,-0.229,0.272,-36.235,11.871,-5.153
1747601904.19,-0.212,0.009,-0.065,0.429,-0.089,0.163,-35.667,11.802,-5.004
1747601904.21,-0.203,-0.067,-0.057,0.421,0.097,0.063,-35.174,11.819,-4.999
1747601904.23,-0.047,-0.051,-0.046,0.423,0.080,0.028,-34.686,11.898,-5.111
1747601904.25,0.026,0.053,0.003,0.399,0.054,0.045,-34.217,11.928,-5.204
1747601904.27,0.052,0.107,-0.027,0.298,0.004,0.050,-33.811,11.945,-5.269
1747601904.29,0.051,0.069,-0.081,0.244,-0.066,0.054,-33.503,11.896,-5.303
1747601904.31,-0.040,0.062,-0.035,0.197,-0.049,-0.022,-33.246,11.800,-5.376
1747601904.33,-0.098,-0.027,-0.053,0.144,0.022,-0.017,-33.064,11.738,-5.474
1747601904.35,-0.006,-0.041,-0.036,0.168,0.066,-0.036,-32.892,11.760,-5.574
1747601904.37,0.059,0.046,-0.022,0.161,0.006,-0.069,-32.717,11.739,-5.714
1747601904.39,0.100,0.025,0.002,0.102,-0.082,-0.053,-32.581,11.633,-5.858
1747601904.41,0.116,-0.025,-0.055,0.051,-0.170,-0.012,-32.505,11.435,-5.947
1747601904.43,0.059,-0.015,-0.018,0.029,-0.126,0.026,-32.461,11.257,-5.959
1747601904.45,0.028,-0.010,0.006,0.001,-0.067,0.054,-32.430,11.185,-5.928
1747601904.47,0.023,0.001,-0.015,-0.033,-0.087,0.091,-32.435,11.151,-5.846
1747601904.49,0.040,0.023,-0.036,-0.063,-0.122,0.087,-32.466,11.122,-5.728
1747601904.51,0.001,0.047,-0.019,-0.053,-0.130,0.050,-32.506,11.035,-5.649
1747601904.53,-0.053,-0.007,-0.019,-0.103,-0.073,0.027,-32.579,10.961,-5.597
1747601904.55,-0.073,-0.006,-0.021,-0.106,0.022,0.009,-32.699,10.966,-5.570
1747601904.57,-0.017,0.028,-0.015,-0.108,0.015,0.010,-32.816,11.020,-5.538
1747601904.59,0.047,0.039,-0.008,-0.107,-0.037,-0.006,-32.933,11.025,-5.532
1747601904.61,0.052,0.010,-0.035,-0.140,-0.080,0.003,-33.075,10.959,-5.522
1747601904.63,0.019,0.005,0.020,-0.146,-0.012,0.008,-33.237,10.928,-5.480
1747601904.65,-0.041,0.005,-0.008,-0.151,-0.001,0.015,-33.392,10.934,-5.435
1747601904.67,-0.004,-0.019,-0.013,-0.206,0.023,-0.009,-33.593,10.979,-5.394
1747601904.69,0.028,0.023,-0.046,-0.253,0.032,-0.046,-33.855,11.041,-5.373
1747601904.71,0.056,0.031,-0.065,-0.336,0.019,-0.012,-34.185,11.092,-5.340
1747601904.73,0.048,0.044,-0.064,-0.370,0.005,0.009,-34.579,11.147,-5.244
1747601904.75,0.071,0.019,-0.023,-0.431,-0.037,0.004,-35.027,11.211,-5.112
1747601904.77,0.075,0.008,-0.064,-0.539,-0.098,-0.028,-35.571,11.194,-4.971
1747601904.79,0.037,0.009,-0.053,-0.564,-0.121,-0.045,-36.193,11.125,-4.867
1747601904.81,-0.041,-0.000,-0.070,-0.653,-0.079,-0.054,-36.884,11.062,-4.762
1747601904.83,-0.034,-0.004,-0.038,-0.698,0.028,-0.069,-37.657,11.091,-4.651
1747601904.85,-0.012,-0.004,-0.038,-0.770,0.047,-0.072,-38.493,11.210,-4.533
1747601904.87,0.011,0.008,-0.034,-0.794,0.097,-0.087,-39.392,11.360,-4.405
1747601904.89,0.036,0.023,-0.027,-0.834,0.033,-0.129,-40.323,11.494,-4.306
1747601904.91,0.018,0.020,-0.018,-0.876,-0.023,-0.146,-41.317,11.525,-4.223
1747601904.93,-0.024,0.007,-0.029,-0.923,-0.004,-0.154,-42.355,11.538,-4.162
1747601904.95,-0.044,0.003,-0.044,-0.936,0.044,-0.157,-43.439,11.603,-4.065
1747601904.97,-0.057,-0.004,-0.027,-0.936,0.139,-0.204,-44.516,11.710,-4.007
1747601904.99,-0.042,-0.029,-0.023,-0.976,0.096,-0.226,-45.637,11.828,-4.004
1747601905.01,0.039,-0.049,-0.003,-1.017,0.160,-0.195,-46.808,11.974,-3.971
1747601905.03,0.087,-0.046,-0.021,-1.014,0.082,-0.182,-47.986,12.156,-3.883
1747601905.05,0.085,-0.040,-0.035,-1.054,0.093,-0.172,-49.173,12.310,-3.755
1747601905.07,0.030,-0.050,-0.039,-1.061,0.083,-0.175,-50.393,12.484,-3.609
1747601905.09,0.011,-0.034,-0.013,-1.097,0.128,-0.156,-51.643,12.710,-3.422
1747601905.11,0.016,0.008,-0.019,-1.120,0.069,-0.160,-52.919,12.974,-3.192
1747601905.13,0.001,0.044,0.002,-1.129,-0.044,-0.217,-54.222,13.098,-3.009
1747601905.15,-0.003,0.015,0.003,-1.140,-0.039,-0.272,-55.543,13.065,-2.931
1747601905.17,0.005,-0.027,-0.015,-1.176,-0.033,-0.250,-56.894,13.039,-2.881
1747601905.19,-0.012,-0.017,-0.001,-1.220,0.110,-0.232,-58.288,13.138,-2.738
1747601905.21,-0.034,0.007,-0.006,-1.176,0.152,-0.289,-59.691,13.360,-2.637
1747601905.23,-0.027,-0.012,-0.045,-1.261,0.076,-0.305,-61.108,13.481,-2.601
1747601905.25,0.043,-0.043,-0.032,-1.271,-0.033,-0.354,-62.617,13.439,-2.586
1747601905.27,0.057,-0.052,-0.001,-1.248,-0.027,-0.397,-64.104,13.231,-2.730
1747601905.29,0.062,-0.068,-0.052,-1.324,-0.089,-0.372,-65.639,12.958,-2.926
1747601905.31,0.084,-0.055,-0.098,-1.295,-0.215,-0.359,-67.200,12.637,-3.090
1747601905.33,0.063,-0.029,-0.070,-1.290,-0.314,-0.359,-68.716,12.121,-3.278
1747601905.35,0.014,-0.017,-0.043,-1.339,-0.255,-0.388,-70.278,11.488,-3.566
1747601905.37,-0.028,-0.027,0.017,-1.375,-0.195,-0.343,-71.880,10.875,-3.936
1747601905.39,-0.016,-0.051,-0.024,-1.375,-0.155,-0.237,-73.478,10.569,-4.044
1747601905.41,-0.007,-0.073,0.002,-1.517,0.076,-0.200,-75.154,10.737,-3.793
1747601905.43,0.007,-0.029,0.046,-1.388,0.023,-0.224,-76.853,11.224,-3.416
1747601905.45,-0.058,0.055,-0.057,-1.292,-0.184,-0.299,-78.399,11.109,-3.404
1747601905.47,-0.020,0.014,0.016,-1.238,0.033,-0.399,-79.896,10.406,-4.021
1747601905.49,0.015,-0.022,0.002,-1.232,0.080,-0.415,-81.360,9.048,-5.467
1747601905.51,0.031,0.005,0.028,-1.273,0.110,-0.353,-82.832,7.546,-7.120
1747601905.53,-0.050,-0.001,0.072,-1.172,-0.032,-0.325,-84.284,5.670,-9.048
1747601905.55,-0.062,-0.052,0.031,-1.222,0.111,-0.338,-85.654,2.500,-12.259
1747601905.57,-0.033,-0.038,0.072,-1.185,0.224,-0.349,-87.049,-3.737,-18.718
1747601905.59,-0.045,0.012,0.022,-1.112,0.138,-0.356,-88.255,-19.685,-34.896
1747601905.61,-0.039,0.009,0.001,-0.995,0.120,-0.322,-88.932,-65.972,-81.316
1747601905.63,-0.001,-0.012,0.002,-0.918,0.275,-0.266,-88.534,-116.272,-131.848
1747601905.65,0.033,-0.015,0.015,-0.816,0.359,-0.220,-87.713,-135.720,-151.691
1747601905.67,-0.021,-0.041,-0.010,-0.655,0.315,-0.201,-86.919,-143.110,-159.487
1747601905.69,0.002,-0.015,-0.024,-0.558,0.306,-0.129,-86.244,-146.835,-163.558
1747601905.71,0.004,0.024,-0.020,-0.462,0.286,-0.126,-85.681,-149.135,-166.203
1747601905.73,-0.017,0.033,0.010,-0.368,0.209,-0.136,-85.203,-150.205,-167.556
1747601905.75,0.006,0.016,0.037,-0.319,0.200,-0.098,-84.796,-150.711,-168.305
1747601905.77,0.006,-0.024,0.080,-0.265,0.062,-0.034,-84.457,-151.652,-169.407
1747601905.79,-0.012,-0.035,0.021,-0.173,0.083,-0.052,-84.233,-152.282,-170.096
1747601905.80,0.014,0.012,0.022,-0.178,0.032,-0.048,-84.015,-152.683,-170.583
1747601905.83,0.017,0.026,-0.013,-0.033,-0.044,-0.068,-83.872,-152.643,-170.543
1747601905.84,0.005,0.056,-0.034,0.062,-0.063,-0.021,-83.872,-152.196,-169.995
1747601905.86,-0.020,0.011,0.107,0.009,0.180,0.016,-83.905,-151.910,-169.797
1747601905.88,-0.043,-0.069,0.062,0.075,-0.037,0.059,-83.957,-152.006,-170.014
1747601905.90,-0.057,-0.016,-0.025,0.102,-0.106,0.054,-84.098,-152.276,-170.132
1747601905.92,-0.029,-0.001,0.095,0.020,0.088,0.069,-84.189,-152.527,-170.405
1747601905.94,-0.011,-0.037,0.013,-0.009,-0.033,0.045,-84.212,-153.156,-171.068
1747601905.96,0.049,-0.004,-0.007,0.081,-0.182,0.015,-84.244,-153.416,-171.204
1747601905.98,0.025,0.042,0.022,0.129,-0.343,0.022,-84.369,-153.291,-170.779
1747601906.00,-0.069,-0.001,0.017,0.118,-0.302,-0.002,-84.490,-153.122,-170.212
1747601906.02,-0.005,-0.043,-0.006,0.095,-0.068,-0.005,-84.589,-152.726,-169.598
1747601906.04,0.054,0.019,0.024,0.105,-0.001,0.029,-84.694,-152.286,-169.133
1747601906.06,0.027,0.058,0.048,0.074,-0.050,0.080,-84.821,-152.499,-169.313
1747601906.08,-0.050,-0.008,0.035,0.007,0.046,0.058,-84.897,-153.008,-169.810
1747601906.10,-0.038,-0.048,0.049,0.000,0.134,0.012,-84.906,-153.284,-170.206
1747601906.12,-0.018,-0.009,0.021,0.049,0.088,0.010,-84.936,-153.109,-170.157
1747601906.14,-0.040,-0.008,0.056,0.059,0.087,0.044,-85.008,-153.094,-170.236
1747601906.16,0.008,-0.027,0.024,0.054,0.109,0.071,-85.079,-153.324,-170.598
1747601906.18,0.058,0.013,-0.034,0.177,-0.079,0.090,-85.222,-153.560,-170.855
1747601906.20,0.039,0.043,-0.001,0.253,-0.184,0.105,-85.494,-153.572,-170.707
1747601906.22,-0.036,0.006,0.024,0.266,-0.074,0.077,-85.800,-153.135,-170.101
1747601906.24,-0.026,-0.023,0.061,0.270,-0.012,0.105,-86.107,-152.517,-169.448
1747601906.26,0.001,-0.016,0.053,0.348,-0.092,0.134,-86.486,-152.115,-169.001
1747601906.28,0.003,0.010,0.018,0.435,-0.205,0.133,-86.957,-150.931,-167.636
1747601906.30,-0.004,0.027,0.033,0.505,-0.196,0.131,-87.500,-148.339,-164.793
1747601906.32,-0.039,-0.011,0.025,0.588,-0.090,0.140,-88.097,-142.442,-158.724
1747601906.34,-0.026,-0.005,0.012,0.696,-0.062,0.183,-88.750,-128.746,-144.958
1747601906.36,-0.029,0.041,0.003,0.730,-0.120,0.198,-89.243,-86.549,-102.653
1747601906.38,-0.029,0.007,0.063,0.768,-0.106,0.185,-88.959,-31.282,-47.231
1747601906.40,-0.026,-0.027,0.087,0.838,-0.036,0.184,-88.168,-10.371,-26.244
1747601906.42,-0.038,-0.013,0.005,0.995,-0.050,0.139,-87.147,-2.858,-18.664
1747601906.44,-0.008,0.030,0.041,1.108,-0.063,0.064,-85.932,-0.475,-16.219
1747601906.46,0.045,-0.025,0.113,1.195,-0.087,0.197,-84.635,0.974,-14.690
1747601906.48,-0.031,-0.040,-0.062,1.151,-0.385,0.251,-83.240,2.888,-12.500
1747601906.50,-0.133,0.001,0.079,0.971,0.146,0.185,-82.043,4.005,-11.171
1747601906.52,-0.053,-0.059,0.144,1.091,0.396,0.268,-80.846,5.338,-10.205
1747601906.54,0.079,-0.017,0.039,1.088,0.055,0.409,-79.571,7.146,-8.665
1747601906.56,0.110,0.051,0.064,1.051,0.153,0.387,-78.288,8.697,-7.148
1747601906.58,0.027,0.022,0.069,1.061,0.108,0.270,-77.035,9.715,-6.297
1747601906.60,-0.142,-0.021,0.022,1.051,-0.060,0.254,-75.802,9.983,-6.037
1747601906.62,-0.053,-0.057,-0.021,1.107,0.134,0.302,-74.539,10.441,-5.595
1747601906.64,0.053,-0.007,-0.018,1.066,0.307,0.273,-73.238,10.961,-5.284
1747601906.66,0.008,0.037,0.012,0.941,0.348,0.331,-72.054,11.730,-4.897
1747601906.68,-0.088,0.002,0.006,0.810,0.397,0.355,-70.982,12.645,-4.371
1747601906.70,0.089,-0.043,0.008,1.031,0.232,0.352,-69.897,13.512,-3.835
1747601906.72,0.216,-0.023,-0.093,1.164,-0.094,0.276,-68.555,13.731,-3.672
1747601906.74,0.089,-0.054,-0.040,1.088,0.038,0.177,-67.226,13.502,-3.855
1747601906.76,-0.061,-0.067,0.025,0.798,0.330,0.312,-66.119,13.716,-3.821
1747601906.78,-0.121,0.006,0.045,0.667,0.354,0.442,-65.201,14.573,-3.265
1747601906.80,-0.018,0.003,0.038,0.756,0.422,0.472,-64.324,15.738,-2.487
1747601906.82,0.057,0.009,-0.050,0.995,0.113,0.368,-63.206,16.404,-2.061
1747601906.84,0.023,0.042,0.108,0.995,0.245,0.235,-61.981,16.609,-2.043
1747601906.86,-0.116,0.046,-0.010,0.832,0.089,0.200,-60.927,16.646,-2.198
1747601906.88,0.013,-0.004,-0.016,0.963,0.071,0.285,-59.892,16.735,-2.197
1747601906.90,0.111,0.025,-0.016,1.124,-0.143,0.152,-58.668,16.534,-2.372
1747601906.92,0.045,0.005,-0.023,1.150,-0.074,0.070,-57.370,15.966,-2.872
1747601906.94,0.005,-0.069,0.071,0.984,0.108,0.118,-56.181,15.630,-3.320
1747601906.96,0.042,-0.034,0.024,0.825,0.134,0.244,-55.146,15.690,-3.448
1747601906.98,0.107,0.060,-0.004,0.829,-0.105,0.276,-54.168,15.772,-3.376
1747601907.00,0.082,0.051,0.025,0.967,-0.274,0.232,-53.109,15.556,-3.374
1747601907.02,-0.016,0.023,-0.009,0.907,-0.065,0.148,-51.977,15.186,-3.512
1747601907.04,-0.074,-0.007,-0.019,0.770,0.012,0.091,-51.027,15.038,-3.749
1747601907.06,-0.050,-0.043,0.012,0.702,0.029,0.152,-50.186,14.976,-3.887
1747601907.08,-0.012,-0.032,-0.010,0.747,-0.087,0.196,-49.344,14.918,-3.953
1747601907.10,-0.042,0.010,-0.016,0.839,-0.067,0.163,-48.402,14.778,-4.002
1747601907.12,-0.005,0.085,0.026,0.816,0.080,-0.003,-47.453,14.624,-4.269
1747601907.14,0.033,0.045,0.036,0.665,0.005,0.049,-46.629,14.469,-4.596
1747601907.16,0.113,-0.026,-0.070,0.573,-0.171,0.206,-45.926,14.328,-4.673
1747601907.18,0.098,-0.007,0.027,0.672,-0.243,0.253,-45.180,14.199,-4.571
1747601907.20,-0.035,0.041,-0.026,0.764,-0.274,0.184,-44.309,13.950,-4.529
1747601907.22,-0.026,0.009,0.011,0.818,-0.241,0.080,-43.398,13.570,-4.641
1747601907.24,0.042,0.002,0.025,0.638,-0.184,0.049,-42.551,13.223,-4.834
1747601907.26,0.042,-0.054,-0.098,0.446,-0.229,0.197,-41.936,12.967,-4.887
1747601907.28,0.042,-0.081,0.001,0.503,-0.083,0.296,-41.357,12.957,-4.673
1747601907.30,-0.082,0.043,0.028,0.591,-0.110,0.232,-40.674,12.992,-4.476
1747601907.32,-0.039,0.094,0.001,0.641,-0.144,0.133,-39.949,12.892,-4.450
1747601907.34,0.060,0.060,0.019,0.636,-0.209,0.076,-39.192,12.635,-4.533
1747601907.36,0.005,-0.008,-0.042,0.529,-0.267,0.148,-38.519,12.333,-4.593
1747601907.38,-0.103,-0.063,-0.038,0.451,-0.099,0.159,-37.941,12.177,-4.527
1747601907.40,-0.101,-0.000,-0.013,0.458,0.074,0.071,-37.415,12.179,-4.530
1747601907.42,-0.070,0.071,0.034,0.516,0.067,0.047,-36.851,12.233,-4.620
1747601907.44,-0.036,0.096,-0.018,0.505,0.089,0.033,-36.269,12.254,-4.731
1747601907.46,-0.045,0.045,-0.037,0.447,0.142,-0.013,-35.723,12.298,-4.896
1747601907.48,-0.032,-0.045,-0.058,0.371,0.227,-0.043,-35.288,12.421,-5.083
1747601907.50,0.005,-0.035,-0.027,0.378,0.168,-0.067,-34.886,12.561,-5.290
1747601907.52,0.058,0.081,-0.002,0.395,0.026,-0.092,-34.469,12.535,-5.554
1747601907.54,0.070,0.115,0.001,0.337,-0.077,-0.046,-34.074,12.366,-5.808
1747601907.56,0.017,0.038,-0.020,0.334,-0.113,-0.007,-33.703,12.188,-5.970
1747601907.58,-0.009,-0.034,-0.049,0.341,-0.056,-0.048,-33.338,12.020,-6.146
1747601907.60,-0.058,-0.062,-0.005,0.318,0.005,-0.106,-32.982,11.886,-6.391
1747601907.62,-0.044,-0.086,-0.006,0.273,0.067,-0.107,-32.675,11.808,-6.656
1747601907.64,0.051,-0.018,-0.037,0.243,0.033,-0.093,-32.414,11.779,-6.870
1747601907.66,0.115,0.114,0.019,0.256,-0.111,-0.059,-32.157,11.648,-7.061
1747601907.68,0.096,0.113,0.013,0.274,-0.178,-0.031,-31.857,11.393,-7.217
1747601907.70,0.006,0.033,-0.007,0.122,-0.122,-0.011,-31.639,11.155,-7.339
1747601907.72,-0.035,-0.013,-0.029,0.028,-0.005,0.104,-31.545,11.125,-7.315
1747601907.74,0.103,0.090,-0.041,0.026,-0.099,0.121,-31.503,11.154,-7.202
1747601907.76,0.118,0.152,0.009,0.049,-0.226,0.107,-31.428,11.032,-7.083
1747601907.78,-0.024,-0.016,0.009,0.022,-0.057,0.060,-31.366,10.904,-7.015
1747601907.80,-0.092,-0.090,-0.069,-0.060,0.039,0.061,-31.384,10.941,-6.953
1747601907.82,-0.048,0.039,-0.031,-0.049,0.041,0.025,-31.435,11.050,-6.888
1747601907.84,0.021,0.051,-0.026,-0.066,-0.027,-0.038,-31.504,11.054,-6.899
1747601907.86,0.049,-0.065,-0.056,-0.146,0.048,-0.024,-31.631,11.045,-6.937
1747601907.88,0.030,-0.002,-0.066,-0.232,0.100,0.020,-31.850,11.157,-6.917
1747601907.90,0.072,0.077,-0.009,-0.242,0.018,0.042,-32.104,11.297,-6.812
1747601907.92,0.111,0.022,-0.028,-0.308,-0.023,-0.003,-32.402,11.328,-6.722
1747601907.94,0.055,-0.055,-0.093,-0.432,-0.033,-0.013,-32.814,11.339,-6.659
1747601907.96,0.030,-0.001,-0.031,-0.488,0.048,0.026,-33.325,11.434,-6.531
1747601907.98,0.031,0.087,-0.038,-0.574,-0.004,0.017,-33.905,11.568,-6.359
1747601908.00,-0.006,0.051,-0.086,-0.688,-0.043,-0.046,-34.619,11.625,-6.214
1747601908.02,-0.025,-0.039,-0.079,-0.762,-0.007,-0.085,-35.445,11.656,-6.096
1747601908.04,0.008,-0.020,-0.032,-0.774,-0.098,-0.118,-36.337,11.647,-6.020
1747601908.06,0.060,0.017,-0.054,-0.770,-0.172,-0.114,-37.229,11.522,-5.972
1747601908.08,0.035,-0.023,-0.071,-0.809,-0.083,-0.116,-38.124,11.387,-5.916
1747601908.10,-0.028,-0.122,-0.083,-0.895,0.053,-0.057,-39.101,11.449,-5.791
1747601908.12,0.017,-0.173,-0.022,-0.952,0.148,-0.008,-40.139,11.720,-5.535
1747601908.14,0.086,-0.120,-0.034,-0.978,0.044,-0.056,-41.234,12.015,-5.256
1747601908.16,0.057,-0.022,-0.088,-0.939,-0.112,-0.131,-42.328,12.070,-5.073
1747601908.18,-0.012,0.015,-0.047,-0.921,-0.123,-0.185,-43.402,11.970,-4.983
1747601908.20,-0.104,-0.027,-0.014,-1.017,0.031,-0.203,-44.518,11.897,-4.961
1747601908.22,-0.094,-0.047,-0.003,-1.076,0.118,-0.144,-45.740,12.075,-4.862
1747601908.24,-0.024,0.003,-0.019,-1.114,0.165,-0.129,-47.002,12.345,-4.666
1747601908.26,0.037,0.048,-0.016,-1.087,0.081,-0.147,-48.256,12.621,-4.472
1747601908.28,0.038,0.051,-0.023,-1.123,0.057,-0.212,-49.532,12.789,-4.336
1747601908.30,0.015,0.005,-0.022,-1.211,0.057,-0.215,-50.885,12.909,-4.243
1747601908.32,0.014,-0.007,0.015,-1.291,0.060,-0.145,-52.327,13.126,-4.024
1747601908.34,0.046,0.056,0.052,-1.330,0.023,-0.106,-53.822,13.462,-3.655
1747601908.36,0.033,0.084,0.023,-1.305,-0.048,-0.158,-55.315,13.761,-3.245
1747601908.38,-0.035,0.046,-0.026,-1.288,-0.077,-0.253,-56.804,13.853,-3.022
1747601908.40,-0.067,-0.015,-0.001,-1.299,0.075,-0.327,-58.320,13.884,-2.974
1747601908.42,-0.068,-0.031,0.024,-1.338,0.144,-0.274,-59.861,14.048,-2.945
1747601908.44,0.031,-0.022,0.036,-1.477,0.136,-0.189,-61.485,14.472,-2.645
1747601908.46,0.135,-0.010,0.023,-1.424,-0.109,-0.182,-63.145,14.939,-2.164
1747601908.48,0.156,-0.011,-0.008,-1.429,-0.286,-0.292,-64.788,15.070,-1.759
1747601908.50,0.075,-0.030,-0.029,-1.405,-0.453,-0.383,-66.439,14.702,-1.699
1747601908.52,-0.014,-0.017,0.024,-1.384,-0.440,-0.365,-68.108,14.126,-1.730
1747601908.54,-0.085,-0.031,0.023,-1.304,-0.301,-0.334,-69.684,13.619,-1.816
1747601908.56,-0.080,-0.066,0.009,-1.299,-0.085,-0.295,-71.213,13.421,-1.803
1747601908.58,-0.067,-0.061,-0.116,-1.312,-0.055,-0.316,-72.743,13.347,-1.788
1747601908.60,0.001,-0.046,-0.061,-1.310,-0.051,-0.305,-74.286,13.286,-1.807
1747601908.62,0.013,-0.022,0.022,-1.323,0.074,-0.256,-75.810,13.422,-1.661
1747601908.64,-0.021,-0.023,0.019,-1.303,0.067,-0.242,-77.343,13.844,-1.335
1747601908.66,-0.036,-0.018,-0.058,-1.253,0.004,-0.272,-78.836,14.251,-0.920
1747601908.68,0.004,-0.025,0.016,-1.180,0.188,-0.299,-80.261,14.432,-0.854
1747601908.70,0.015,0.008,0.019,-1.119,0.081,-0.249,-81.621,14.814,-0.639
1747601908.72,-0.013,-0.011,-0.050,-1.097,0.049,-0.304,-82.917,15.075,-0.441
1747601908.74,0.036,-0.044,-0.065,-1.017,0.030,-0.310,-84.184,14.843,-0.725
1747601908.76,0.075,-0.005,-0.023,-0.998,0.079,-0.302,-85.368,14.423,-1.177
1747601908.78,-0.023,0.029,0.072,-0.971,0.092,-0.389,-86.567,12.928,-2.808
1747601908.80,-0.130,-0.021,-0.008,-0.901,0.108,-0.342,-87.690,8.262,-7.542
1747601908.82,-0.040,-0.048,0.077,-0.949,0.503,-0.251,-88.778,0.438,-15.733
1747601908.84,-0.018,-0.005,0.005,-0.859,0.462,-0.237,-89.684,-55.657,-72.399
1747601908.86,0.029,0.020,-0.015,-0.764,0.487,-0.272,-89.073,-143.578,-160.862
1747601908.88,0.019,0.078,0.030,-0.630,0.308,-0.333,-88.224,-149.629,-167.384
1747601908.90,-0.052,0.054,-0.021,-0.529,0.186,-0.445,-87.427,-148.464,-166.468
1747601908.92,0.014,0.011,-0.001,-0.475,0.265,-0.444,-86.662,-145.659,-163.921
1747601908.94,0.112,-0.044,0.071,-0.411,0.087,-0.304,-86.007,-144.412,-162.910
1747601908.96,0.107,-0.086,0.055,-0.352,-0.278,-0.219,-85.480,-144.716,-163.119
1747601908.98,0.062,-0.065,0.002,-0.217,-0.563,-0.186,-85.081,-145.328,-163.226
1747601909.00,0.045,0.007,-0.046,-0.162,-0.461,-0.181,-84.795,-145.158,-162.430
1747601909.02,0.027,0.014,0.007,-0.129,-0.298,-0.081,-84.574,-145.226,-162.085
1747601909.04,-0.089,-0.026,-0.008,-0.175,-0.310,-0.017,-84.399,-146.202,-162.706
1747601909.06,-0.082,-0.030,-0.019,-0.065,-0.205,0.001,-84.274,-147.258,-163.464
1747601909.08,-0.060,0.049,0.022,-0.032,0.005,0.081,-84.257,-147.911,-164.004
1747601909.10,-0.143,0.006,0.087,-0.097,0.259,0.169,-84.286,-149.394,-165.641
1747601909.12,-0.194,-0.082,0.103,-0.154,0.499,0.138,-84.240,-151.267,-167.976
1747601909.14,-0.019,-0.048,0.041,-0.169,0.485,0.097,-84.133,-152.823,-170.112
1747601909.16,0.124,0.079,0.017,-0.000,0.348,0.057,-84.077,-153.464,-171.252
1747601909.18,0.090,0.080,0.028,0.030,-0.030,0.078,-84.158,-153.758,-171.743
1747601909.20,-0.001,-0.041,0.034,-0.028,-0.269,0.012,-84.173,-154.510,-172.297
1747601909.22,0.055,-0.067,-0.009,-0.000,-0.261,-0.052,-84.142,-154.675,-172.145
1747601909.24,0.090,0.013,0.018,0.094,-0.217,-0.022,-84.170,-154.220,-171.415
1747601909.26,0.032,0.041,0.016,0.118,-0.254,0.049,-84.301,-154.069,-171.016
1747601909.28,-0.070,-0.010,-0.008,0.055,-0.213,0.034,-84.412,-154.418,-171.077
1747601909.30,-0.054,0.010,-0.038,0.062,0.019,0.017,-84.480,-154.527,-171.055
1747601909.32,-0.046,0.024,0.010,0.067,0.264,0.018,-84.559,-154.198,-170.907
1747601909.34,-0.044,-0.010,0.007,0.079,0.304,0.064,-84.648,-153.936,-170.987
1747601909.36,0.013,-0.024,-0.018,0.135,0.243,0.093,-84.798,-153.916,-171.285
1747601909.38,0.059,0.002,-0.006,0.154,0.214,0.074,-84.992,-153.695,-171.331
1747601909.40,0.048,0.003,0.025,0.196,0.111,0.085,-85.207,-153.395,-171.218
1747601909.42,0.031,-0.010,0.012,0.264,0.022,0.079,-85.477,-152.853,-170.749
1747601909.44,0.029,0.012,0.008,0.283,-0.191,0.096,-85.809,-152.214,-170.024
1747601909.46,-0.022,0.013,0.021,0.284,-0.280,0.037,-86.127,-151.367,-168.880
1747601909.48,-0.014,-0.047,0.053,0.344,-0.212,0.048,-86.461,-149.456,-166.687
1747601909.50,0.015,-0.026,0.069,0.356,-0.209,0.110,-86.845,-147.464,-164.462
1747601909.52,-0.020,0.032,0.015,0.459,-0.166,0.092,-87.301,-144.588,-161.351
1747601909.54,-0.052,0.033,0.038,0.546,-0.091,0.101,-87.818,-138.303,-154.910
1747601909.56,-0.090,0.009,0.056,0.558,-0.145,0.134,-88.358,-126.915,-143.402
1747601909.58,-0.115,-0.011,0.055,0.535,-0.012,0.139,-88.784,-108.183,-124.522
1747601909.60,-0.042,-0.028,0.104,0.588,0.152,0.177,-88.986,-74.842,-91.303
1747601909.62,-0.010,0.001,0.069,0.668,0.055,0.210,-88.761,-37.547,-54.121
1747601909.64,0.018,0.030,0.062,0.706,-0.149,0.190,-88.154,-16.234,-32.774
1747601909.66,-0.036,0.049,0.052,0.734,-0.373,0.101,-87.377,-8.030,-24.241
1747601909.68,-0.040,-0.011,0.058,0.783,-0.264,0.036,-86.541,-5.169,-20.997
1747601909.70,-0.028,-0.022,0.068,0.795,-0.173,0.058,-85.628,-3.698,-19.279
1747601909.72,-0.051,0.010,0.063,0.793,-0.111,0.111,-84.730,-2.161,-17.559
1747601909.74,-0.082,0.004,0.097,0.679,0.108,0.151,-83.898,-0.451,-15.842
1747601909.76,-0.038,-0.051,0.030,0.705,0.184,0.209,-83.113,1.441,-14.118
1747601909.78,0.070,-0.021,-0.031,0.701,-0.162,0.267,-82.308,3.394,-12.195
1747601909.80,0.080,0.010,-0.024,0.794,-0.287,0.236,-81.430,4.709,-10.560
1747601909.82,0.057,-0.016,0.023,0.884,-0.209,0.213,-80.462,5.474,-9.517
1747601909.84,0.002,-0.033,-0.038,0.810,-0.223,0.281,-79.445,6.160,-8.568
1747601909.86,0.026,-0.023,-0.055,0.916,-0.149,0.382,-78.427,7.354,-7.124
1747601909.88,-0.029,-0.019,0.056,0.919,0.055,0.366,-77.354,8.594,-5.803
1747601909.90,0.000,-0.032,0.004,0.990,0.100,0.377,-76.190,9.723,-4.736
1747601909.92,-0.025,-0.010,-0.002,0.978,0.195,0.332,-75.017,10.712,-3.896
1747601909.94,-0.053,0.021,-0.031,1.009,0.161,0.297,-73.833,11.362,-3.425
1747601909.96,-0.013,-0.006,0.029,0.926,0.367,0.360,-72.671,12.138,-2.936
1747601909.98,-0.021,-0.024,0.000,0.968,0.445,0.350,-71.548,13.110,-2.377
1747601910.00,-0.006,0.011,0.029,1.028,0.513,0.333,-70.324,13.989,-2.066
1747601910.02,0.043,-0.002,-0.002,0.979,0.418,0.317,-69.116,14.734,-1.822
1747601910.04,0.076,-0.049,0.039,0.991,0.433,0.333,-67.948,15.385,-1.654
1747601910.06,-0.005,-0.044,-0.035,1.114,0.256,0.379,-66.691,15.923,-1.472
1747601910.08,-0.003,-0.018,-0.071,1.054,0.288,0.396,-65.333,16.401,-1.267
1747601910.10,-0.014,-0.003,0.050,0.836,0.339,0.238,-64.219,16.874,-1.143
1747601910.11,-0.043,-0.016,-0.019,0.803,0.140,0.285,-63.248,17.108,-1.152
1747601910.13,0.077,-0.004,0.016,1.061,-0.021,0.375,-62.147,17.329,-0.966
1747601910.16,0.049,0.000,-0.072,1.216,-0.128,0.236,-60.763,17.122,-1.027
1747601910.18,-0.053,-0.058,-0.034,0.999,0.087,0.168,-59.478,16.751,-1.373
1747601910.20,0.011,-0.040,0.159,0.701,0.204,0.418,-58.478,17.061,-1.269
1747601910.21,0.019,0.125,0.112,0.614,0.140,0.492,-57.613,17.719,-0.679
1747601910.24,0.074,0.106,0.037,0.904,-0.200,0.435,-56.628,18.096,-0.201
1747601910.25,0.022,0.008,-0.060,1.134,-0.309,0.194,-55.395,17.738,-0.220
1747601910.27,-0.156,-0.008,0.039,0.956,0.060,0.062,-54.188,17.211,-0.634
1747601910.29,-0.228,-0.007,0.063,0.711,0.301,0.231,-53.255,17.247,-0.879
1747601910.31,0.089,0.069,0.120,0.733,0.175,0.325,-52.390,17.706,-0.726
1747601910.33,0.334,0.140,-0.009,0.899,-0.345,0.200,-51.408,17.606,-0.722
1747601910.35,0.182,0.046,0.010,0.937,-0.359,0.155,-50.336,17.009,-0.932
1747601910.37,-0.068,-0.028,0.031,0.772,-0.185,0.145,-49.332,16.536,-1.132
1747601910.39,-0.010,-0.059,-0.005,0.571,-0.000,0.189,-48.564,16.419,-1.200
1747601910.41,0.032,-0.012,-0.001,0.660,-0.153,0.236,-47.835,16.386,-1.159
1747601910.43,0.003,0.112,-0.049,0.793,-0.312,0.222,-46.970,16.166,-1.139
1747601910.45,-0.081,0.104,0.027,0.859,-0.237,0.058,-45.998,15.690,-1.308
1747601910.47,0.006,-0.009,0.072,0.746,-0.108,-0.011,-45.092,15.283,-1.689
1747601910.49,0.127,-0.104,-0.078,0.593,-0.194,0.124,-44.364,14.978,-1.890
1747601910.51,0.134,-0.048,0.001,0.691,-0.311,0.200,-43.607,14.692,-1.912
1747601910.53,0.015,0.032,0.006,0.733,-0.330,0.196,-42.751,14.323,-1.889
1747601910.55,-0.031,0.016,0.006,0.701,-0.216,0.061,-41.922,13.983,-1.990
1747601910.57,-0.006,-0.035,-0.062,0.644,-0.211,0.033,-41.156,13.604,-2.202
1747601910.59,0.008,-0.009,-0.006,0.528,-0.182,0.087,-40.489,13.291,-2.354
1747601910.61,-0.038,0.034,-0.042,0.440,-0.177,0.199,-39.924,13.117,-2.309
1747601910.63,-0.030,0.058,-0.007,0.544,-0.125,0.128,-39.340,13.016,-2.207
1747601910.65,-0.104,0.054,-0.057,0.617,-0.128,-0.050,-38.670,12.767,-2.374
1747601910.67,-0.135,-0.046,-0.021,0.558,0.035,-0.166,-38.040,12.500,-2.740
1747601910.69,-0.087,-0.068,-0.020,0.487,0.106,-0.138,-37.499,12.341,-3.165
1747601910.71,0.055,0.019,-0.028,0.439,-0.038,-0.063,-37.013,12.224,-3.439
1747601910.73,0.104,0.145,0.004,0.447,-0.110,-0.099,-36.537,11.993,-3.704
1747601910.75,0.014,0.036,0.015,0.413,-0.051,-0.038,-36.067,11.733,-3.953
1747601910.77,0.019,-0.094,-0.020,0.346,0.101,0.061,-35.645,11.720,-4.060
1747601910.79,0.065,-0.084,-0.047,0.315,0.067,0.097,-35.257,11.848,-4.058
1747601910.81,0.130,0.043,-0.044,0.311,-0.128,0.088,-34.887,11.839,-4.042
1747601910.83,0.099,0.078,-0.016,0.280,-0.246,0.090,-34.530,11.633,-4.018
1747601910.85,-0.038,0.017,-0.003,0.195,-0.135,0.097,-34.232,11.421,-3.981
1747601910.87,-0.136,-0.024,-0.004,0.166,0.089,0.121,-34.016,11.467,-3.891
1747601910.89,-0.127,0.070,-0.004,0.183,0.137,0.081,-33.796,11.672,-3.802
1747601910.91,-0.022,0.093,-0.033,0.213,0.043,-0.001,-33.567,11.775,-3.817
1747601910.93,0.018,0.013,-0.002,0.221,-0.032,-0.055,-33.334,11.713,-3.931
1747601910.95,0.025,-0.025,-0.002,0.206,-0.050,-0.046,-33.102,11.593,-4.078
1747601910.97,0.011,0.014,-0.017,0.153,0.030,0.005,-32.898,11.525,-4.159
1747601910.99,-0.031,0.039,-0.019,0.083,0.135,0.040,-32.776,11.617,-4.176
1747601911.01,-0.004,0.005,-0.031,0.059,0.157,0.029,-32.691,11.818,-4.133
1747601911.03,0.115,0.015,-0.004,0.108,0.022,0.015,-32.594,11.916,-4.142
1747601911.05,0.121,0.023,-0.012,0.086,-0.090,0.056,-32.470,11.876,-4.133
1747601911.07,0.065,0.008,-0.033,-0.031,-0.027,0.109,-32.415,11.856,-4.038
1747601911.09,0.006,0.036,-0.046,-0.097,0.021,0.117,-32.460,11.939,-3.875
1747601911.11,0.001,0.069,-0.024,-0.147,-0.006,0.052,-32.582,12.047,-3.722
1747601911.13,0.038,0.048,-0.033,-0.166,-0.002,-0.024,-32.746,12.092,-3.667
1747601911.15,-0.052,0.044,-0.078,-0.226,-0.005,-0.056,-32.970,12.082,-3.679
1747601911.17,-0.070,0.042,-0.059,-0.313,0.055,-0.126,-33.293,12.099,-3.746
1747601911.19,-0.025,0.074,-0.038,-0.352,0.055,-0.153,-33.694,12.116,-3.847
1747601911.21,0.034,0.052,-0.024,-0.419,0.069,-0.183,-34.167,12.114,-3.961
1747601911.23,0.059,0.022,-0.048,-0.533,0.070,-0.171,-34.741,12.150,-4.074
1747601911.25,0.118,0.008,-0.076,-0.622,0.042,-0.122,-35.429,12.192,-4.099
1747601911.27,0.110,0.053,-0.032,-0.701,0.004,-0.145,-36.196,12.233,-4.078
1747601911.29,0.013,0.018,-0.008,-0.711,-0.082,-0.136,-37.019,12.190,-4.052
1747601911.31,0.032,-0.023,-0.033,-0.744,-0.076,-0.160,-37.869,12.107,-4.038
1747601911.33,0.050,-0.021,-0.076,-0.783,-0.081,-0.165,-38.758,12.019,-4.046
1747601911.35,0.018,-0.043,-0.042,-0.818,-0.037,-0.135,-39.687,11.969,-4.009
1747601911.37,-0.051,-0.056,-0.039,-0.907,-0.011,-0.118,-40.679,11.987,-3.916
1747601911.39,-0.024,-0.068,-0.021,-0.997,0.102,-0.120,-41.776,12.120,-3.780
1747601911.41,0.066,-0.071,-0.033,-1.030,0.085,-0.097,-42.930,12.353,-3.604
1747601911.43,0.110,-0.030,-0.029,-1.038,-0.021,-0.034,-44.100,12.574,-3.338
1747601911.45,0.049,0.020,-0.065,-1.054,-0.156,-0.020,-45.269,12.686,-2.980
1747601911.47,-0.034,-0.004,0.005,-1.080,-0.083,-0.069,-46.467,12.768,-2.634
1747601911.49,-0.078,-0.062,-0.018,-1.109,0.039,-0.092,-47.703,12.953,-2.313
1747601911.51,-0.043,-0.087,-0.031,-1.182,0.119,-0.038,-48.996,13.293,-1.935
1747601911.53,0.066,-0.035,-0.035,-1.220,0.050,0.026,-50.339,13.783,-1.409
1747601911.55,0.092,0.026,-0.028,-1.193,-0.070,-0.000,-51.680,14.214,-0.800
1747601911.57,0.038,0.031,-0.058,-1.188,-0.158,-0.135,-52.999,14.412,-0.341
1747601911.59,-0.075,-0.008,-0.006,-1.264,-0.112,-0.259,-54.415,14.420,-0.103
1747601911.61,-0.153,-0.027,0.034,-1.356,0.039,-0.219,-55.933,14.513,0.096
1747601911.63,-0.113,0.032,0.027,-1.354,0.118,-0.174,-57.498,14.892,0.474
1747601911.65,-0.058,0.088,0.002,-1.275,0.166,-0.266,-59.010,15.320,0.828
1747601911.67,-0.043,0.033,-0.046,-1.218,0.171,-0.450,-60.482,15.476,0.838
1747601911.69,-0.020,-0.081,-0.025,-1.338,0.246,-0.506,-62.045,15.430,0.564
1747601911.71,0.036,-0.086,-0.047,-1.327,0.069,-0.478,-63.660,15.354,0.309
1747601911.73,0.131,-0.051,-0.032,-1.339,0.032,-0.453,-65.273,15.164,0.116
1747601911.75,0.137,-0.052,-0.023,-1.376,-0.095,-0.422,-66.892,14.945,-0.058
1747601911.77,0.119,-0.057,-0.039,-1.460,-0.079,-0.359,-68.590,14.802,-0.040
1747601911.79,0.121,-0.037,-0.045,-1.410,-0.210,-0.328,-70.266,14.763,0.073
1747601911.81,0.112,-0.030,-0.022,-1.357,-0.150,-0.353,-71.898,14.618,0.162
1747601911.83,0.093,-0.072,-0.063,-1.330,-0.188,-0.332,-73.471,14.429,0.138
1747601911.85,0.069,-0.060,-0.072,-1.397,-0.253,-0.297,-75.082,14.339,0.321
1747601911.87,-0.007,-0.006,0.013,-1.363,-0.085,-0.363,-76.698,14.219,0.428
1747601911.89,-0.074,0.007,0.024,-1.322,-0.053,-0.435,-78.306,13.863,0.105
1747601911.91,-0.063,-0.037,-0.012,-1.284,-0.052,-0.405,-79.864,13.080,-0.602
1747601911.93,0.026,-0.050,0.039,-1.209,-0.007,-0.306,-81.356,12.668,-1.018
1747601911.95,-0.032,0.007,-0.002,-1.202,0.114,-0.341,-82.754,12.232,-1.482
1747601911.97,-0.060,-0.000,0.068,-1.117,0.253,-0.367,-84.157,11.382,-2.582
1747601911.99,-0.030,-0.016,-0.027,-1.047,0.248,-0.297,-85.420,9.953,-4.284
1747601912.01,0.059,0.009,0.074,-1.093,0.390,-0.297,-86.705,8.759,-5.870
1747601912.03,-0.016,-0.006,0.007,-0.986,0.214,-0.327,-87.911,4.189,-10.781
1747601912.05,-0.045,-0.026,0.021,-0.950,0.232,-0.321,-89.010,-12.475,-27.692
1747601912.07,-0.057,-0.015,0.010,-0.827,0.318,-0.359,-89.403,-94.642,-110.209
1747601912.09,-0.078,0.040,-0.019,-0.741,0.241,-0.386,-88.614,-132.138,-148.004
1747601912.11,-0.056,0.037,0.038,-0.701,0.424,-0.328,-87.728,-140.298,-156.548
1747601912.13,-0.050,-0.074,0.010,-0.690,0.507,-0.210,-86.914,-144.820,-161.588
1747601912.15,0.072,-0.092,0.033,-0.703,0.586,-0.136,-86.131,-148.861,-166.288
1747601912.17,0.105,0.004,0.018,-0.529,0.371,-0.120,-85.447,-151.521,-169.504
1747601912.19,0.028,0.040,0.012,-0.422,0.154,-0.205,-84.888,-152.316,-170.606
1747601912.21,-0.032,0.020,-0.021,-0.395,0.105,-0.265,-84.349,-151.892,-170.314
1747601912.23,-0.002,0.011,0.003,-0.237,0.130,-0.217,-83.886,-151.081,-169.630
1747601912.25,0.002,-0.009,0.030,-0.226,0.079,-0.099,-83.583,-150.601,-169.265
1747601912.27,-0.039,-0.017,0.036,-0.266,0.016,-0.057,-83.293,-151.147,-169.877
1747601912.29,-0.070,-0.007,-0.015,-0.172,0.030,-0.046,-83.035,-151.767,-170.499
1747601912.31,-0.040,0.008,-0.008,-0.123,0.292,-0.037,-82.885,-151.793,-170.704
1747601912.33,-0.032,0.008,0.024,-0.102,0.393,0.024,-82.757,-151.795,-171.155
1747601912.35,-0.017,-0.009,0.015,-0.113,0.054,0.038,-82.672,-152.332,-171.954
1747601912.37,0.016,-0.007,-0.010,-0.030,-0.090,-0.034,-82.597,-152.684,-172.268
1747601912.39,0.041,0.017,0.012,0.086,-0.075,-0.044,-82.596,-152.250,-171.740
1747601912.41,-0.012,0.022,0.036,0.126,-0.153,-0.007,-82.697,-151.649,-171.000
1747601912.43,-0.045,-0.003,0.044,0.065,-0.150,0.033,-82.790,-151.484,-170.650
1747601912.45,-0.061,-0.018,0.031,0.096,-0.104,0.034,-82.885,-151.672,-170.693
1747601912.47,-0.073,-0.025,0.020,0.121,-0.032,0.003,-83.011,-151.449,-170.384
1747601912.49,-0.037,-0.022,0.040,0.082,0.071,0.018,-83.112,-151.105,-170.053
1747601912.51,0.002,0.004,0.063,0.041,0.142,0.072,-83.184,-150.988,-170.078
1747601912.53,0.046,-0.013,0.055,0.016,-0.010,0.081,-83.243,-151.488,-170.663
1747601912.55,0.068,-0.035,0.022,0.072,-0.129,0.013,-83.299,-151.705,-170.800
1747601912.57,0.043,-0.011,-0.005,0.112,-0.082,-0.022,-83.384,-151.334,-170.285
1747601912.59,-0.010,0.048,0.008,0.107,-0.055,0.008,-83.484,-150.757,-169.632
1747601912.61,-0.022,0.029,-0.010,0.102,-0.048,0.040,-83.595,-150.631,-169.436
1747601912.63,-0.013,-0.004,0.019,0.088,0.047,0.055,-83.719,-150.661,-169.477
1747601912.65,-0.057,-0.036,0.027,0.096,0.082,0.066,-83.847,-150.812,-169.691
1747601912.67,-0.029,-0.044,0.003,0.097,0.142,0.077,-83.983,-150.787,-169.798
1747601912.69,0.042,0.015,0.001,0.115,0.190,0.080,-84.127,-150.756,-169.973
1747601912.71,0.052,0.047,-0.030,0.142,-0.043,0.054,-84.292,-150.626,-169.950
1747601912.73,0.040,-0.011,-0.025,0.191,-0.215,0.039,-84.462,-150.261,-169.415
1747601912.75,0.045,-0.031,-0.005,0.212,-0.253,0.041,-84.683,-149.599,-168.476
1747601912.77,0.011,0.006,0.017,0.243,-0.251,0.041,-84.928,-148.988,-167.571
1747601912.79,-0.054,0.009,0.045,0.275,-0.237,0.037,-85.210,-147.946,-166.243
1747601912.81,-0.070,0.009,0.048,0.339,-0.207,0.067,-85.536,-146.493,-164.535
1747601912.83,-0.050,0.013,0.036,0.439,-0.170,0.091,-85.949,-144.373,-162.191
1747601912.85,-0.031,0.023,0.049,0.495,-0.154,0.124,-86.454,-141.067,-158.689
1747601912.87,-0.041,0.028,0.096,0.508,-0.071,0.184,-87.004,-136.946,-154.412
1747601912.89,-0.083,-0.033,0.157,0.484,0.011,0.186,-87.555,-131.674,-149.125
1747601912.91,-0.097,-0.047,0.121,0.527,-0.047,0.155,-88.063,-122.955,-140.382
1747601912.93,-0.021,0.025,0.062,0.608,-0.079,0.097,-88.465,-105.436,-122.789
1747601912.95,-0.003,0.044,0.050,0.703,-0.319,0.023,-88.550,-77.076,-94.205
1747601912.97,0.003,-0.009,-0.013,0.841,-0.512,0.016,-88.151,-49.514,-66.153
1747601912.99,0.066,-0.009,0.020,0.821,-0.418,0.124,-87.464,-32.261,-48.318
1747601913.01,0.047,0.018,0.081,0.838,-0.325,0.175,-86.696,-20.950,-36.596
1747601913.03,-0.134,-0.073,0.056,0.841,-0.340,0.130,-85.839,-14.445,-29.677
1747601913.05,-0.059,-0.093,-0.017,0.984,-0.174,0.112,-84.866,-10.327,-25.254
1747601913.07,0.095,0.022,-0.064,1.101,0.034,0.161,-83.699,-7.210,-22.030
1747601913.09,0.143,0.138,-0.052,1.061,-0.019,0.232,-82.490,-4.162,-19.030
1747601913.11,-0.053,-0.054,-0.019,0.942,0.045,0.283,-81.359,-1.758,-16.537
1747601913.13,-0.091,-0.151,0.055,0.931,0.429,0.354,-80.324,0.800,-14.241
1747601913.15,-0.068,-0.023,0.021,0.987,0.334,0.477,-79.189,3.676,-11.798
1747601913.17,-0.007,0.047,0.041,1.080,0.346,0.465,-77.964,6.241,-9.548
1747601913.19,0.077,0.030,0.101,0.987,0.390,0.430,-76.710,8.245,-7.947
1747601913.21,0.046,0.007,0.029,0.796,0.063,0.353,-75.635,9.703,-6.736
1747601913.23,-0.051,-0.011,0.016,0.795,-0.194,0.341,-74.699,10.428,-5.870
1747601913.25,-0.004,-0.006,0.028,1.035,-0.241,0.333,-73.622,10.884,-5.129
1747601913.27,0.006,-0.006,-0.003,1.120,-0.127,0.272,-72.317,11.018,-4.794
1747601913.29,0.008,-0.021,-0.094,1.055,-0.070,0.287,-71.006,11.047,-4.582
1747601913.31,-0.047,-0.037,0.007,0.942,0.167,0.295,-69.862,11.434,-4.267
1747601913.33,-0.157,-0.088,-0.100,0.974,0.306,0.401,-68.704,12.132,-3.801
1747601913.35,-0.093,-0.086,-0.027,1.188,0.452,0.501,-67.399,13.164,-3.172
1747601913.37,0.070,-0.045,-0.064,1.166,0.602,0.504,-65.938,14.295,-2.553
1747601913.39,0.156,-0.007,0.194,0.972,0.784,0.424,-64.618,15.594,-2.049
1747601913.41,-0.025,0.013,0.037,0.890,0.291,0.452,-63.443,16.542,-1.681
1747601913.43,0.014,0.006,0.044,1.072,0.183,0.451,-62.281,17.228,-1.213
1747601913.45,0.128,0.077,-0.064,1.366,-0.332,0.238,-60.798,17.062,-1.282
1747601913.47,0.003,0.092,0.032,1.204,-0.109,-0.060,-59.354,16.194,-1.930
1747601913.49,-0.184,-0.001,0.052,1.020,0.070,-0.040,-58.142,15.460,-2.789
1747601913.51,-0.062,-0.052,0.029,0.892,0.323,0.205,-57.083,15.396,-3.144
1747601913.53,0.033,0.008,0.037,0.970,0.148,0.271,-55.995,15.660,-3.179
1747601913.55,0.019,0.049,-0.013,1.007,0.119,0.250,-54.823,15.761,-3.207
1747601913.57,0.082,0.015,0.014,1.027,0.065,0.252,-53.605,15.849,-3.279
1747601913.59,0.129,0.016,0.023,0.862,-0.074,0.212,-52.484,15.768,-3.361
1747601913.61,0.203,0.010,0.014,0.739,-0.086,0.255,-51.542,15.691,-3.364
1747601913.63,0.128,-0.025,-0.013,0.806,-0.313,0.385,-50.606,15.596,-3.185
1747601913.65,0.008,0.007,0.014,0.865,-0.307,0.328,-49.564,15.425,-2.957
1747601913.67,-0.039,0.082,0.082,0.859,-0.221,0.239,-48.517,15.162,-2.905
1747601913.69,0.026,0.058,0.048,0.699,-0.115,0.308,-47.576,15.040,-2.835
1747601913.71,0.094,0.023,-0.013,0.744,-0.187,0.315,-46.697,15.057,-2.644
1747601913.73,-0.009,0.065,-0.024,0.815,-0.311,0.232,-45.752,14.822,-2.546
1747601913.75,-0.139,0.068,0.014,0.831,-0.223,0.135,-44.785,14.471,-2.629
1747601913.77,-0.152,0.039,0.074,0.826,-0.033,0.099,-43.830,14.226,-2.802
1747601913.79,-0.042,0.057,0.027,0.633,-0.030,0.146,-42.981,14.124,-2.943
1747601913.81,0.081,0.061,-0.010,0.599,-0.031,0.256,-42.272,14.160,-2.878
1747601913.83,0.007,0.073,-0.015,0.724,-0.068,0.221,-41.462,14.190,-2.784
1747601913.85,-0.071,-0.005,-0.034,0.764,-0.101,0.128,-40.582,14.063,-2.842
1747601913.87,-0.002,-0.086,-0.029,0.767,-0.121,0.047,-39.708,13.852,-3.034
1747601913.89,0.111,-0.072,-0.020,0.644,-0.156,0.104,-38.889,13.581,-3.237
1747601913.91,0.070,-0.030,-0.040,0.476,-0.201,0.238,-38.236,13.398,-3.235
1747601913.93,-0.005,0.009,-0.006,0.456,-0.047,0.284,-37.663,13.411,-3.019
1747601913.95,-0.035,0.031,-0.037,0.578,-0.016,0.183,-37.029,13.474,-2.893
1747601913.97,-0.044,-0.011,-0.008,0.616,-0.052,0.111,-36.317,13.436,-2.912
1747601913.99,-0.076,-0.051,0.020,0.529,0.005,0.043,-35.648,13.344,-3.039
1747601914.01,-0.010,-0.012,-0.046,0.420,0.003,0.022,-35.115,13.292,-3.176
1747601914.03,0.013,0.111,-0.056,0.420,-0.048,-0.015,-34.653,13.185,-3.341
1747601914.05,-0.012,0.126,0.006,0.435,-0.042,0.007,-34.176,13.040,-3.529
1747601914.07,-0.063,0.061,0.020,0.346,0.058,0.031,-33.731,12.991,-3.635
1747601914.09,-0.026,0.026,-0.039,0.346,0.125,0.044,-33.337,13.076,-3.694
1747601914.11,-0.003,0.034,-0.074,0.375,0.042,-0.074,-32.943,13.115,-3.854
1747601914.13,0.044,-0.054,-0.072,0.337,-0.007,-0.154,-32.557,12.973,-4.157
1747601914.15,0.065,-0.153,-0.085,0.233,-0.008,-0.144,-32.284,12.798,-4.466
1747601914.17,0.080,-0.076,0.020,0.177,-0.026,-0.084,-32.093,12.698,-4.679
1747601914.18,0.156,0.079,0.063,0.222,-0.098,0.083,-31.878,12.584,-4.754
1747601914.21,0.209,0.055,0.004,0.223,-0.120,0.193,-31.586,12.520,-4.641
1747601914.22,0.077,-0.021,0.007,0.197,-0.015,0.235,-31.303,12.550,-4.442
1747601914.24,0.020,-0.038,0.029,0.190,-0.028,0.244,-31.023,12.682,-4.185
1747601914.26,0.055,0.008,-0.041,0.088,-0.131,0.176,-30.807,12.703,-3.970
1747601914.28,-0.020,0.042,-0.102,0.051,-0.108,0.160,-30.696,12.648,-3.806
1747601914.30,-0.122,0.078,-0.050,0.076,-0.112,0.109,-30.600,12.615,-3.650
1747601914.32,-0.086,0.033,-0.008,0.092,-0.104,0.010,-30.485,12.527,-3.619
1747601914.34,-0.051,-0.031,-0.009,0.012,-0.083,-0.037,-30.420,12.383,-3.675
1747601914.36,-0.047,0.017,-0.071,-0.029,-0.006,-0.022,-30.444,12.324,-3.730
1747601914.38,-0.007,0.108,-0.057,-0.064,-0.007,-0.045,-30.508,12.297,-3.782
1747601914.40,0.077,0.062,-0.011,-0.084,-0.082,-0.023,-30.600,12.215,-3.816
1747601914.42,0.058,-0.033,-0.004,-0.164,-0.072,0.029,-30.733,12.137,-3.794
1747601914.44,0.017,0.023,-0.035,-0.199,0.027,0.018,-30.932,12.156,-3.709
1747601914.46,0.050,0.045,-0.030,-0.246,0.030,-0.011,-31.176,12.233,-3.649
1747601914.48,0.026,0.036,-0.043,-0.342,-0.061,0.003,-31.504,12.278,-3.564
1747601914.50,0.038,0.012,-0.093,-0.432,-0.085,-0.027,-31.938,12.253,-3.446
1747601914.52,0.043,0.039,-0.076,-0.481,-0.112,-0.082,-32.459,12.169,-3.412
1747601914.54,0.002,0.008,-0.045,-0.528,-0.085,-0.101,-33.054,12.059,-3.383
1747601914.56,-0.058,-0.014,-0.037,-0.631,0.082,-0.136,-33.717,12.062,-3.395
1747601914.58,-0.091,0.009,-0.068,-0.697,0.204,-0.156,-34.497,12.213,-3.404
1747601914.60,-0.022,0.044,-0.068,-0.772,0.165,-0.204,-35.358,12.432,-3.427
1747601914.62,0.076,0.029,-0.070,-0.833,0.014,-0.220,-36.309,12.514,-3.466
1747601914.64,0.125,-0.004,-0.040,-0.821,-0.092,-0.216,-37.290,12.423,-3.501
1747601914.66,0.064,-0.036,-0.011,-0.833,-0.084,-0.218,-38.261,12.286,-3.545
1747601914.68,-0.020,-0.063,-0.007,-0.886,0.038,-0.214,-39.271,12.217,-3.563
1747601914.70,-0.031,-0.082,-0.037,-0.951,0.122,-0.146,-40.340,12.329,-3.512
1747601914.72,0.033,-0.068,-0.054,-0.936,0.091,-0.123,-41.427,12.540,-3.366
1747601914.74,0.049,-0.048,-0.058,-0.954,0.017,-0.171,-42.520,12.672,-3.254
1747601914.76,0.022,-0.045,-0.029,-0.986,0.035,-0.207,-43.645,12.715,-3.197
1747601914.78,-0.016,-0.030,-0.017,-1.025,0.028,-0.194,-44.813,12.783,-3.145
1747601914.80,-0.026,-0.011,-0.005,-1.066,0.101,-0.129,-46.022,12.941,-2.987
1747601914.82,-0.026,-0.001,-0.036,-1.120,0.144,-0.114,-47.262,13.227,-2.730
1747601914.84,-0.000,0.004,-0.029,-1.152,0.176,-0.139,-48.563,13.603,-2.443
1747601914.86,0.027,0.005,-0.031,-1.210,0.100,-0.158,-49.919,13.955,-2.167
1747601914.88,0.066,0.032,0.007,-1.221,0.012,-0.163,-51.315,14.211,-1.848
1747601914.90,0.056,0.034,0.028,-1.241,-0.039,-0.198,-52.727,14.374,-1.553
1747601914.92,-0.013,0.009,0.008,-1.250,-0.051,-0.244,-54.176,14.475,-1.314
1747601914.94,-0.065,-0.016,-0.033,-1.269,0.046,-0.254,-55.634,14.587,-1.125
1747601914.96,-0.074,-0.000,0.007,-1.308,0.107,-0.240,-57.138,14.840,-0.880
1747601914.98,-0.046,0.031,-0.000,-1.310,0.157,-0.271,-58.656,15.159,-0.618
1747601915.00,0.052,-0.024,-0.007,-1.276,0.139,-0.322,-60.176,15.456,-0.448
1747601915.02,0.116,-0.093,-0.065,-1.317,-0.078,-0.319,-61.687,15.556,-0.334
1747601915.04,0.129,-0.084,-0.024,-1.328,-0.204,-0.340,-63.261,15.493,-0.228
1747601915.06,0.081,-0.053,-0.083,-1.323,-0.224,-0.369,-64.808,15.235,-0.220
1747601915.08,0.082,-0.053,0.001,-1.382,-0.157,-0.358,-66.426,15.040,-0.189
1747601915.10,0.059,-0.068,-0.030,-1.356,-0.244,-0.299,-68.027,14.910,-0.088
1747601915.12,0.030,-0.048,-0.013,-1.402,-0.138,-0.273,-69.633,14.915,0.215
1747601915.14,0.007,-0.025,-0.042,-1.405,-0.196,-0.279,-71.261,15.058,0.590
1747601915.16,0.014,0.003,-0.006,-1.345,-0.167,-0.286,-72.873,15.165,0.920
1747601915.18,-0.000,0.020,0.015,-1.331,-0.182,-0.313,-74.419,15.209,1.172
1747601915.20,-0.056,-0.006,0.056,-1.362,-0.087,-0.402,-76.017,15.102,1.222
1747601915.22,-0.084,-0.035,0.041,-1.432,-0.071,-0.381,-77.665,14.833,1.034
1747601915.24,-0.021,-0.051,0.023,-1.379,0.006,-0.327,-79.348,15.017,1.267
1747601915.26,-0.015,-0.031,-0.017,-1.312,-0.097,-0.369,-80.907,14.964,1.264
1747601915.28,0.028,-0.006,0.033,-1.299,0.108,-0.319,-82.466,15.044,1.341
1747601915.30,-0.017,0.028,-0.008,-1.215,0.141,-0.357,-83.934,15.228,1.366
1747601915.32,-0.039,0.003,-0.001,-1.277,0.145,-0.394,-85.430,14.785,0.782
1747601915.34,0.015,-0.021,0.030,-1.184,0.305,-0.364,-86.886,13.828,-0.451
1747601915.36,-0.016,0.014,0.054,-1.211,0.390,-0.359,-88.317,12.356,-2.310
1747601915.38,-0.119,-0.042,0.088,-1.101,0.489,-0.399,-89.669,-12.477,-27.651
1747601915.40,-0.110,-0.062,0.005,-1.116,0.513,-0.334,-88.938,-151.920,-167.667
1747601915.42,-0.004,-0.021,-0.035,-1.011,0.530,-0.292,-87.669,-158.123,-174.475
1747601915.44,0.110,0.037,-0.047,-0.830,0.485,-0.239,-86.575,-159.421,-176.354
1747601915.46,0.114,0.039,-0.047,-0.674,0.537,-0.231,-85.684,-159.575,-177.100
1747601915.48,-0.004,0.017,-0.028,-0.541,0.412,-0.199,-84.952,-159.054,-177.149
1747601915.50,-0.099,-0.043,0.001,-0.552,0.173,-0.159,-84.298,-159.143,-177.557
1747601915.52,-0.092,-0.043,0.021,-0.451,0.204,-0.193,-83.690,-159.132,-177.741
1747601915.54,-0.010,-0.020,0.024,-0.384,0.303,-0.170,-83.168,-158.567,-177.469
1747601915.56,0.065,0.007,0.010,-0.340,0.303,-0.109,-82.725,-158.248,-177.516
1747601915.58,0.058,0.033,-0.000,-0.233,0.015,-0.065,-82.381,-158.374,-177.831
1747601915.60,0.001,0.023,-0.016,-0.155,-0.184,-0.103,-82.155,-158.406,-177.740
1747601915.62,-0.028,-0.004,0.030,-0.142,-0.055,-0.109,-81.944,-158.184,-177.369
1747601915.64,-0.036,-0.006,0.007,-0.139,-0.055,-0.087,-81.762,-157.905,-177.035
1747601915.66,-0.001,-0.009,-0.021,-0.159,-0.052,-0.090,-81.561,-157.805,-176.875
1747601915.68,0.042,0.025,-0.023,0.022,-0.160,-0.068,-81.441,-157.559,-176.514
1747601915.70,0.042,0.013,0.023,0.115,-0.246,-0.027,-81.512,-157.254,-175.947
1747601915.72,-0.022,-0.015,0.052,0.066,-0.062,-0.012,-81.595,-156.952,-175.457
1747601915.74,-0.077,-0.009,0.043,0.049,0.024,0.027,-81.663,-156.825,-175.324
1747601915.76,-0.066,-0.012,0.048,0.041,0.066,0.046,-81.723,-156.963,-175.504
1747601915.78,-0.005,-0.041,0.056,0.122,0.015,0.068,-81.842,-157.130,-175.736
1747601915.80,-0.025,0.003,0.059,0.076,0.074,0.026,-81.968,-157.103,-175.753
1747601915.82,0.024,-0.014,0.037,0.037,-0.025,0.021,-82.014,-157.024,-175.722
1747601915.84,0.077,-0.013,-0.003,0.093,-0.137,-0.009,-82.073,-156.889,-175.493
1747601915.86,0.064,0.007,0.053,0.063,-0.149,-0.011,-82.151,-156.735,-175.172
1747601915.88,0.008,-0.003,0.032,0.033,-0.193,-0.019,-82.185,-156.678,-174.906
1747601915.90,-0.002,-0.007,0.030,0.017,-0.093,-0.005,-82.202,-156.677,-174.741
1747601915.92,-0.042,0.003,0.006,0.022,-0.017,-0.016,-82.218,-156.716,-174.715
1747601915.94,-0.037,-0.015,-0.023,0.012,0.056,0.015,-82.238,-156.670,-174.699
1747601915.96,-0.001,-0.008,-0.035,0.021,0.080,-0.003,-82.247,-156.695,-174.798
1747601915.98,0.015,0.037,-0.016,0.045,0.041,0.004,-82.279,-156.508,-174.683
1747601916.00,0.021,0.008,-0.000,0.069,0.033,0.019,-82.337,-156.334,-174.549
1747601916.02,0.016,-0.029,-0.007,0.125,0.050,0.005,-82.440,-155.886,-174.145
1747601916.04,0.032,-0.021,0.015,0.076,0.024,0.035,-82.577,-155.559,-173.873
1747601916.06,-0.004,0.007,0.023,0.062,-0.093,-0.003,-82.656,-155.562,-173.814
1747601916.08,0.019,-0.016,0.042,0.083,-0.065,-0.010,-82.730,-155.432,-173.590
1747601916.10,-0.001,0.017,0.033,0.175,-0.072,-0.023,-82.850,-154.967,-173.040
1747601916.12,-0.026,0.012,0.048,0.157,-0.023,0.021,-83.033,-154.474,-172.478
1747601916.14,-0.052,-0.021,0.065,0.121,0.002,0.045,-83.167,-154.325,-172.319
1747601916.16,-0.041,-0.033,0.067,0.170,-0.004,0.057,-83.322,-154.291,-172.282
1747601916.18,-0.018,-0.003,0.053,0.261,-0.008,0.060,-83.558,-154.009,-171.986
1747601916.20,-0.033,0.001,0.050,0.306,-0.004,0.066,-83.852,-153.276,-171.245
1747601916.22,-0.013,0.015,-0.001,0.368,-0.039,0.082,-84.174,-152.269,-170.210
1747601916.24,0.022,0.013,-0.008,0.487,-0.078,0.102,-84.613,-150.897,-168.769
1747601916.26,0.028,-0.004,0.015,0.520,-0.170,0.141,-85.175,-149.182,-166.913
1747601916.28,-0.014,0.008,-0.012,0.598,-0.335,0.134,-85.804,-146.928,-164.351
1747601916.30,-0.049,0.001,0.039,0.617,-0.247,0.106,-86.444,-143.022,-160.084
1747601916.32,-0.046,-0.021,0.054,0.736,-0.147,0.131,-87.118,-136.244,-153.088
1747601916.34,-0.055,-0.010,-0.003,0.868,-0.185,0.112,-87.820,-122.382,-139.014
1747601916.36,0.004,0.039,-0.033,0.862,-0.320,0.093,-88.263,-96.384,-112.734
1747601916.38,0.039,0.046,0.002,0.917,-0.365,0.164,-88.213,-62.538,-78.453
1747601916.40,-0.013,-0.028,0.144,0.813,-0.281,0.175,-87.724,-37.630,-53.183
1747601916.42,-0.094,-0.077,0.115,0.797,-0.415,0.110,-87.028,-24.655,-39.799
1747601916.44,-0.106,-0.035,-0.022,1.006,-0.794,0.034,-86.116,-17.896,-32.348
1747601916.46,-0.090,0.049,-0.065,1.020,-0.388,-0.062,-84.974,-14.639,-28.280
1747601916.48,0.067,0.059,0.083,0.925,0.161,0.038,-83.873,-12.399,-26.001
1747601916.50,0.018,-0.036,0.075,0.751,0.012,0.220,-82.982,-9.387,-23.077
1747601916.52,-0.061,-0.083,0.034,0.702,0.083,0.333,-82.199,-6.107,-19.781
1747601916.54,0.069,-0.022,0.061,0.841,0.406,0.477,-81.372,-2.167,-16.097
1747601916.56,0.182,0.039,0.081,0.852,0.298,0.538,-80.397,1.967,-12.370
1747601916.58,0.165,0.009,0.056,0.842,-0.004,0.501,-79.388,5.111,-9.320
1747601916.60,0.103,-0.018,0.097,0.778,-0.186,0.488,-78.419,7.399,-6.896
1747601916.62,-0.065,0.021,0.080,0.887,-0.537,0.384,-77.408,8.641,-5.170
1747601916.64,-0.100,0.011,0.074,1.026,-0.297,0.274,-76.273,8.994,-4.290
1747601916.66,-0.056,-0.002,0.003,1.091,-0.006,0.279,-75.014,9.245,-3.850
1747601916.68,-0.034,0.032,-0.015,0.872,0.014,0.341,-73.854,9.894,-3.222
1747601916.70,-0.070,0.026,0.049,0.869,0.113,0.438,-72.809,10.801,-2.313
1747601916.72,-0.058,-0.034,0.005,0.927,0.445,0.355,-71.716,11.931,-1.452
1747601916.74,-0.085,-0.053,-0.080,1.092,0.443,0.253,-70.526,12.724,-1.185
1747601916.76,-0.074,-0.027,-0.133,1.185,0.512,0.258,-69.161,13.195,-1.261
1747601916.78,-0.054,0.002,-0.051,0.863,0.462,0.247,-67.934,13.761,-1.222
1747601916.80,-0.037,0.008,0.049,0.735,0.610,0.252,-67.013,14.548,-1.053
1747601916.82,0.065,-0.091,0.018,0.893,0.401,0.308,-66.056,15.329,-0.816
1747601916.84,0.224,-0.122,-0.093,1.215,-0.159,0.278,-64.818,15.536,-0.746
1747601916.86,0.177,-0.005,-0.119,1.237,-0.233,0.101,-63.339,14.893,-1.106
1747601916.88,-0.020,0.062,0.082,1.002,-0.128,0.000,-62.093,14.072,-1.758
1747601916.90,-0.029,-0.063,0.097,0.811,0.218,0.234,-61.074,13.943,-2.017
1747601916.92,-0.009,-0.125,-0.039,0.858,0.176,0.403,-60.088,14.407,-1.722
1747601916.94,0.041,-0.035,-0.045,1.111,0.093,0.401,-58.855,14.882,-1.350
1747601916.96,-0.111,0.079,-0.024,1.024,0.229,0.182,-57.580,15.044,-1.338
1747601916.98,-0.177,0.040,0.125,0.801,0.421,0.188,-56.524,15.261,-1.499
1747601917.00,-0.075,-0.014,0.008,0.776,0.245,0.334,-55.602,15.768,-1.387
1747601917.02,0.106,0.042,-0.007,0.955,0.054,0.304,-54.565,16.086,-1.195
1747601917.04,0.097,0.103,-0.005,1.005,-0.123,0.148,-53.381,15.923,-1.316
1747601917.06,-0.021,0.060,0.078,0.857,-0.072,0.121,-52.324,15.593,-1.562
1747601917.08,0.023,0.046,0.084,0.801,0.049,0.191,-51.358,15.486,-1.696
1747601917.10,0.092,0.035,-0.040,0.758,-0.049,0.288,-50.452,15.529,-1.646
1747601917.12,-0.005,-0.010,-0.038,0.902,-0.066,0.276,-49.435,15.512,-1.540
1747601917.14,-0.122,0.010,-0.020,0.894,-0.048,0.084,-48.377,15.361,-1.661
1747601917.16,-0.056,-0.005,0.034,0.752,0.139,0.015,-47.460,15.206,-1.972
1747601917.18,0.067,0.022,-0.005,0.689,-0.008,0.094,-46.657,15.118,-2.232
1747601917.20,0.150,0.054,-0.000,0.734,-0.212,0.156,-45.846,14.943,-2.315
1747601917.22,0.032,0.030,-0.040,0.822,-0.319,0.108,-44.939,14.541,-2.432
1747601917.24,-0.048,-0.008,0.042,0.827,-0.103,-0.016,-44.011,14.101,-2.711
1747601917.26,-0.027,-0.042,0.037,0.703,0.072,0.018,-43.160,13.882,-3.060
1747601917.28,0.085,-0.028,-0.032,0.548,-0.004,0.167,-42.446,13.869,-3.170
1747601917.30,0.105,0.033,-0.009,0.579,-0.101,0.313,-41.768,13.946,-3.016
1747601917.32,-0.010,0.050,0.029,0.691,-0.122,0.231,-40.985,13.929,-2.837
1747601917.34,0.004,0.006,-0.012,0.729,-0.137,0.087,-40.138,13.757,-2.903
1747601917.36,0.088,-0.055,-0.031,0.668,-0.202,0.091,-39.339,13.491,-3.073
1747601917.38,0.121,-0.001,0.002,0.604,-0.324,0.240,-38.598,13.185,-3.090
1747601917.40,0.047,0.046,0.043,0.577,-0.240,0.317,-37.865,12.993,-2.885
1747601917.42,-0.045,0.045,0.018,0.628,-0.169,0.240,-37.130,12.891,-2.700
1747601917.44,-0.106,0.029,0.003,0.707,-0.047,0.105,-36.334,12.780,-2.696
1747601917.46,-0.165,-0.008,-0.074,0.666,0.008,0.015,-35.557,12.671,-2.853
1747601917.48,-0.115,-0.020,-0.045,0.625,-0.006,-0.101,-34.847,12.552,-3.130
1747601917.50,-0.042,0.033,-0.011,0.550,-0.126,-0.182,-34.230,12.256,-3.519
1747601917.52,-0.006,0.058,-0.052,0.536,-0.090,-0.214,-33.675,11.886,-3.951
1747601917.54,-0.073,0.041,-0.034,0.435,0.046,-0.103,-33.156,11.651,-4.332
1747601917.56,0.017,0.028,-0.033,0.367,0.056,-0.047,-32.736,11.619,-4.582
1747601917.58,0.213,0.024,0.003,0.401,-0.164,-0.052,-32.321,11.503,-4.740
1747601917.60,0.254,0.018,-0.023,0.401,-0.343,-0.030,-31.883,11.097,-4.952
1747601917.62,0.096,-0.053,-0.005,0.320,-0.209,0.057,-31.459,10.738,-5.068
1747601917.64,-0.002,-0.073,-0.054,0.201,-0.039,0.176,-31.146,10.629,-5.022
1747601917.66,-0.017,0.001,-0.013,0.129,-0.017,0.160,-30.931,10.723,-4.892
1747601917.68,0.073,0.003,-0.068,0.121,-0.160,0.122,-30.765,10.709,-4.797
1747601917.70,0.045,-0.009,-0.024,0.124,-0.112,0.083,-30.607,10.567,-4.746
1747601917.72,-0.065,0.013,-0.006,0.034,-0.052,0.102,-30.503,10.529,-4.689
1747601917.74,-0.010,0.049,-0.042,-0.042,0.002,0.127,-30.488,10.574,-4.565
1747601917.76,-0.008,0.103,-0.011,-0.040,-0.024,0.093,-30.510,10.648,-4.469
1747601917.78,0.031,0.046,-0.023,-0.070,-0.043,0.076,-30.550,10.680,-4.388
1747601917.80,0.055,0.066,-0.034,-0.122,-0.047,0.046,-30.637,10.688,-4.343
1747601917.82,-0.015,0.081,-0.058,-0.195,-0.072,0.053,-30.823,10.652,-4.271
1747601917.84,-0.019,0.080,-0.016,-0.221,0.010,0.010,-31.054,10.674,-4.219
1747601917.86,-0.049,-0.048,-0.078,-0.281,0.058,-0.030,-31.339,10.743,-4.166
1747601917.88,-0.002,-0.049,-0.045,-0.307,0.052,-0.120,-31.682,10.802,-4.239
1747601917.90,0.029,0.015,-0.027,-0.416,-0.010,-0.094,-32.110,10.789,-4.321
1747601917.92,0.082,0.082,-0.073,-0.530,-0.019,-0.047,-32.655,10.785,-4.316
1747601917.94,0.055,0.063,-0.081,-0.582,0.007,-0.034,-33.293,10.824,-4.235
1747601917.96,0.049,0.011,0.002,-0.636,0.018,-0.092,-33.981,10.891,-4.187
1747601917.98,0.048,-0.024,-0.034,-0.737,0.048,-0.116,-34.779,10.942,-4.145
1747601918.00,-0.003,0.028,-0.064,-0.852,0.018,-0.072,-35.684,11.031,-4.060
1747601918.02,-0.026,0.091,-0.084,-0.895,0.049,-0.080,-36.686,11.152,-3.904
1747601918.03,0.038,0.079,-0.034,-0.892,0.021,-0.135,-37.713,11.267,-3.794
1747601918.05,0.005,0.003,-0.029,-0.915,-0.055,-0.206,-38.757,11.247,-3.758
1747601918.08,-0.017,-0.111,-0.069,-0.985,-0.028,-0.197,-39.860,11.165,-3.765
1747601918.09,0.013,-0.144,-0.049,-1.020,0.018,-0.178,-41.031,11.179,-3.733
1747601918.11,0.021,-0.106,-0.028,-1.026,0.016,-0.144,-42.217,11.250,-3.629
1747601918.13,-0.004,-0.080,-0.055,-0.995,0.008,-0.173,-43.374,11.298,-3.540
1747601918.15,-0.005,-0.093,-0.072,-1.043,0.064,-0.192,-44.558,11.355,-3.478
1747601918.17,-0.009,-0.092,-0.026,-1.068,0.150,-0.160,-45.775,11.517,-3.391
1747601918.19,0.011,-0.069,0.032,-1.104,0.208,-0.103,-47.033,11.832,-3.197
1747601918.21,0.068,-0.020,-0.026,-1.094,0.047,-0.046,-48.274,12.181,-2.890
1747601918.23,0.094,0.039,-0.049,-1.060,-0.029,-0.102,-49.498,12.419,-2.549
1747601918.25,-0.005,0.041,-0.037,-1.086,-0.052,-0.195,-50.732,12.464,-2.356
1747601918.27,-0.065,0.015,-0.006,-1.140,-0.015,-0.224,-52.024,12.478,-2.267
1747601918.29,-0.072,-0.021,0.015,-1.151,0.017,-0.194,-53.355,12.541,-2.133
1747601918.31,-0.007,-0.022,-0.034,-1.168,0.072,-0.192,-54.688,12.714,-1.937
1747601918.33,-0.005,-0.005,-0.019,-1.245,0.072,-0.235,-56.092,12.904,-1.766
1747601918.35,-0.020,0.021,-0.006,-1.262,0.057,-0.224,-57.554,13.070,-1.593
1747601918.37,0.036,0.019,-0.015,-1.258,0.095,-0.179,-59.002,13.319,-1.334
1747601918.39,0.105,-0.033,-0.056,-1.266,-0.035,-0.197,-60.457,13.605,-0.995
1747601918.41,0.089,-0.081,-0.046,-1.284,-0.196,-0.273,-61.926,13.581,-0.773
1747601918.43,0.081,-0.089,0.024,-1.335,-0.136,-0.297,-63.459,13.477,-0.666
1747601918.45,0.003,-0.050,-0.052,-1.349,-0.329,-0.266,-65.026,13.281,-0.580
1747601918.47,0.006,-0.031,-0.036,-1.349,-0.216,-0.273,-66.608,13.078,-0.418
1747601918.49,0.031,-0.042,-0.026,-1.350,-0.308,-0.257,-68.164,12.923,-0.256
1747601918.51,0.018,-0.011,-0.036,-1.403,-0.289,-0.264,-69.769,12.719,-0.083
1747601918.53,0.037,-0.001,-0.045,-1.357,-0.256,-0.286,-71.385,12.547,0.065
1747601918.55,0.005,-0.015,-0.027,-1.193,-0.221,-0.353,-72.888,12.116,-0.098
1747601918.57,-0.032,-0.051,0.018,-1.259,-0.126,-0.330,-74.310,11.582,-0.451
1747601918.59,-0.071,-0.054,0.005,-1.337,0.021,-0.309,-75.853,11.273,-0.702
1747601918.61,-0.014,-0.007,0.024,-1.394,0.086,-0.301,-77.464,11.212,-0.840
1747601918.63,0.054,0.027,0.050,-1.291,0.068,-0.286,-79.032,11.164,-0.984
1747601918.65,0.025,0.011,0.060,-1.240,-0.043,-0.311,-80.511,10.879,-1.297
1747601918.67,0.007,-0.018,0.038,-1.233,-0.158,-0.332,-81.958,10.132,-1.927
1747601918.69,-0.011,-0.023,-0.005,-1.261,-0.101,-0.397,-83.431,8.543,-3.361
1747601918.71,0.015,0.006,0.028,-1.261,0.000,-0.368,-84.919,5.902,-5.976
1747601918.73,0.030,0.026,0.030,-1.167,0.043,-0.328,-86.336,2.068,-9.833
1747601918.75,0.067,-0.003,0.055,-1.186,0.035,-0.293,-87.666,-5.416,-17.385
1747601918.77,0.003,-0.023,0.058,-1.158,-0.002,-0.363,-88.858,-30.884,-42.879
1747601918.79,-0.095,-0.041,0.041,-1.088,0.022,-0.432,-88.908,-106.587,-118.593
1747601918.81,-0.111,-0.060,0.005,-0.982,0.118,-0.399,-87.867,-134.168,-146.267
1747601918.83,-0.067,-0.035,0.001,-0.857,0.281,-0.313,-86.808,-142.442,-154.760
1747601918.85,-0.012,0.026,-0.014,-0.739,0.353,-0.264,-85.874,-146.266,-158.983
1747601918.87,-0.023,0.007,-0.048,-0.639,0.345,-0.216,-85.068,-148.312,-161.428
1747601918.89,-0.016,-0.013,-0.039,-0.535,0.325,-0.145,-84.385,-149.747,-163.258
1747601918.91,-0.033,0.029,-0.029,-0.421,0.464,-0.099,-83.850,-150.775,-164.738
1747601918.93,-0.082,0.017,-0.020,-0.421,0.527,-0.104,-83.377,-151.391,-165.928
1747601918.95,-0.087,-0.012,0.002,-0.363,0.576,-0.128,-82.913,-151.604,-166.780
1747601918.97,-0.025,0.015,0.009,-0.237,0.609,-0.095,-82.541,-151.305,-167.162
1747601918.99,0.066,0.045,0.035,-0.171,0.567,0.028,-82.332,-151.098,-167.663
1747601919.01,0.027,-0.036,0.020,-0.189,0.322,0.047,-82.183,-151.672,-168.757
1747601919.03,0.014,-0.049,-0.013,-0.190,0.205,0.006,-81.995,-152.326,-169.695
1747601919.05,0.045,0.008,-0.001,-0.121,0.189,-0.050,-81.818,-152.540,-170.148
1747601919.07,0.031,0.032,-0.026,0.056,0.058,-0.034,-81.756,-152.193,-169.941
1747601919.09,0.003,0.044,-0.025,0.149,-0.037,0.009,-81.872,-151.672,-169.439
1747601919.11,-0.039,0.025,0.009,0.148,-0.144,-0.009,-82.021,-151.253,-168.887
1747601919.13,-0.014,-0.039,0.087,0.051,-0.033,0.009,-82.117,-150.925,-168.453
1747601919.15,0.010,-0.040,0.066,0.031,0.027,0.025,-82.178,-150.929,-168.467
1747601919.17,-0.005,-0.006,0.081,-0.031,0.032,0.042,-82.200,-151.116,-168.692
1747601919.19,0.001,-0.033,0.065,0.013,0.071,0.044,-82.211,-151.439,-169.072
1747601919.21,0.033,-0.031,-0.019,0.059,0.041,-0.004,-82.244,-151.425,-169.122
1747601919.23,0.048,0.011,-0.051,0.071,0.038,-0.024,-82.299,-150.970,-168.710
1747601919.25,0.014,0.028,-0.029,0.039,0.021,-0.020,-82.332,-150.556,-168.325
1747601919.27,-0.014,0.008,0.001,0.057,-0.013,0.014,-82.363,-150.385,-168.154
1747601919.29,0.009,-0.014,-0.010,0.099,0.008,0.016,-82.451,-150.241,-167.994
1747601919.31,0.029,-0.003,0.013,0.142,0.122,0.052,-82.603,-149.780,-167.618
1747601919.33,-0.000,0.002,0.046,0.096,0.119,0.082,-82.776,-149.697,-167.672
1747601919.35,-0.039,-0.015,0.035,0.078,0.161,0.048,-82.898,-149.579,-167.716
1747601919.37,-0.000,-0.028,0.052,0.039,0.101,0.022,-82.969,-149.505,-167.798
1747601919.39,0.015,0.009,0.030,0.075,-0.011,0.008,-83.033,-149.314,-167.654
1747601919.41,0.003,-0.008,0.049,0.081,-0.036,0.043,-83.102,-149.365,-167.673
1747601919.43,-0.013,-0.020,0.032,0.120,-0.028,0.047,-83.179,-149.266,-167.539
1747601919.45,-0.001,-0.012,0.010,0.184,-0.139,0.069,-83.323,-149.138,-167.326
1747601919.47,-0.009,-0.002,-0.015,0.225,-0.247,0.047,-83.537,-149.048,-166.999
1747601919.49,-0.013,0.018,-0.008,0.303,-0.198,0.045,-83.800,-148.383,-166.057
1747601919.51,-0.004,0.025,0.006,0.354,-0.182,0.106,-84.144,-147.368,-164.833
1747601919.53,-0.042,0.009,0.020,0.372,-0.223,0.153,-84.558,-146.701,-163.923
1747601919.55,-0.070,-0.023,0.039,0.385,-0.152,0.136,-85.014,-145.818,-162.805
1747601919.57,-0.054,-0.028,0.067,0.448,-0.064,0.136,-85.478,-144.243,-161.114
1747601919.59,-0.037,0.010,0.015,0.610,-0.054,0.155,-86.058,-141.048,-157.854
1747601919.61,-0.010,0.053,-0.014,0.671,-0.190,0.188,-86.752,-135.790,-152.457
1747601919.63,0.002,0.040,-0.008,0.661,-0.337,0.183,-87.416,-127.583,-143.926
1747601919.65,0.005,-0.036,0.072,0.657,-0.312,0.209,-88.008,-114.610,-130.560
1747601919.67,-0.026,-0.035,0.085,0.607,-0.275,0.183,-88.413,-94.230,-109.838
1747601919.69,-0.024,-0.001,0.094,0.709,-0.306,0.131,-88.471,-66.873,-82.139
1747601919.71,-0.033,0.022,0.081,0.850,-0.368,0.092,-88.031,-40.810,-55.695
1747601919.73,-0.094,0.024,0.019,0.839,-0.416,0.067,-87.246,-26.144,-40.549
1747601919.75,-0.147,-0.024,0.099,0.780,-0.369,0.068,-86.441,-19.048,-32.986
1747601919.77,-0.092,-0.031,0.014,0.868,-0.108,0.125,-85.556,-14.019,-27.638
1747601919.79,0.076,-0.006,0.028,0.998,0.167,0.202,-84.552,-9.365,-23.027
1747601919.81,0.139,0.006,0.017,0.935,0.152,0.304,-83.463,-5.107,-18.971
1747601919.83,0.126,-0.048,0.006,0.945,0.096,0.343,-82.438,-1.379,-15.315
1747601919.85,0.089,-0.025,0.040,0.951,0.216,0.337,-81.360,1.479,-12.637
1747601919.87,0.063,0.024,0.025,1.057,0.083,0.336,-80.192,3.749,-10.500
1747601919.89,0.020,0.029,0.067,1.117,0.033,0.259,-78.914,5.115,-9.185
1747601919.91,-0.023,-0.015,-0.015,1.043,-0.057,0.216,-77.650,5.832,-8.437
1747601919.93,-0.095,-0.043,-0.013,0.912,-0.054,0.211,-76.524,6.294,-7.898
1747601919.95,-0.072,-0.029,-0.036,0.972,0.038,0.253,-75.447,6.837,-7.300
1747601919.97,0.056,0.009,-0.001,1.078,0.274,0.258,-74.230,7.540,-6.772
1747601919.99,0.030,0.022,0.018,0.993,0.085,0.202,-73.016,8.150,-6.380
1747601920.01,-0.178,-0.051,-0.088,0.995,0.124,0.207,-71.852,8.358,-6.216
1747601920.03,-0.068,-0.081,-0.017,1.014,0.569,0.275,-70.694,9.106,-5.868
1747601920.05,0.026,0.001,-0.021,1.044,0.508,0.246,-69.478,10.036,-5.567
1747601920.07,0.024,0.042,-0.008,0.944,0.383,0.159,-68.298,10.594,-5.504
1747601920.09,0.080,-0.026,-0.005,0.888,0.367,0.174,-67.249,10.979,-5.558
1747601920.11,0.132,-0.078,0.028,0.905,0.199,0.343,-66.201,11.471,-5.365
1747601920.13,0.061,-0.053,0.006,0.910,0.103,0.454,-65.086,12.212,-4.744
1747601920.15,-0.067,-0.007,-0.061,0.817,0.369,0.391,-64.002,13.003,-4.130
1747601920.17,-0.078,0.017,0.020,0.870,0.541,0.311,-62.985,13.896,-3.768
1747601920.19,-0.017,0.004,-0.011,0.868,0.216,0.280,-61.941,14.497,-3.573
1747601920.21,0.036,-0.060,-0.072,0.836,0.211,0.229,-60.916,14.790,-3.522
1747601920.23,-0.016,-0.078,-0.070,0.860,0.164,0.215,-59.904,14.951,-3.547
1747601920.25,-0.052,-0.017,0.042,0.864,0.288,0.297,-58.883,15.251,-3.506
1747601920.27,0.054,0.058,0.094,0.838,0.385,0.345,-57.849,15.811,-3.304
1747601920.29,0.192,0.069,0.084,0.778,0.125,0.338,-56.840,16.311,-3.108
1747601920.31,0.219,-0.008,0.026,0.814,-0.195,0.414,-55.859,16.517,-2.815
1747601920.33,0.103,-0.038,-0.003,0.867,-0.376,0.394,-54.785,16.411,-2.475
1747601920.35,-0.042,0.001,0.010,0.836,-0.219,0.319,-53.742,16.237,-2.284
1747601920.37,-0.141,0.063,0.044,0.826,-0.131,0.321,-52.748,16.156,-2.142
1747601920.39,0.011,0.115,0.030,0.880,-0.098,0.305,-51.711,16.125,-2.007
1747601920.41,0.029,0.055,0.019,0.907,-0.253,0.276,-50.646,15.993,-1.948
1747601920.43,-0.106,0.006,-0.045,0.866,-0.251,0.219,-49.592,15.660,-1.936
1747601920.45,-0.128,-0.053,-0.008,0.835,-0.122,0.152,-48.594,15.376,-2.021
1747601920.47,-0.038,0.022,0.033,0.716,0.058,0.088,-47.703,15.230,-2.164
1747601920.49,0.048,0.078,-0.008,0.647,-0.088,0.122,-46.930,15.127,-2.303
1747601920.51,0.063,0.045,-0.034,0.680,-0.157,0.168,-46.164,14.958,-2.345
1747601920.53,-0.029,0.003,-0.018,0.737,-0.132,0.127,-45.327,14.733,-2.415
1747601920.55,0.003,-0.019,0.000,0.628,0.008,0.092,-44.534,14.572,-2.532
1747601920.57,0.071,-0.021,-0.032,0.537,-0.083,0.162,-43.861,14.512,-2.581
1747601920.59,0.145,0.017,0.002,0.564,-0.190,0.227,-43.209,14.428,-2.485
1747601920.61,0.094,0.076,-0.009,0.528,-0.254,0.216,-42.524,14.263,-2.349
1747601920.63,-0.016,0.062,-0.021,0.489,-0.250,0.157,-41.917,14.024,-2.271
1747601920.65,-0.061,0.044,0.011,0.480,-0.215,0.128,-41.344,13.782,-2.242
1747601920.67,-0.054,0.061,-0.001,0.493,-0.264,0.173,-40.765,13.535,-2.214
1747601920.69,-0.047,0.042,-0.010,0.511,-0.204,0.144,-40.156,13.310,-2.146
1747601920.71,-0.100,0.010,-0.039,0.486,-0.066,0.007,-39.587,13.132,-2.222
1747601920.73,-0.156,-0.073,-0.029,0.472,0.100,-0.034,-39.055,13.021,-2.409
1747601920.75,-0.073,-0.077,-0.021,0.443,0.105,-0.041,-38.559,13.014,-2.632
1747601920.77,0.039,-0.013,0.014,0.420,0.031,-0.022,-38.085,12.968,-2.849
1747601920.79,0.107,0.003,-0.048,0.375,-0.053,0.066,-37.640,12.903,-2.951
1747601920.81,0.071,0.012,-0.057,0.386,-0.013,0.077,-37.197,12.843,-2.973
1747601920.83,0.013,-0.001,-0.046,0.395,0.035,0.066,-36.748,12.832,-3.035
1747601920.85,-0.051,-0.047,0.016,0.366,0.066,0.061,-36.305,12.874,-3.093
1747601920.87,0.018,-0.066,-0.077,0.319,0.056,0.042,-35.911,12.926,-3.134
1747601920.89,0.085,0.031,-0.048,0.332,-0.049,-0.010,-35.544,12.876,-3.244
1747601920.91,0.024,0.092,0.023,0.292,-0.049,-0.050,-35.190,12.729,-3.401
1747601920.93,-0.021,0.047,0.026,0.229,0.029,-0.054,-34.918,12.619,-3.576
1747601920.95,-0.017,0.030,-0.008,0.157,0.068,0.005,-34.711,12.625,-3.690
1747601920.97,0.024,0.060,-0.003,0.156,0.086,0.009,-34.537,12.704,-3.749
1747601920.99,0.096,0.020,0.009,0.170,0.008,0.015,-34.352,12.738,-3.802
1747601921.01,0.152,-0.064,-0.015,0.176,-0.102,0.067,-34.146,12.685,-3.810
1747601921.03,0.096,-0.045,-0.050,0.126,-0.096,0.054,-33.961,12.572,-3.782
1747601921.05,0.021,-0.006,-0.043,0.050,-0.096,0.074,-33.868,12.501,-3.746
1747601921.07,0.037,-0.023,-0.011,0.062,-0.116,0.127,-33.781,12.462,-3.639
1747601921.09,0.033,0.033,-0.012,0.101,-0.154,0.120,-33.654,12.390,-3.496
1747601921.11,-0.055,0.055,-0.027,0.090,-0.110,0.092,-33.507,12.310,-3.377
1747601921.13,-0.090,0.020,-0.013,0.033,-0.026,0.034,-33.421,12.271,-3.332
1747601921.15,-0.066,0.001,-0.042,0.016,-0.066,0.010,-33.391,12.236,-3.320
1747601921.17,-0.006,0.077,-0.020,0.032,-0.108,-0.043,-33.372,12.123,-3.360
1747601921.19,-0.018,0.045,0.011,0.041,-0.052,-0.041,-33.339,11.977,-3.453
1747601921.21,-0.019,0.015,0.001,-0.019,0.005,-0.003,-33.332,11.910,-3.511
1747601921.23,-0.007,0.065,-0.002,-0.034,0.078,0.051,-33.364,11.979,-3.507
1747601921.25,-0.020,0.070,-0.017,-0.018,0.087,0.063,-33.382,12.130,-3.436
1747601921.27,0.008,-0.002,-0.040,-0.069,-0.014,0.013,-33.422,12.204,-3.393
1747601921.29,0.046,-0.054,-0.042,-0.072,-0.067,-0.023,-33.514,12.151,-3.384
1747601921.31,0.044,-0.046,-0.015,-0.142,-0.008,-0.024,-33.639,12.101,-3.406
1747601921.33,0.052,-0.024,-0.035,-0.244,0.069,0.056,-33.854,12.181,-3.330
1747601921.35,0.115,0.026,-0.066,-0.313,0.051,0.129,-34.141,12.362,-3.118
1747601921.37,0.101,0.058,-0.055,-0.367,-0.032,0.088,-34.491,12.534,-2.852
1747601921.39,0.005,0.029,-0.031,-0.383,-0.044,0.020,-34.884,12.588,-2.663
1747601921.41,-0.036,-0.011,-0.057,-0.485,-0.035,-0.043,-35.356,12.621,-2.552
1747601921.43,-0.003,-0.014,-0.081,-0.595,-0.057,-0.049,-35.970,12.634,-2.456
1747601921.45,0.070,0.060,-0.034,-0.647,-0.104,-0.045,-36.675,12.624,-2.317
1747601921.47,0.046,0.082,-0.014,-0.689,-0.084,-0.047,-37.431,12.585,-2.169
1747601921.49,-0.020,0.052,-0.051,-0.737,0.009,-0.090,-38.246,12.622,-2.033
1747601921.51,-0.047,0.024,-0.064,-0.788,0.024,-0.092,-39.120,12.712,-1.904
1747601921.53,-0.021,0.000,-0.052,-0.795,-0.031,-0.140,-40.035,12.768,-1.796
1747601921.55,-0.008,-0.047,-0.039,-0.807,-0.013,-0.185,-40.968,12.754,-1.770
1747601921.57,-0.021,-0.111,-0.081,-0.866,0.018,-0.199,-41.947,12.751,-1.766
1747601921.58,0.015,-0.133,-0.073,-0.915,0.100,-0.196,-42.990,12.837,-1.743
1747601921.61,0.019,-0.112,-0.023,-0.950,0.128,-0.193,-44.081,12.975,-1.697
1747601921.62,0.046,-0.072,-0.023,-1.032,0.123,-0.151,-45.228,13.200,-1.589
1747601921.65,0.059,-0.024,-0.035,-1.106,0.042,-0.073,-46.449,13.441,-1.336
1747601921.66,0.095,0.031,-0.016,-1.085,-0.006,-0.076,-47.688,13.710,-0.985
1747601921.68,0.036,0.049,-0.039,-1.115,-0.000,-0.122,-48.924,13.907,-0.670
1747601921.70,-0.028,0.005,-0.034,-1.161,0.024,-0.134,-50.225,14.113,-0.379
1747601921.72,-0.038,-0.043,-0.011,-1.195,0.081,-0.113,-51.561,14.411,-0.043
1747601921.74,-0.003,-0.047,-0.013,-1.259,0.052,-0.096,-52.947,14.811,0.400
1747601921.76,0.029,-0.005,-0.006,-1.323,0.009,-0.129,-54.407,15.209,0.892
1747601921.78,0.024,0.045,-0.018,-1.315,-0.068,-0.164,-55.900,15.498,1.349
1747601921.80,-0.018,0.049,0.002,-1.319,-0.083,-0.202,-57.407,15.737,1.763
1747601921.82,-0.058,0.004,-0.005,-1.350,0.018,-0.226,-58.939,15.977,2.140
1747601921.84,-0.012,-0.028,0.012,-1.380,0.025,-0.228,-60.508,16.330,2.572
1747601921.86,0.020,-0.023,0.010,-1.426,-0.072,-0.278,-62.121,16.642,2.989
1747601921.88,0.072,-0.022,-0.000,-1.363,-0.065,-0.330,-63.757,16.817,3.271
1747601921.90,0.092,-0.014,-0.035,-1.336,-0.303,-0.387,-65.348,16.726,3.392
1747601921.92,0.060,-0.033,-0.051,-1.351,-0.351,-0.431,-66.951,16.292,3.354
1747601921.94,0.009,-0.060,-0.038,-1.363,-0.205,-0.429,-68.579,15.839,3.222
1747601921.96,-0.009,-0.060,0.028,-1.399,-0.009,-0.342,-70.217,15.729,3.218
1747601921.98,0.037,-0.035,-0.014,-1.512,-0.076,-0.270,-71.909,16.075,3.607
1747601922.00,0.086,-0.031,-0.000,-1.358,-0.212,-0.265,-73.587,16.487,4.223
1747601922.02,0.083,-0.037,-0.072,-1.216,-0.326,-0.357,-75.091,16.479,4.536
1747601922.04,0.003,-0.010,-0.097,-1.186,-0.258,-0.437,-76.511,15.830,4.242
1747601922.06,-0.091,-0.016,0.033,-1.326,0.144,-0.443,-78.030,15.329,3.786
1747601922.08,-0.118,-0.040,0.015,-1.351,0.129,-0.349,-79.629,15.246,3.520
1747601922.10,0.036,-0.067,0.120,-1.300,0.137,-0.186,-81.186,16.206,4.338
1747601922.12,0.083,-0.023,0.010,-1.241,-0.016,-0.253,-82.619,17.619,5.693
1747601922.14,0.076,0.008,-0.045,-1.123,-0.165,-0.370,-84.033,18.159,6.342
1747601922.16,-0.018,0.015,-0.110,-1.011,-0.232,-0.401,-85.325,17.289,5.725
1747601922.18,-0.101,-0.010,-0.054,-0.942,0.081,-0.375,-86.500,15.456,3.996
1747601922.20,-0.111,-0.048,0.055,-1.071,0.276,-0.302,-87.716,13.989,2.298
1747601922.22,-0.092,-0.035,0.061,-1.102,0.326,-0.237,-89.002,15.093,3.060
1747601922.24,-0.008,-0.016,0.003,-1.007,0.362,-0.246,-89.760,-176.545,171.010
1747601922.26,0.069,0.005,0.011,-0.909,0.276,-0.254,-88.623,-167.195,179.990
1747601922.28,0.023,0.045,-0.033,-0.843,0.236,-0.285,-87.585,-165.267,-178.353
1747601922.30,-0.040,0.009,-0.040,-0.734,0.279,-0.310,-86.623,-163.232,-176.631
1747601922.32,0.003,-0.034,-0.112,-0.627,0.286,-0.282,-85.783,-161.628,-175.320
1747601922.34,0.064,0.015,-0.051,-0.512,0.317,-0.259,-85.052,-160.240,-174.300
1747601922.36,0.012,0.042,0.006,-0.406,0.267,-0.136,-84.505,-159.450,-173.823
1747601922.38,-0.051,-0.040,0.055,-0.365,0.323,-0.093,-84.046,-159.517,-174.227
1747601922.40,-0.037,-0.057,-0.006,-0.430,0.454,-0.079,-83.600,-159.635,-174.790
1747601922.42,0.043,0.007,0.034,-0.404,0.452,-0.073,-83.099,-159.932,-175.635
1747601922.44,0.019,0.061,0.039,-0.285,0.283,-0.082,-82.708,-159.871,-176.006
1747601922.46,-0.017,-0.015,0.030,-0.261,0.193,-0.063,-82.385,-159.858,-176.243
1747601922.48,-0.007,-0.032,-0.007,-0.189,0.136,-0.079,-82.117,-159.786,-176.362
1747601922.50,0.031,0.007,-0.017,-0.121,0.113,-0.082,-81.913,-159.436,-176.161
1747601922.52,0.008,0.025,-0.001,-0.114,0.011,-0.037,-81.775,-159.242,-176.031
1747601922.54,-0.036,-0.007,0.057,-0.148,-0.038,-0.059,-81.614,-159.308,-176.075
1747601922.56,0.029,-0.012,0.027,-0.116,-0.109,-0.105,-81.431,-159.179,-175.861
1747601922.58,0.071,0.011,0.028,-0.003,-0.152,-0.097,-81.325,-158.729,-175.244
1747601922.60,0.014,0.007,0.061,0.015,-0.188,-0.037,-81.323,-158.474,-174.798
1747601922.62,-0.090,-0.024,0.029,-0.031,-0.137,-0.074,-81.292,-158.273,-174.396
1747601922.64,-0.036,-0.029,0.020,-0.051,-0.010,-0.056,-81.204,-158.062,-174.093
1747601922.66,0.018,-0.007,0.027,0.000,0.035,0.012,-81.172,-157.994,-174.055
1747601922.68,-0.021,-0.021,0.039,-0.045,0.121,0.027,-81.162,-158.202,-174.348
1747601922.70,-0.029,-0.023,0.007,-0.055,0.066,-0.014,-81.089,-158.253,-174.523
1747601922.72,0.013,0.027,-0.020,0.014,0.020,-0.039,-81.049,-158.003,-174.309
1747601922.74,0.036,0.016,-0.004,0.051,-0.017,-0.000,-81.077,-157.750,-174.067
1747601922.76,-0.003,-0.019,0.005,0.023,-0.031,-0.005,-81.109,-157.725,-174.005
1747601922.78,0.001,-0.019,0.000,0.050,-0.038,-0.026,-81.124,-157.509,-173.746
1747601922.80,0.014,0.018,-0.003,0.133,0.000,-0.022,-81.215,-157.040,-173.252
1747601922.82,-0.024,0.031,0.035,0.116,0.078,0.039,-81.374,-156.842,-173.093
1747601922.84,-0.070,-0.015,0.041,0.083,0.090,0.023,-81.497,-156.717,-173.057
1747601922.86,-0.004,-0.036,0.050,0.053,0.136,0.002,-81.563,-156.480,-172.952
1747601922.88,0.030,-0.010,0.023,0.059,0.113,-0.012,-81.622,-156.122,-172.740
1747601922.90,0.010,0.003,0.032,0.084,0.078,0.048,-81.694,-155.864,-172.585
1747601922.92,-0.014,-0.005,0.059,0.096,0.035,0.064,-81.789,-155.854,-172.649
1747601922.94,-0.020,-0.017,0.032,0.146,0.004,0.021,-81.909,-155.744,-172.550
1747601922.96,0.018,-0.023,0.026,0.193,0.003,0.011,-82.079,-155.366,-172.177
1747601922.98,0.023,0.002,0.006,0.271,-0.071,0.068,-82.325,-154.964,-171.730
1747601923.00,-0.006,0.009,0.002,0.392,-0.202,0.113,-82.683,-154.684,-171.295
1747601923.02,-0.026,-0.008,0.018,0.453,-0.197,0.094,-83.135,-154.129,-170.485
1747601923.04,-0.013,-0.010,0.007,0.623,-0.102,0.100,-83.702,-152.842,-169.027
1747601923.06,-0.010,0.036,0.020,0.598,-0.201,0.204,-84.411,-151.280,-167.285
1747601923.08,-0.040,0.021,0.078,0.633,-0.209,0.281,-85.153,-150.471,-166.230
1747601923.10,-0.029,-0.041,0.120,0.624,-0.101,0.309,-85.951,-149.847,-165.416
1747601923.12,0.013,-0.048,0.107,0.748,-0.087,0.290,-86.789,-148.416,-163.899
1747601923.14,0.016,0.036,0.043,0.928,-0.249,0.242,-87.752,-142.435,-157.735
1747601923.16,-0.034,0.064,0.073,1.087,-0.473,0.228,-88.736,-120.217,-135.074
1747601923.18,-0.104,-0.008,0.091,1.110,-0.524,0.196,-88.946,-53.838,-68.101
1747601923.20,-0.095,-0.068,0.035,1.079,-0.366,0.172,-88.027,-19.371,-33.110
1747601923.22,-0.038,-0.029,0.011,1.161,-0.330,0.196,-86.839,-8.544,-21.877
1747601923.24,0.000,0.038,0.021,1.116,-0.234,0.255,-85.552,-2.948,-15.937
1747601923.26,-0.019,0.039,0.063,1.116,-0.002,0.260,-84.304,0.544,-12.292
1747601923.28,-0.039,-0.043,0.042,1.127,0.280,0.267,-82.997,3.057,-9.931
1747601923.30,-0.083,-0.047,0.034,1.033,0.383,0.307,-81.729,5.160,-8.197
1747601923.32,-0.066,0.021,0.044,0.980,0.541,0.375,-80.550,7.431,-6.455
1747601923.34,-0.043,0.013,-0.009,0.899,0.408,0.351,-79.426,9.464,-4.948
1747601923.36,0.101,-0.032,0.010,0.879,0.382,0.315,-78.375,10.908,-3.936
1747601923.38,0.184,-0.064,-0.058,1.068,0.079,0.309,-77.203,11.779,-3.322
1747601923.40,0.144,-0.062,-0.056,1.050,-0.084,0.313,-75.941,12.144,-2.932
1747601923.42,0.002,0.002,-0.086,0.933,-0.005,0.330,-74.724,12.526,-2.459
1747601923.44,-0.137,0.013,-0.004,0.869,0.270,0.246,-73.673,13.004,-2.096
1747601923.46,-0.047,-0.018,-0.020,1.011,0.342,0.248,-72.582,13.468,-2.022
1747601923.48,0.034,-0.062,-0.089,1.277,0.036,0.289,-71.230,13.666,-2.045
1747601923.50,0.082,-0.051,-0.027,1.133,0.493,0.200,-69.809,13.836,-2.164
1747601923.52,-0.076,-0.038,0.050,0.865,0.388,0.236,-68.622,14.140,-2.367
1747601923.54,-0.101,-0.022,-0.025,0.761,0.387,0.394,-67.655,14.924,-2.009
1747601923.56,0.045,-0.005,-0.008,0.992,0.257,0.372,-66.590,15.753,-1.535
1747601923.58,0.130,-0.007,-0.146,1.300,-0.034,0.182,-65.205,15.747,-1.659
1747601923.60,0.000,-0.043,-0.064,1.258,0.127,0.012,-63.750,15.084,-2.353
1747601923.62,-0.076,-0.108,0.136,1.062,0.290,0.162,-62.423,14.815,-2.934
1747601923.64,-0.100,-0.081,-0.044,0.621,0.562,0.372,-61.459,15.428,-2.796
1747601923.66,0.121,-0.017,-0.050,0.797,0.350,0.463,-60.558,16.454,-2.238
1747601923.68,0.143,0.019,0.005,1.072,0.118,0.332,-59.408,16.931,-1.948
1747601923.70,-0.023,0.021,0.051,0.963,0.118,0.231,-58.167,16.980,-2.036
1747601923.72,-0.145,0.061,-0.007,0.754,0.172,0.293,-57.148,17.154,-2.045
1747601923.74,-0.032,0.118,0.006,0.800,0.091,0.311,-56.215,17.488,-1.860
1747601923.76,0.046,0.124,0.039,1.014,-0.269,0.154,-55.145,17.298,-1.944
1747601923.78,0.032,0.032,0.026,1.089,-0.385,0.068,-53.948,16.551,-2.368
1747601923.80,-0.024,-0.016,0.023,0.986,-0.145,0.081,-52.773,15.883,-2.781
1747601923.82,-0.021,0.034,0.032,0.766,0.037,0.128,-51.774,15.610,-3.041
1747601923.84,0.077,0.048,0.033,0.675,0.033,0.285,-50.946,15.685,-3.018
1747601923.86,0.100,-0.004,0.061,0.769,-0.133,0.346,-50.049,15.808,-2.780
1747601923.88,0.087,0.012,0.033,0.822,-0.262,0.212,-49.093,15.672,-2.667
1747601923.90,0.103,0.060,0.011,0.788,-0.247,0.145,-48.149,15.275,-2.764
1747601923.92,0.099,0.039,0.030,0.667,-0.283,0.211,-47.291,14.961,-2.809
1747601923.94,-0.003,-0.033,-0.009,0.610,-0.217,0.366,-46.510,14.808,-2.621
1747601923.96,-0.025,-0.051,0.047,0.684,-0.141,0.399,-45.681,14.880,-2.274
1747601923.98,0.017,0.002,-0.008,0.726,-0.141,0.325,-44.793,14.921,-2.010
1747601924.00,0.062,0.074,-0.021,0.733,-0.287,0.254,-43.898,14.778,-1.859
1747601924.02,0.063,0.099,0.021,0.631,-0.285,0.193,-43.063,14.479,-1.819
1747601924.04,-0.028,0.000,-0.076,0.501,-0.229,0.291,-42.390,14.272,-1.687
1747601924.06,-0.117,-0.068,0.000,0.592,-0.043,0.287,-41.700,14.287,-1.434
1747601924.08,-0.152,0.045,0.011,0.632,0.004,0.128,-40.957,14.329,-1.377
1747601924.10,-0.073,0.095,-0.010,0.691,-0.135,0.053,-40.209,14.173,-1.520
1747601924.12,0.032,0.078,-0.009,0.687,-0.119,-0.012,-39.426,13.876,-1.751
1747601924.14,-0.069,-0.005,-0.084,0.547,-0.064,-0.022,-38.747,13.591,-2.041
1747601924.16,-0.147,-0.112,-0.030,0.527,0.114,0.039,-38.151,13.507,-2.230
1747601924.18,-0.074,-0.012,0.013,0.541,0.205,-0.020,-37.561,13.623,-2.409
1747601924.20,-0.014,0.090,0.001,0.534,0.078,-0.022,-36.964,13.654,-2.664
1747601924.22,0.032,0.037,-0.024,0.531,0.063,-0.065,-36.386,13.587,-2.926
1747601924.24,0.023,0.001,-0.068,0.468,0.088,-0.103,-35.847,13.511,-3.252
1747601924.26,-0.032,-0.001,-0.070,0.417,0.155,-0.108,-35.400,13.490,-3.555
1747601924.28,-0.057,-0.006,0.023,0.542,0.164,-0.158,-34.898,13.476,-3.919
1747601924.30,0.033,0.003,0.018,0.601,0.191,-0.263,-34.308,13.427,-4.437
1747601924.32,0.049,-0.018,-0.037,0.518,0.163,-0.189,-33.734,13.369,-4.915
1747601924.34,0.090,-0.011,-0.009,0.380,0.150,0.005,-33.262,13.417,-5.227
1747601924.36,0.182,0.034,0.016,0.380,-0.044,0.064,-32.847,13.452,-5.333
1747601924.38,0.278,0.042,0.051,0.389,-0.229,0.072,-32.391,13.267,-5.390
1747601924.40,0.142,-0.040,0.012,0.343,-0.138,0.214,-31.951,13.063,-5.354
1747601924.42,-0.011,-0.043,-0.013,0.254,0.001,0.290,-31.544,13.131,-5.122
1747601924.44,-0.010,0.032,-0.032,0.240,0.000,0.188,-31.211,13.282,-4.897
1747601924.46,0.043,-0.029,-0.062,0.196,-0.131,0.092,-30.930,13.267,-4.813
1747601924.48,0.007,-0.055,-0.097,0.147,-0.167,0.045,-30.724,13.091,-4.797
1747601924.50,-0.071,0.051,0.028,0.205,-0.083,0.010,-30.523,12.941,-4.833
1747601924.52,-0.088,0.085,-0.009,0.167,-0.073,0.023,-30.299,12.820,-4.902
1747601924.54,-0.008,0.023,-0.059,0.072,0.012,0.015,-30.167,12.790,-4.933
1747601924.56,0.021,0.039,-0.071,0.060,-0.035,0.021,-30.089,12.794,-4.934
1747601924.58,0.059,0.080,0.001,0.122,-0.126,-0.028,-29.987,12.670,-4.994
1747601924.60,0.017,-0.045,0.060,0.091,-0.076,-0.036,-29.886,12.490,-5.100
1747601924.62,0.030,-0.061,-0.037,-0.021,-0.005,0.040,-29.844,12.442,-5.127
1747601924.64,0.068,0.137,-0.081,-0.101,-0.053,0.095,-29.903,12.466,-5.026
1747601924.66,0.056,0.101,-0.014,-0.127,-0.040,0.065,-30.010,12.505,-4.909
1747601924.68,0.029,-0.055,-0.060,-0.192,-0.059,0.020,-30.175,12.494,-4.838
1747601924.70,-0.013,-0.011,-0.109,-0.310,-0.024,-0.025,-30.458,12.480,-4.792
1747601924.72,-0.018,0.056,-0.036,-0.360,-0.063,-0.000,-30.836,12.485,-4.722
1747601924.74,0.072,0.013,-0.074,-0.444,-0.105,-0.017,-31.293,12.435,-4.628
1747601924.76,0.112,-0.007,-0.078,-0.546,-0.067,-0.053,-31.846,12.370,-4.535
1747601924.78,0.001,0.006,-0.059,-0.669,-0.051,-0.034,-32.534,12.353,-4.427
1747601924.80,-0.007,0.020,-0.070,-0.706,-0.029,-0.047,-33.316,12.401,-4.282
1747601924.82,-0.004,0.020,-0.066,-0.742,-0.049,-0.115,-34.148,12.418,-4.177
1747601924.84,-0.061,-0.012,-0.068,-0.763,-0.063,-0.183,-35.021,12.362,-4.162
1747601924.86,-0.044,-0.084,-0.066,-0.792,-0.029,-0.185,-35.936,12.293,-4.175
1747601924.88,0.037,-0.105,-0.064,-0.878,-0.020,-0.194,-36.915,12.276,-4.156
1747601924.90,0.021,-0.079,-0.054,-0.915,0.038,-0.219,-37.961,12.261,-4.181
1747601924.92,-0.078,-0.097,-0.041,-0.944,0.100,-0.199,-39.059,12.325,-4.185
1747601924.94,-0.038,-0.097,-0.036,-0.947,0.173,-0.171,-40.155,12.519,-4.132
1747601924.96,0.043,-0.027,-0.065,-0.948,0.093,-0.190,-41.255,12.716,-4.062
1747601924.98,0.046,0.002,-0.042,-0.944,-0.041,-0.187,-42.359,12.762,-4.014
1747601925.01,0.048,-0.047,-0.047,-0.959,-0.003,-0.160,-43.456,12.762,-3.962
1747601925.02,0.032,-0.094,-0.030,-1.046,-0.043,-0.118,-44.622,12.830,-3.817
1747601925.04,0.011,-0.099,-0.025,-1.063,-0.034,-0.059,-45.810,12.961,-3.579
1747601925.06,0.039,-0.062,-0.024,-1.114,-0.014,-0.017,-47.033,13.194,-3.222
1747601925.08,0.060,-0.012,-0.041,-1.187,-0.021,-0.016,-48.309,13.473,-2.791
1747601925.10,0.079,0.032,0.016,-1.199,-0.126,0.016,-49.647,13.782,-2.269
1747601925.12,0.056,0.051,0.004,-1.171,-0.207,0.000,-50.956,14.001,-1.703
1747601925.14,0.014,0.048,-0.019,-1.180,-0.210,-0.070,-52.263,14.111,-1.193
1747601925.15,-0.051,0.018,0.000,-1.225,-0.147,-0.128,-53.624,14.193,-0.797
1747601925.18,-0.108,-0.010,-0.008,-1.254,-0.034,-0.147,-55.040,14.369,-0.396
1747601925.20,-0.126,-0.012,-0.016,-1.276,0.106,-0.168,-56.487,14.707,0.003
1747601925.21,-0.113,0.028,-0.033,-1.304,0.100,-0.210,-57.967,15.086,0.360
1747601925.23,-0.038,0.051,0.038,-1.273,0.179,-0.286,-59.473,15.445,0.588
1747601925.25,0.064,-0.009,0.012,-1.301,0.111,-0.292,-60.966,15.740,0.719
1747601925.28,0.164,-0.058,-0.027,-1.366,-0.044,-0.275,-62.525,15.977,0.945
1747601925.29,0.164,-0.046,0.009,-1.350,-0.117,-0.315,-64.112,16.091,1.179
1747601925.31,0.087,0.005,-0.031,-1.349,-0.236,-0.379,-65.701,15.961,1.299
1747601925.33,-0.003,0.033,0.008,-1.376,-0.257,-0.395,-67.316,15.667,1.301
1747601925.35,-0.072,-0.008,0.061,-1.371,0.006,-0.457,-68.957,15.386,1.161
1747601925.37,-0.067,-0.060,0.033,-1.366,0.112,-0.400,-70.606,15.289,0.967
1747601925.39,-0.014,-0.031,-0.055,-1.382,0.151,-0.355,-72.232,15.472,0.999
1747601925.41,0.003,0.003,-0.094,-1.310,0.092,-0.453,-73.826,15.517,0.907
1747601925.43,-0.001,-0.024,-0.016,-1.358,0.296,-0.541,-75.463,15.184,0.351
1747601926.94,-0.017,-0.064,-0.015,-1.316,0.347,-0.467,-77.092,14.882,-0.368
1747601926.95,0.017,-0.064,-0.036,-1.320,0.405,-0.395,-78.666,14.891,-0.772
1747601926.96,0.095,-0.037,0.018,-1.423,0.387,-0.385,-80.273,15.248,-0.902
1747601926.97,0.102,-0.001,0.019,-1.428,0.262,-0.375,-81.972,15.798,-0.727
1747601926.98,0.082,0.020,0.046,-1.369,-0.057,-0.383,-83.657,16.155,-0.479
1747601926.98,0.102,-0.021,-0.057,-1.202,-0.166,-0.389,-85.162,15.715,-0.761
1747601926.98,0.076,-0.058,-0.008,-1.259,-0.300,-0.393,-86.635,14.682,-1.549
1747601926.99,-0.052,-0.026,-0.023,-1.159,-0.394,-0.448,-88.110,10.830,-4.985
1747601926.99,-0.102,-0.009,-0.023,-1.010,-0.143,-0.440,-89.339,-14.980,-30.491
1747601926.99,-0.086,0.004,0.007,-0.976,0.062,-0.378,-89.189,-128.379,-143.850
1747601926.99,-0.096,0.008,0.035,-0.959,0.303,-0.307,-88.100,-147.217,-162.900
1747601927.00,-0.079,-0.029,0.076,-0.853,0.359,-0.258,-87.030,-152.473,-168.576
1747601927.00,-0.023,-0.040,0.007,-0.778,0.335,-0.223,-86.076,-155.019,-171.510
1747601927.00,0.037,-0.007,0.015,-0.688,0.309,-0.233,-85.197,-156.090,-172.965
1747601927.01,0.060,-0.000,-0.042,-0.551,0.127,-0.201,-84.458,-156.413,-173.553
1747601927.01,0.017,0.023,-0.019,-0.479,-0.107,-0.225,-83.817,-156.663,-173.801
1747601927.01,-0.014,0.010,-0.021,-0.391,-0.023,-0.241,-83.261,-156.233,-173.281
1747601927.02,0.014,-0.020,-0.025,-0.269,-0.008,-0.152,-82.806,-155.793,-172.844
1747601927.02,-0.009,-0.013,-0.052,-0.165,-0.125,-0.069,-82.543,-155.739,-172.723
1747601927.02,-0.049,0.011,-0.015,-0.136,-0.115,-0.056,-82.357,-156.016,-172.837
1747601927.03,-0.044,0.053,-0.016,-0.045,0.022,-0.064,-82.242,-155.855,-172.626
1747601927.03,0.023,0.025,-0.023,0.009,0.077,-0.048,-82.194,-155.395,-172.246
1747601927.03,0.015,0.010,-0.000,-0.028,-0.063,-0.002,-82.185,-155.177,-172.029
1747601927.04,-0.095,-0.016,0.096,-0.074,0.079,-0.030,-82.121,-155.346,-172.194
1747601927.04,-0.084,-0.038,0.023,-0.080,0.250,-0.073,-82.005,-154.915,-171.949
1747601927.04,0.056,-0.054,0.024,-0.004,0.292,-0.006,-81.945,-154.401,-171.772
1747601927.05,0.040,-0.016,0.082,-0.025,-0.018,0.051,-81.946,-154.531,-172.069
1747601927.05,-0.024,-0.030,0.027,0.003,-0.038,0.037,-81.955,-154.938,-172.423
1747601927.05,0.053,-0.048,-0.018,0.006,-0.084,-0.016,-81.952,-155.066,-172.498
1747601927.05,0.064,0.022,-0.049,0.127,-0.230,-0.074,-81.986,-154.630,-171.878
1747601927.06,0.055,0.048,0.003,0.117,-0.280,0.000,-82.104,-154.207,-171.148
1747601927.06,-0.028,0.029,-0.014,0.134,-0.297,0.014,-82.238,-154.218,-170.813
1747601931.05,-0.027,-0.013,-0.032,0.086,-0.125,-0.035,-82.345,-154.056,-170.388
1747601931.06,-0.038,0.014,-0.002,0.144,0.010,-0.019,-82.462,-153.409,-169.676
1747601931.06,-0.074,0.036,0.058,-0.012,0.243,0.030,-82.545,-153.061,-169.469
1747601931.06,-0.064,-0.008,0.086,-0.077,0.374,0.036,-82.516,-153.244,-170.032
1747601931.06,-0.006,-0.049,0.045,-0.117,0.357,-0.013,-82.423,-153.237,-170.442
1747601931.07,0.053,-0.054,0.026,-0.041,0.330,-0.057,-82.311,-152.870,-170.475
1747601931.08,0.068,0.021,-0.019,-0.004,0.162,-0.004,-82.274,-152.343,-170.247
1747601931.08,0.014,0.013,-0.001,0.014,-0.039,0.022,-82.281,-152.449,-170.400
1747601931.09,0.010,-0.012,-0.013,-0.009,-0.038,-0.024,-82.280,-152.437,-170.330
1747601931.10,0.084,-0.038,0.014,0.046,-0.059,-0.033,-82.265,-152.271,-170.117
1747601931.11,0.064,0.007,-0.002,0.100,-0.234,0.007,-82.343,-152.040,-169.729
1747601931.12,-0.006,0.023,0.006,0.109,-0.297,0.015,-82.464,-152.095,-169.451
1747601931.13,-0.025,0.007,0.026,0.153,-0.220,-0.004,-82.591,-151.907,-168.963
1747601931.13,-0.019,0.008,0.014,0.164,-0.115,0.025,-82.764,-151.578,-168.433
1747601931.14,-0.061,-0.006,0.053,0.168,-0.090,0.087,-82.969,-151.492,-168.229
1747601931.15,-0.096,-0.025,0.066,0.173,-0.001,0.084,-83.186,-151.563,-168.251
1747601931.15,-0.048,-0.016,0.030,0.174,0.087,0.063,-83.400,-151.268,-168.011
1747601931.15,-0.014,-0.007,0.045,0.218,0.096,0.067,-83.619,-150.800,-167.647
1747601931.17,-0.016,0.002,0.047,0.246,0.049,0.086,-83.867,-150.170,-167.104
1747601931.18,0.008,0.002,0.006,0.363,-0.099,0.110,-84.182,-149.284,-166.192
