Time,AccX,AccY,AccZ,GyroX,GyroY,GyroZ,Pitch,Roll,Yaw
1747600799.54,-0.019,-0.018,0.003,-0.028,-0.038,-0.026,-81.007,-11.664,-10.702
1747600799.55,-0.004,-0.003,0.006,-0.027,-0.022,-0.013,-81.023,-11.842,-10.849
1747600799.57,-0.005,0.029,0.017,-0.000,-0.011,-0.027,-81.020,-11.983,-10.974
1747600799.59,-0.043,0.008,0.015,-0.004,-0.005,-0.044,-81.006,-12.224,-11.210
1747600799.61,-0.048,-0.023,-0.007,-0.055,0.010,-0.054,-81.028,-12.645,-11.636
1747600799.63,-0.006,-0.005,0.003,-0.074,-0.004,-0.082,-81.090,-13.258,-12.261
1747600799.65,0.031,0.006,0.002,-0.048,-0.047,-0.070,-81.143,-13.926,-12.914
1747600799.67,0.051,-0.006,-0.012,-0.024,-0.109,-0.057,-81.175,-14.564,-13.465
1747600799.69,0.030,-0.004,-0.036,0.024,-0.100,-0.065,-81.153,-15.138,-13.919
1747600799.71,0.020,-0.001,-0.045,0.050,-0.023,-0.051,-81.092,-15.565,-14.276
1747600799.73,0.028,-0.001,-0.045,0.061,0.075,-0.026,-81.019,-15.671,-14.413
1747600799.75,0.040,-0.010,-0.027,0.050,0.121,0.021,-80.954,-15.410,-14.275
1747600799.77,0.052,-0.019,-0.016,0.040,0.070,0.033,-80.905,-14.929,-13.901
1747600799.79,0.049,0.004,-0.010,0.064,-0.029,0.011,-80.825,-14.586,-13.582
1747600799.81,0.026,0.012,0.003,0.080,-0.074,-0.026,-80.723,-14.507,-13.435
1747600799.83,0.009,0.003,0.009,0.082,-0.043,-0.028,-80.603,-14.536,-13.401
1747600799.85,0.009,0.007,0.025,0.066,-0.055,-0.006,-80.507,-14.490,-13.305
1747600799.87,0.029,-0.010,0.033,0.016,-0.094,0.011,-80.464,-14.397,-13.135
1747600799.89,0.027,-0.011,0.046,0.029,-0.192,0.051,-80.459,-14.297,-12.869
1747600799.91,-0.010,0.020,0.048,0.031,-0.313,0.049,-80.451,-14.187,-12.466
1747600799.93,-0.050,0.012,0.033,0.136,-0.372,0.029,-80.392,-14.199,-12.079
1747600799.95,-0.087,-0.021,-0.043,0.153,-0.456,-0.001,-80.228,-14.295,-11.699
1747600799.97,-0.128,-0.013,-0.075,0.114,-0.377,-0.031,-80.085,-14.710,-11.617
1747600799.99,-0.131,-0.005,-0.033,0.105,-0.191,0.020,-79.963,-14.917,-11.502
1747600800.01,-0.108,0.005,-0.017,0.117,-0.066,0.064,-79.860,-14.588,-11.028
1747600800.03,-0.107,0.021,-0.034,0.100,0.073,0.096,-79.751,-13.929,-10.349
1747600800.05,-0.079,-0.043,0.003,0.031,0.200,0.120,-79.711,-12.997,-9.574
1747600800.07,-0.036,-0.052,-0.010,0.008,0.091,0.132,-79.728,-11.996,-8.736
1747600800.09,-0.011,0.006,-0.011,0.039,-0.078,0.091,-79.732,-11.273,-8.017
1747600800.11,0.012,0.015,-0.068,0.093,-0.170,0.041,-79.667,-10.970,-7.547
1747600800.13,0.025,0.017,-0.024,0.134,-0.144,0.040,-79.545,-10.812,-7.198
1747600800.15,-0.007,0.009,0.010,0.112,0.004,0.107,-79.409,-10.302,-6.587
1747600800.17,-0.010,-0.026,0.063,0.056,0.144,0.171,-79.349,-9.302,-5.672
1747600800.19,-0.002,-0.009,0.044,0.074,0.110,0.163,-79.294,-8.125,-4.630
1747600800.21,0.091,0.012,0.039,0.145,0.068,0.150,-79.196,-6.947,-3.529
1747600800.23,0.113,0.021,0.053,0.232,-0.012,0.108,-78.999,-6.043,-2.649
1747600800.25,0.062,0.022,0.003,0.286,-0.042,0.121,-78.716,-5.306,-1.863
1747600800.27,0.063,0.003,-0.001,0.298,-0.042,0.138,-78.406,-4.470,-0.946
1747600800.29,0.081,-0.021,0.055,0.343,-0.053,0.155,-78.068,-3.604,-0.019
1747600800.31,0.054,-0.019,0.044,0.435,-0.098,0.160,-77.643,-2.697,1.001
1747600800.33,-0.032,0.034,0.044,0.493,-0.107,0.091,-77.101,-2.084,1.766
1747600800.35,-0.079,0.046,0.081,0.438,0.037,0.115,-76.571,-1.493,2.406
1747600800.37,-0.114,0.022,0.110,0.338,0.132,0.084,-76.132,-0.958,2.858
1747600800.39,-0.055,0.007,0.122,0.378,0.140,0.083,-75.739,-0.415,3.234
1747600800.41,0.005,0.076,0.064,0.479,0.004,0.050,-75.245,0.114,3.697
1747600800.43,-0.006,0.066,0.064,0.514,-0.015,0.064,-74.685,0.282,3.903
1747600800.45,0.008,-0.032,0.063,0.619,0.023,0.100,-74.035,0.623,4.244
1747600800.47,0.010,-0.034,0.034,0.650,0.021,0.146,-73.307,1.059,4.672
1747600800.49,-0.000,-0.033,-0.008,0.674,0.090,0.138,-72.547,1.586,5.184
1747600800.51,-0.011,-0.007,0.021,0.665,0.185,0.253,-71.785,2.322,5.769
1747600800.53,-0.002,0.014,0.017,0.781,0.210,0.162,-70.955,3.153,6.412
1747600800.55,0.074,-0.008,0.038,0.871,0.004,0.196,-69.994,3.694,6.837
1747600800.57,0.031,-0.026,0.022,0.932,0.024,0.204,-68.942,4.103,7.280
1747600800.59,-0.065,-0.010,0.052,0.838,0.109,0.277,-67.905,4.673,7.818
1747600800.61,-0.147,-0.012,0.020,0.689,0.333,0.153,-67.024,5.272,8.294
1747600800.63,0.053,-0.036,0.081,0.765,0.129,0.286,-66.198,5.995,8.855
1747600800.65,0.186,0.052,-0.011,0.954,-0.151,0.246,-65.167,6.350,9.370
1747600800.67,0.101,0.047,0.046,0.965,-0.271,0.168,-64.072,6.349,9.759
1747600800.69,-0.123,-0.021,-0.058,0.951,-0.055,0.184,-62.949,6.248,10.044
1747600800.71,-0.080,-0.052,0.040,0.883,0.118,0.176,-61.895,6.521,10.406
1747600800.73,-0.001,-0.009,-0.020,0.970,0.044,0.203,-60.827,6.788,10.767
1747600800.75,0.115,0.004,-0.014,1.032,0.053,0.199,-59.669,7.036,11.140
1747600800.77,-0.036,-0.046,-0.058,1.053,0.052,0.160,-58.440,7.128,11.384
1747600800.79,-0.132,-0.086,0.050,0.885,0.152,0.255,-57.324,7.402,11.723
1747600800.81,-0.049,-0.028,0.016,0.839,0.258,0.240,-56.298,7.969,12.242
1747600800.83,0.114,0.105,0.046,0.964,-0.096,0.235,-55.255,8.233,12.632
1747600800.85,0.075,0.158,0.052,1.011,-0.168,0.161,-54.075,8.188,12.920
1747600800.87,-0.089,0.083,0.005,1.006,0.016,0.085,-52.926,8.034,13.046
1747600800.89,-0.107,-0.023,0.045,0.965,0.142,0.136,-51.780,8.035,13.154
1747600800.91,-0.045,-0.058,0.052,0.853,0.187,0.244,-50.733,8.314,13.471
1747600800.93,0.074,-0.016,0.039,0.779,0.162,0.350,-49.782,8.767,14.008
1747600800.95,0.147,0.054,0.017,0.859,-0.080,0.381,-48.788,9.154,14.635
1747600800.97,0.082,0.107,0.007,0.868,-0.204,0.274,-47.758,9.225,15.179
1747600800.99,-0.011,0.031,0.001,0.861,-0.273,0.219,-46.719,9.058,15.544
1747600801.01,0.013,-0.082,-0.024,0.863,-0.283,0.227,-45.719,8.829,15.896
1747600801.03,0.056,-0.106,-0.015,0.876,-0.244,0.215,-44.702,8.629,16.281
1747600801.05,-0.028,-0.057,-0.020,0.860,-0.084,0.230,-43.683,8.541,16.679
1747600801.07,-0.077,-0.022,-0.013,0.839,0.070,0.205,-42.666,8.604,17.061
1747600801.09,-0.040,-0.009,-0.002,0.809,-0.019,0.186,-41.713,8.756,17.424
1747600801.11,0.024,0.016,-0.029,0.847,-0.106,0.136,-40.760,8.725,17.763
1747600801.13,-0.013,0.053,0.006,1.026,-0.216,0.034,-39.696,8.481,18.224
1747600801.15,-0.059,0.040,0.068,1.041,-0.215,-0.020,-38.517,8.049,18.293
1747600801.17,-0.025,-0.029,-0.050,0.970,-0.074,-0.054,-37.387,7.717,18.322
1747600801.19,0.001,-0.062,0.039,0.888,-0.036,0.029,-36.337,7.564,18.419
1747600801.21,0.007,0.026,0.026,0.880,-0.089,0.099,-35.335,7.438,18.647
1747600801.23,0.077,0.103,0.082,0.978,-0.208,0.090,-34.270,7.270,18.932
1747600801.25,0.034,0.061,0.080,1.054,-0.252,0.027,-33.096,6.931,19.122
1747600801.27,0.015,-0.064,-0.079,0.970,-0.102,0.013,-31.950,6.658,19.302
1747600801.29,0.017,-0.139,-0.013,0.860,-0.020,0.162,-30.897,6.579,19.606
1747600801.31,0.058,-0.014,0.010,0.805,-0.134,0.288,-29.932,6.615,20.105
1747600801.33,0.098,0.124,0.015,0.923,-0.359,0.282,-28.932,6.443,20.730
1747600801.35,0.049,0.096,0.123,0.982,-0.242,0.116,-27.811,6.132,21.202
1747600801.37,-0.069,-0.032,-0.045,0.906,-0.102,0.091,-26.717,5.908,21.535
1747600801.39,-0.128,-0.063,-0.026,0.790,0.135,0.203,-25.746,5.978,21.984
1747600801.41,-0.017,0.061,-0.006,0.791,0.064,0.162,-24.831,6.174,22.474
1747600801.43,0.092,0.165,0.023,0.846,-0.265,0.119,-23.887,6.101,22.894
1747600801.45,0.059,0.112,0.019,0.872,-0.325,0.016,-22.903,5.729,23.245
1747600801.47,-0.014,-0.047,-0.008,0.885,-0.094,-0.018,-21.887,5.425,23.480
1747600801.49,0.005,-0.111,-0.091,0.762,0.131,0.103,-20.951,5.441,23.769
1747600801.51,0.119,-0.062,-0.067,0.673,0.120,0.266,-20.122,5.666,24.279
1747600801.53,0.157,0.081,0.051,0.717,-0.100,0.276,-19.322,5.763,24.914
1747600801.55,0.097,0.114,0.082,0.842,-0.180,0.214,-18.381,5.659,25.435
1747600801.57,0.046,-0.024,0.022,0.793,0.003,0.160,-17.409,5.586,25.943
1747600801.59,-0.161,-0.104,-0.180,0.640,0.193,0.158,-16.581,5.724,26.397
1747600801.61,-0.053,-0.061,-0.055,0.589,0.147,0.113,-15.876,5.973,26.862
1747600801.63,0.042,0.079,0.038,0.673,-0.094,0.034,-15.163,6.026,27.235
1747600801.65,0.039,0.089,0.049,0.730,-0.172,-0.040,-14.362,5.823,27.525
1747600801.67,-0.087,0.082,-0.054,0.657,-0.013,-0.038,-13.570,5.679,27.723
1747600801.69,-0.071,0.008,-0.148,0.511,0.128,0.031,-12.915,5.752,28.014
1747600801.71,0.050,-0.027,-0.090,0.470,-0.133,0.007,-12.367,5.758,28.333
1747600801.73,0.127,0.025,-0.030,0.471,-0.401,-0.011,-11.835,5.433,28.633
1747600801.75,0.066,-0.020,0.047,0.522,-0.363,-0.001,-11.268,4.950,28.954
1747600801.77,-0.028,-0.032,-0.061,0.483,-0.111,-0.009,-10.703,4.649,29.248
1747600801.79,-0.105,-0.146,-0.067,0.425,0.105,0.061,-10.183,4.681,29.619
1747600801.81,0.047,-0.053,-0.054,0.414,-0.013,0.092,-9.704,4.738,29.998
1747600801.83,0.098,0.117,0.062,0.424,-0.128,0.134,-9.223,4.661,30.433
1747600801.85,-0.030,0.088,0.029,0.469,-0.059,0.114,-8.705,4.555,30.929
1747600801.87,0.001,-0.047,0.022,0.476,0.035,-0.008,-8.156,4.549,31.236
1747600801.89,0.010,-0.115,-0.062,0.431,0.059,0.002,-7.638,4.603,31.503
1747600801.91,0.044,0.022,-0.056,0.427,-0.020,0.014,-7.142,4.612,31.779
1747600801.93,-0.059,0.116,-0.055,0.389,-0.035,0.063,-6.675,4.583,32.088
1747600801.95,-0.044,0.077,-0.021,0.401,-0.045,-0.079,-6.226,4.538,32.387
1747600801.97,0.024,-0.006,-0.022,0.429,-0.079,-0.118,-5.757,4.439,32.533
1747600801.98,0.007,-0.031,-0.052,0.370,-0.058,-0.123,-5.316,4.346,32.660
1747600802.01,-0.017,0.076,-0.016,0.314,0.004,-0.064,-4.936,4.289,32.818
1747600802.03,0.025,0.062,-0.040,0.318,-0.034,-0.056,-4.584,4.280,32.994
1747600802.05,0.080,0.046,-0.034,0.346,-0.055,-0.041,-4.204,4.214,33.186
1747600802.06,-0.002,0.014,-0.013,0.326,-0.000,-0.041,-3.823,4.176,33.394
1747600802.08,-0.002,0.016,-0.034,0.297,0.015,-0.020,-3.474,4.186,33.617
1747600802.10,0.004,0.067,-0.020,0.260,-0.004,0.005,-3.160,4.195,33.863
1747600802.12,0.002,0.066,-0.031,0.259,-0.085,-0.025,-2.865,4.139,34.126
1747600802.14,0.040,-0.003,-0.059,0.271,-0.130,-0.077,-2.562,4.011,34.312
1747600802.16,0.005,-0.017,-0.039,0.267,-0.082,-0.057,-2.263,3.901,34.466
1747600802.18,-0.050,0.027,0.014,0.249,0.040,-0.028,-1.981,3.878,34.648
1747600802.20,-0.024,0.080,-0.023,0.223,0.074,0.029,-1.711,3.951,34.873
1747600802.22,-0.023,0.052,-0.088,0.224,0.012,-0.080,-1.453,3.994,35.091
1747600802.24,0.048,-0.024,-0.054,0.188,-0.067,-0.081,-1.223,3.969,35.236
1747600802.26,0.035,-0.012,-0.036,0.163,-0.088,-0.021,-1.031,3.870,35.408
1747600802.28,0.019,0.042,-0.008,0.153,-0.028,0.026,-0.869,3.792,35.632
1747600802.30,-0.008,0.023,-0.003,0.154,0.062,0.049,-0.700,3.817,35.888
1747600802.32,0.036,-0.014,-0.044,0.155,0.051,0.069,-0.518,3.888,36.164
1747600802.34,0.058,0.009,-0.036,0.109,0.026,0.077,-0.359,3.936,36.446
1747600802.36,-0.021,0.018,-0.047,0.076,0.029,0.067,-0.256,3.969,36.723
1747600802.38,-0.004,0.015,-0.048,0.059,0.019,0.072,-0.183,3.994,37.005
1747600802.40,0.001,0.018,-0.028,0.020,0.104,0.065,-0.122,4.069,37.251
1747600802.42,-0.016,-0.014,-0.104,-0.034,0.111,0.063,-0.115,4.211,37.526
1747600802.44,-0.011,0.019,-0.122,-0.120,0.047,0.005,-0.205,4.299,37.765
1747600802.46,0.000,-0.021,-0.109,-0.216,-0.052,-0.038,-0.404,4.299,37.955
1747600802.48,0.038,-0.027,-0.102,-0.313,-0.078,0.001,-0.693,4.207,38.138
1747600802.50,0.019,-0.019,-0.162,-0.487,-0.020,0.105,-1.142,4.153,38.449
1747600802.52,0.027,-0.032,-0.174,-0.611,0.053,0.143,-1.763,4.174,38.857
1747600802.54,0.048,-0.075,-0.133,-0.667,0.034,0.113,-2.490,4.237,39.268
1747600802.56,0.030,-0.070,-0.128,-0.727,-0.044,0.077,-3.276,4.233,39.639
1747600802.58,-0.035,-0.003,-0.121,-0.851,0.021,0.064,-4.162,4.220,40.002
1747600802.60,-0.066,-0.004,-0.114,-0.921,0.087,-0.008,-5.177,4.308,40.331
1747600802.62,-0.015,-0.039,-0.114,-0.953,0.069,-0.111,-6.246,4.405,40.554
1747600802.64,-0.014,-0.081,-0.109,-1.025,-0.015,-0.153,-7.383,4.420,40.675
1747600802.66,0.021,-0.071,-0.083,-1.103,0.060,-0.075,-8.602,4.441,40.814
1747600802.68,0.031,-0.045,-0.073,-1.127,0.149,-0.065,-9.889,4.548,40.992
1747600802.70,0.052,-0.027,-0.038,-1.181,0.170,-0.045,-11.205,4.749,41.197
1747600802.72,0.025,-0.048,-0.036,-1.229,0.182,-0.043,-12.579,4.975,41.417
1747600802.74,0.003,-0.095,-0.064,-1.261,0.144,-0.078,-14.010,5.163,41.608
1747600802.76,0.030,-0.092,-0.011,-1.274,0.157,-0.131,-15.463,5.350,41.750
1747600802.78,-0.045,-0.020,-0.008,-1.269,0.213,-0.187,-16.920,5.547,41.818
1747600802.80,-0.115,0.011,-0.038,-1.297,0.237,-0.202,-18.399,5.774,41.840
1747600802.82,-0.071,-0.014,0.008,-1.308,0.297,-0.212,-19.903,6.063,41.846
1747600802.84,0.021,-0.033,-0.011,-1.291,0.266,-0.280,-21.408,6.354,41.817
1747600802.86,0.046,-0.065,-0.007,-1.305,0.115,-0.293,-22.920,6.504,41.713
1747600802.88,0.051,-0.087,0.040,-1.328,0.039,-0.228,-24.454,6.526,41.644
1747600802.90,0.040,-0.081,-0.045,-1.347,0.136,-0.243,-25.999,6.559,41.587
1747600802.92,-0.021,-0.064,-0.042,-1.374,0.211,-0.271,-27.573,6.720,41.502
1747600802.94,-0.075,-0.080,0.028,-1.403,0.208,-0.251,-29.184,6.901,41.392
1747600802.96,0.020,-0.098,-0.009,-1.443,0.213,-0.176,-30.838,7.112,41.292
1747600802.98,0.114,-0.078,0.004,-1.448,0.160,-0.168,-32.494,7.348,41.254
1747600803.00,0.066,-0.047,-0.018,-1.470,0.077,-0.197,-34.175,7.480,41.180
1747600803.02,0.049,-0.044,-0.047,-1.485,0.047,-0.153,-35.875,7.567,41.124
1747600803.04,0.072,-0.034,-0.016,-1.495,0.050,-0.126,-37.581,7.675,41.096
1747600803.06,0.061,-0.023,0.041,-1.535,0.049,-0.089,-39.312,7.818,41.135
1747600803.08,0.028,-0.010,0.082,-1.535,0.102,-0.104,-41.070,8.022,41.165
1747600803.10,-0.004,-0.004,0.038,-1.519,0.162,-0.136,-42.816,8.272,41.164
1747600803.12,-0.038,-0.026,-0.022,-1.476,0.135,-0.221,-44.536,8.491,41.074
1747600803.14,-0.061,-0.017,-0.014,-1.454,0.117,-0.277,-46.232,8.601,40.827
1747600803.16,-0.036,-0.011,-0.002,-1.465,0.146,-0.308,-47.923,8.662,40.522
1747600803.18,0.014,-0.006,0.037,-1.462,0.213,-0.339,-49.643,8.748,40.142
1747600803.20,0.055,-0.037,-0.006,-1.470,0.049,-0.277,-51.348,8.785,39.769
1747600803.22,0.135,-0.037,-0.006,-1.461,-0.080,-0.259,-53.052,8.710,39.478
1747600803.24,0.140,0.002,0.019,-1.442,-0.135,-0.304,-54.736,8.487,39.114
1747600803.26,0.052,0.015,0.022,-1.509,-0.170,-0.358,-56.463,8.098,38.597
1747600803.28,-0.006,-0.021,0.019,-1.574,-0.236,-0.267,-58.254,7.697,38.122
1747600803.30,0.028,-0.021,0.042,-1.531,-0.238,-0.308,-60.068,7.279,37.699
1747600803.32,0.031,-0.008,0.025,-1.392,-0.295,-0.407,-61.778,6.606,36.986
1747600803.34,-0.023,-0.018,-0.014,-1.384,-0.244,-0.417,-63.390,5.713,36.042
1747600803.36,-0.042,-0.082,-0.051,-1.461,-0.094,-0.409,-65.057,4.825,34.978
1747600803.38,0.054,-0.100,0.015,-1.426,-0.074,-0.311,-66.739,4.159,34.040
1747600803.40,0.040,0.010,-0.003,-1.382,-0.113,-0.434,-68.374,3.306,32.940
1747600803.42,-0.039,0.009,0.042,-1.263,-0.048,-0.417,-69.910,2.063,31.426
1747600803.44,-0.018,-0.044,0.003,-1.207,0.066,-0.369,-71.313,0.917,29.852
1747600803.46,-0.036,-0.050,-0.038,-1.268,0.133,-0.437,-72.732,-0.351,28.055
1747600803.48,0.000,-0.045,-0.006,-1.257,0.261,-0.413,-74.163,-1.910,25.819
1747600803.50,0.033,-0.019,0.082,-1.194,0.118,-0.324,-75.561,-3.380,23.693
1747600803.52,0.004,0.015,-0.006,-1.171,0.032,-0.362,-76.853,-5.368,21.225
1747600803.54,0.058,-0.021,0.032,-1.105,0.180,-0.352,-78.123,-7.750,18.253
1747600803.56,-0.033,0.009,-0.045,-1.067,0.201,-0.398,-79.230,-10.525,14.881
1747600803.58,-0.121,-0.026,0.114,-1.392,0.391,-0.388,-80.538,-14.506,10.077
1747600803.60,-0.020,-0.106,0.021,-1.204,0.200,-0.379,-81.846,-19.679,4.486
1747600803.62,0.125,0.004,-0.002,-1.042,0.047,-0.349,-82.857,-26.181,-2.215
1747600803.64,0.155,0.096,-0.032,-0.751,-0.031,-0.354,-83.563,-33.417,-9.483
1747600803.66,-0.032,0.085,-0.045,-0.653,0.077,-0.371,-83.906,-40.772,-16.920
1747600803.68,-0.207,-0.069,-0.034,-0.794,0.198,-0.333,-84.212,-48.740,-25.060
1747600803.70,-0.185,-0.195,0.008,-0.992,0.571,-0.341,-84.497,-59.069,-35.863
1747600803.72,-0.055,-0.160,0.136,-1.078,0.706,-0.272,-84.682,-71.348,-48.989
1747600803.74,0.045,-0.009,0.021,-0.902,0.519,-0.167,-84.676,-83.482,-61.894
1747600803.76,0.125,0.112,-0.072,-0.540,0.412,-0.175,-84.530,-91.693,-70.677
1747600803.78,0.053,0.111,-0.130,-0.321,0.089,-0.208,-84.273,-96.086,-75.398
1747600803.80,-0.036,0.009,-0.175,-0.235,-0.234,-0.206,-84.005,-98.866,-78.078
1747600803.82,-0.032,-0.030,-0.100,-0.216,-0.193,-0.162,-83.742,-101.137,-80.102
1747600803.84,-0.003,0.008,-0.009,-0.233,-0.080,-0.048,-83.574,-103.344,-82.159
1747600803.86,0.014,0.001,0.035,-0.219,0.095,0.010,-83.494,-105.503,-84.343
1747600803.88,-0.006,-0.022,0.032,-0.127,0.202,-0.013,-83.433,-107.089,-86.120
1747600803.90,-0.027,0.021,-0.010,-0.022,0.286,-0.019,-83.398,-107.403,-86.731
1747600803.92,-0.054,0.050,0.001,-0.031,0.082,-0.018,-83.371,-107.189,-86.753
1747600803.94,-0.060,-0.023,0.035,-0.153,-0.011,-0.016,-83.323,-107.963,-87.545
1747600803.96,-0.014,-0.063,0.087,-0.195,0.035,0.001,-83.240,-109.659,-89.262
1747600803.98,0.031,-0.049,0.056,-0.153,0.052,-0.024,-83.166,-111.164,-90.842
1747600804.00,0.017,0.039,0.031,-0.050,-0.068,-0.075,-83.064,-111.864,-91.534
1747600804.02,-0.006,0.071,0.020,0.046,-0.197,-0.055,-82.974,-111.752,-91.267
1747600804.04,-0.013,-0.005,-0.005,-0.009,-0.225,-0.033,-82.937,-111.703,-90.958
1747600804.06,-0.010,-0.053,0.022,-0.114,-0.040,-0.043,-82.863,-112.466,-91.548
1747600804.08,0.006,-0.031,0.059,-0.131,0.136,-0.015,-82.776,-113.393,-92.559
1747600804.10,-0.036,0.023,0.024,-0.080,0.117,-0.015,-82.717,-114.135,-93.462
1747600804.12,-0.061,0.035,0.001,-0.057,0.072,-0.031,-82.664,-114.458,-93.892
1747600804.14,-0.028,-0.006,0.020,-0.069,0.084,-0.040,-82.586,-114.761,-94.287
1747600804.16,0.005,-0.021,0.040,-0.032,0.061,-0.002,-82.530,-115.176,-94.791
1747600804.18,0.011,-0.028,0.032,-0.041,0.037,0.020,-82.516,-115.475,-95.144
1747600804.20,0.017,-0.026,0.034,-0.068,0.015,0.019,-82.493,-115.893,-95.600
1747600804.22,0.016,0.020,0.004,-0.022,-0.036,0.004,-82.461,-116.336,-96.039
1747600804.24,0.018,0.036,-0.026,0.071,-0.086,0.034,-82.476,-116.435,-96.066
1747600804.26,0.006,-0.010,-0.016,0.040,-0.093,0.051,-82.551,-116.330,-95.850
1747600804.28,-0.000,-0.037,0.029,-0.019,-0.072,0.032,-82.588,-116.796,-96.217
1747600804.30,-0.001,-0.020,0.040,0.013,0.015,0.042,-82.616,-117.147,-96.536
1747600804.32,-0.022,0.014,0.039,0.122,0.018,0.086,-82.729,-116.725,-96.150
1747600804.34,-0.046,-0.007,-0.008,0.123,-0.050,0.086,-82.907,-115.899,-95.285
1747600804.36,-0.023,-0.021,0.033,0.076,0.061,0.044,-83.003,-115.510,-94.894
1747600804.38,0.013,0.014,0.034,0.093,0.076,0.048,-83.068,-115.102,-94.570
1747600804.40,0.049,0.018,0.010,0.104,-0.027,0.055,-83.150,-114.634,-94.126
1747600804.42,0.038,-0.002,0.025,0.117,-0.117,0.053,-83.240,-114.020,-93.417
1747600804.44,0.008,-0.013,0.006,0.134,-0.149,0.042,-83.336,-113.199,-92.434
1747600804.46,-0.023,-0.007,0.018,0.155,-0.130,0.032,-83.425,-112.412,-91.473
1747600804.48,-0.026,0.012,-0.001,0.190,-0.079,0.032,-83.542,-111.180,-90.103
1747600804.50,-0.027,0.020,-0.005,0.215,0.019,0.044,-83.671,-109.538,-88.415
1747600804.52,-0.029,0.016,0.018,0.222,0.013,0.101,-83.826,-107.688,-86.589
1747600804.54,-0.059,-0.011,0.035,0.223,-0.007,0.118,-84.019,-105.846,-84.728
1747600804.56,-0.051,-0.035,0.056,0.218,0.043,0.102,-84.192,-103.870,-82.760
1747600804.58,-0.000,-0.035,0.058,0.283,-0.024,0.120,-84.354,-101.478,-80.383
1747600804.60,0.039,0.012,-0.004,0.395,-0.220,0.118,-84.539,-98.065,-76.813
1747600804.62,0.030,0.037,-0.023,0.516,-0.337,0.152,-84.731,-93.065,-71.457
1747600804.64,0.005,0.011,0.009,0.586,-0.312,0.174,-84.917,-86.351,-64.338
1747600804.66,-0.033,-0.009,0.033,0.630,-0.362,0.177,-85.030,-78.686,-56.266
1747600804.68,-0.048,0.006,-0.023,0.737,-0.292,0.163,-85.006,-69.887,-47.041
1747600804.70,-0.028,-0.000,0.018,0.834,-0.133,0.171,-84.793,-59.985,-36.874
1747600804.72,-0.018,-0.027,0.022,0.834,-0.168,0.203,-84.425,-50.570,-27.252
1747600804.74,-0.020,-0.016,-0.009,0.963,-0.244,0.264,-83.906,-41.780,-18.189
1747600804.76,-0.090,0.034,0.009,0.956,-0.202,0.271,-83.225,-33.876,-9.931
1747600804.78,-0.054,-0.036,0.084,0.964,0.183,0.249,-82.439,-27.426,-3.428
1747600804.80,-0.007,-0.051,0.090,1.005,0.262,0.169,-81.509,-22.168,1.582
1747600804.82,0.044,0.012,0.062,0.980,-0.126,0.224,-80.522,-18.324,4.971
1747600804.84,0.034,0.028,0.031,0.910,-0.146,0.246,-79.567,-15.241,7.507
1747600804.86,0.036,-0.023,0.099,0.887,0.054,0.253,-78.634,-12.538,9.961
1747600804.88,0.028,0.007,0.110,0.845,0.024,0.235,-77.731,-10.258,11.898
1747600804.90,0.029,0.034,0.085,0.865,-0.081,0.273,-76.799,-8.315,13.596
1747600804.92,0.005,0.036,0.066,0.919,-0.206,0.294,-75.840,-6.639,15.202
1747600804.94,-0.022,-0.012,-0.012,0.893,-0.061,0.279,-74.844,-5.121,16.655
1747600804.96,-0.097,-0.026,0.013,0.923,-0.006,0.181,-73.834,-3.935,17.666
1747600804.98,-0.106,-0.038,-0.011,1.006,0.186,0.169,-72.760,-2.966,18.323
1747600805.00,0.021,-0.051,-0.006,1.101,0.370,0.272,-71.551,-1.708,19.046
1747600805.02,0.036,-0.031,-0.028,0.979,0.221,0.349,-70.351,-0.238,19.986
1747600805.04,-0.052,-0.021,-0.052,0.845,0.503,0.369,-69.310,1.221,20.936
1747600805.06,0.031,-0.062,0.087,0.919,0.492,0.280,-68.320,2.760,21.665
1747600805.08,0.029,-0.039,-0.051,1.116,0.126,0.232,-67.134,3.622,22.138
1747600805.10,0.077,-0.016,-0.055,1.214,0.233,0.161,-65.760,4.126,22.458
1747600805.12,0.020,0.012,-0.071,1.003,0.349,0.154,-64.494,4.613,22.649
1747600805.13,-0.057,-0.033,0.054,0.877,0.367,0.266,-63.386,5.294,22.931
1747600805.16,0.064,-0.051,0.051,0.856,0.218,0.332,-62.401,6.178,23.497
1747600805.17,0.153,-0.036,-0.074,1.165,-0.127,0.297,-61.223,6.627,24.002
1747600805.20,0.117,0.013,-0.048,1.324,-0.110,0.160,-59.743,6.643,24.185
1747600805.22,-0.118,0.011,0.010,1.126,0.098,0.120,-58.304,6.634,24.177
1747600805.23,-0.221,-0.037,-0.024,0.904,0.202,0.283,-57.153,6.886,24.293
1747600805.25,0.097,-0.061,0.057,0.961,0.013,0.426,-56.067,7.526,24.832
1747600805.27,0.219,0.013,0.007,1.148,-0.306,0.417,-54.796,7.842,25.423
1747600805.29,0.038,0.049,-0.058,1.215,-0.341,0.235,-53.394,7.653,25.729
1747600805.31,-0.021,0.038,0.071,1.101,-0.178,0.144,-52.042,7.445,25.792
1747600805.33,-0.035,-0.079,-0.088,0.907,-0.122,0.228,-50.892,7.317,25.866
1747600805.35,0.014,-0.176,0.008,0.894,-0.036,0.367,-49.836,7.510,26.222
1747600805.37,-0.010,-0.049,0.014,1.052,-0.095,0.281,-48.690,7.673,26.571
1747600805.39,-0.048,0.122,0.070,1.108,0.091,0.157,-47.412,7.768,26.700
1747600805.41,-0.060,0.149,0.065,0.989,0.181,0.094,-46.198,7.922,26.642
1747600805.43,0.043,0.019,0.024,0.838,0.046,0.306,-45.151,8.125,26.751
1747600805.45,0.191,0.008,0.057,0.830,-0.236,0.452,-44.156,8.322,27.190
1747600805.47,0.113,0.140,0.006,1.056,-0.383,0.358,-43.037,8.258,27.630
1747600805.49,-0.045,0.190,0.124,1.110,-0.252,0.128,-41.736,7.988,27.781
1747600805.51,-0.156,0.016,-0.118,0.954,-0.104,0.072,-40.551,7.725,27.675
1747600805.53,-0.075,-0.167,-0.012,0.861,0.040,0.237,-39.508,7.754,27.724
1747600805.55,0.001,-0.091,0.038,0.864,-0.058,0.214,-38.501,7.862,27.908
1747600805.57,-0.060,0.147,0.011,1.047,-0.148,0.111,-37.397,7.736,27.943
1747600805.59,0.011,0.186,0.159,1.180,-0.238,-0.045,-36.120,7.456,27.785
1747600805.61,-0.001,-0.013,-0.138,1.064,-0.298,-0.037,-34.855,6.937,27.505
1747600805.63,0.029,-0.189,0.030,1.022,-0.199,0.147,-33.675,6.606,27.407
1747600805.65,0.054,-0.163,0.040,1.012,-0.224,0.200,-32.501,6.436,27.504
1747600805.67,0.086,-0.022,0.056,1.075,-0.279,0.212,-31.287,6.194,27.626
1747600805.69,0.177,0.016,0.003,1.044,-0.136,0.131,-30.064,6.004,27.707
1747600805.71,0.037,-0.025,-0.045,0.931,0.004,0.241,-28.928,5.966,27.788
1747600805.73,-0.050,-0.028,0.022,0.926,0.069,0.339,-27.847,6.152,28.064
1747600805.75,0.014,0.073,0.047,1.014,-0.092,0.235,-26.716,6.279,28.308
1747600805.77,0.113,0.128,0.028,1.069,-0.358,0.158,-25.494,6.065,28.530
1747600805.79,0.096,0.107,-0.055,1.015,-0.400,0.204,-24.275,5.624,28.844
1747600805.81,0.026,0.012,-0.086,0.893,-0.236,0.205,-23.161,5.325,29.219
1747600805.83,-0.153,-0.051,0.014,0.847,-0.035,0.184,-22.172,5.236,29.619
1747600805.85,-0.094,-0.037,0.054,0.983,-0.005,0.017,-21.139,5.250,29.931
1747600805.87,0.020,0.040,-0.013,1.090,-0.175,-0.068,-19.938,5.092,30.048
1747600805.89,-0.030,0.029,-0.018,1.081,-0.141,-0.101,-18.694,4.801,30.061
1747600805.91,-0.052,-0.019,-0.076,0.886,-0.125,-0.054,-17.583,4.612,30.154
1747600805.93,-0.078,-0.046,-0.144,0.781,-0.092,-0.042,-16.654,4.417,30.228
1747600805.95,0.036,-0.035,-0.017,0.806,-0.047,-0.053,-15.755,4.315,30.408
1747600805.97,0.196,0.029,0.008,0.784,-0.080,0.051,-14.854,4.221,30.588
1747600805.99,0.041,0.012,0.098,0.785,0.047,0.252,-13.949,4.209,30.947
1747600806.01,0.027,0.158,0.132,0.715,0.150,0.339,-13.057,4.416,31.489
1747600806.03,0.036,0.102,-0.199,0.706,-0.067,0.276,-12.211,4.524,32.040
1747600806.05,0.010,-0.109,-0.135,0.691,-0.033,0.094,-11.415,4.508,32.456
1747600806.07,-0.135,-0.116,-0.044,0.705,0.124,-0.002,-10.618,4.545,32.699
1747600806.09,-0.150,0.034,0.065,0.647,0.207,-0.003,-9.838,4.733,32.911
1747600806.11,-0.139,0.189,-0.017,0.567,0.221,-0.005,-9.148,4.979,33.107
1747600806.13,0.026,0.073,-0.176,0.550,-0.021,-0.170,-8.517,5.090,33.262
1747600806.15,0.136,-0.028,-0.182,0.494,-0.147,-0.186,-7.938,4.923,33.249
1747600806.17,-0.016,-0.099,-0.086,0.450,0.018,-0.136,-7.419,4.810,33.249
1747600806.19,-0.024,0.026,0.038,0.366,0.060,-0.103,-6.962,4.846,33.297
1747600806.21,0.086,0.032,-0.037,0.313,0.025,-0.021,-6.583,4.894,33.429
1747600806.23,0.204,-0.008,-0.080,0.247,-0.121,0.036,-6.261,4.834,33.648
1747600806.25,0.082,-0.027,-0.094,0.212,-0.111,0.074,-5.999,4.679,33.913
1747600806.27,-0.017,-0.080,-0.016,0.195,0.070,0.075,-5.750,4.680,34.200
1747600806.29,-0.048,-0.024,-0.022,0.155,0.099,0.077,-5.546,4.790,34.500
1747600806.31,0.011,0.043,-0.062,0.114,0.018,0.063,-5.388,4.878,34.793
1747600806.33,0.008,0.008,-0.101,0.083,-0.061,0.034,-5.272,4.848,35.050
1747600806.35,0.006,-0.022,-0.031,0.094,-0.107,0.021,-5.167,4.758,35.289
1747600806.37,-0.002,-0.005,0.023,0.124,-0.042,-0.010,-5.038,4.664,35.496
1747600806.39,-0.016,-0.033,-0.033,0.111,0.043,-0.007,-4.905,4.653,35.679
1747600806.41,-0.005,-0.020,-0.047,0.055,0.039,0.013,-4.816,4.727,35.866
1747600806.43,0.042,0.013,-0.055,0.033,-0.090,0.041,-4.761,4.700,36.091
1747600806.45,0.102,0.022,-0.009,0.058,-0.152,0.075,-4.711,4.554,36.343
1747600806.47,-0.023,0.013,0.038,0.059,-0.050,0.083,-4.627,4.432,36.602
1747600806.49,-0.084,-0.003,0.006,0.060,0.096,0.085,-4.547,4.467,36.867
1747600806.51,-0.001,-0.019,-0.042,0.055,0.029,0.064,-4.474,4.573,37.116
1747600806.53,0.070,0.028,-0.026,0.057,-0.070,0.046,-4.405,4.565,37.346
1747600806.55,-0.004,-0.009,-0.045,0.047,-0.102,0.059,-4.346,4.456,37.566
1747600806.57,-0.044,0.018,-0.020,0.060,-0.001,0.047,-4.287,4.387,37.806
1747600806.59,-0.058,0.009,0.023,0.078,0.063,0.018,-4.203,4.428,37.999
1747600806.61,-0.004,0.002,0.029,0.087,-0.025,-0.002,-4.113,4.470,38.157
1747600806.63,0.049,0.035,-0.004,0.103,-0.060,-0.021,-3.998,4.415,38.303
1747600806.65,-0.003,0.016,-0.049,0.113,-0.009,-0.024,-3.879,4.357,38.431
1747600806.67,-0.033,-0.008,0.023,0.135,0.023,-0.027,-3.748,4.364,38.543
1747600806.69,0.017,-0.004,0.035,0.184,0.001,-0.016,-3.575,4.370,38.812
1747600806.71,0.041,0.006,0.042,0.214,0.020,-0.010,-3.365,4.389,38.929
1747600806.73,0.014,-0.010,0.019,0.234,0.057,0.008,-3.121,4.441,39.054
1747600806.75,0.017,-0.000,-0.013,0.236,0.057,0.041,-2.858,4.490,39.211
1747600806.77,0.021,0.027,0.011,0.238,0.037,0.049,-2.589,4.547,39.377
1747600806.79,0.023,0.012,-0.005,0.273,0.018,0.058,-2.305,4.602,39.530
1747600806.81,0.020,0.014,-0.052,0.238,0.012,0.010,-2.027,4.631,39.669
1747600806.83,-0.046,0.012,-0.065,0.187,0.019,0.028,-1.790,4.650,39.797
1747600806.85,-0.010,0.066,-0.030,0.191,0.029,0.021,-1.588,4.683,39.941
1747600806.87,-0.017,0.067,-0.062,0.110,0.057,-0.005,-1.430,4.737,40.059
1747600806.89,-0.031,0.017,-0.172,0.011,0.049,-0.024,-1.368,4.811,40.186
1747600806.91,-0.011,0.034,-0.168,-0.059,0.028,-0.009,-1.396,4.838,40.286
1747600806.93,-0.019,0.052,-0.104,-0.165,0.079,0.008,-1.529,4.896,40.428
1747600806.95,-0.018,0.054,-0.167,-0.339,0.159,-0.008,-1.820,5.026,40.585
1747600806.97,0.007,-0.018,-0.224,-0.473,0.120,-0.029,-2.284,5.199,40.751
1747600806.99,0.102,-0.019,-0.187,-0.611,-0.024,-0.046,-2.902,5.257,40.913
1747600807.01,0.086,-0.074,-0.181,-0.793,-0.090,-0.034,-3.693,5.196,41.087
1747600807.03,0.031,-0.067,-0.226,-0.904,-0.038,0.048,-4.666,5.103,41.319
1747600807.05,0.017,-0.005,-0.126,-1.003,0.048,0.069,-5.750,5.127,41.639
1747600807.07,0.041,0.013,-0.112,-1.111,0.041,0.047,-6.940,5.209,41.935
1747600807.09,0.029,-0.038,-0.136,-1.205,-0.037,0.036,-8.257,5.231,42.215
1747600807.11,0.046,-0.077,-0.111,-1.282,-0.020,0.018,-9.666,5.220,42.507
1747600807.13,0.026,-0.101,-0.067,-1.298,0.035,-0.001,-11.137,5.246,42.763
1747600807.15,0.001,-0.141,-0.032,-1.304,0.068,-0.028,-12.613,5.349,42.994
1747600807.17,-0.006,-0.165,0.000,-1.324,0.130,-0.031,-14.102,5.474,43.180
1747600807.19,0.016,-0.186,-0.039,-1.333,0.218,-0.052,-15.627,5.690,43.345
1747600807.21,-0.006,-0.172,0.025,-1.299,0.323,-0.065,-17.123,6.046,43.514
1747600807.23,-0.092,-0.108,-0.006,-1.315,0.264,-0.163,-18.626,6.381,43.604
1747600807.25,-0.036,-0.097,-0.034,-1.337,0.226,-0.191,-20.154,6.664,43.602
1747600807.27,-0.003,-0.116,-0.017,-1.343,0.199,-0.220,-21.703,6.858,43.577
1747600807.29,-0.046,-0.091,0.019,-1.371,0.296,-0.300,-23.279,7.091,43.480
1747600807.31,-0.099,-0.072,0.021,-1.435,0.320,-0.302,-24.905,7.399,43.330
1747600807.33,0.014,-0.066,0.003,-1.483,0.338,-0.167,-26.604,7.742,43.288
1747600807.35,0.155,0.011,0.014,-1.447,0.221,-0.167,-28.300,8.099,43.329
1747600807.37,0.133,0.052,0.008,-1.411,0.045,-0.188,-29.932,8.266,43.333
1747600807.39,0.056,-0.002,-0.070,-1.434,-0.056,-0.196,-31.569,8.250,43.327
1747600807.41,-0.010,-0.080,0.072,-1.417,-0.043,-0.169,-33.218,8.213,43.308
1747600807.43,-0.008,-0.120,0.026,-1.426,0.034,-0.138,-34.842,8.251,43.327
1747600807.45,0.063,-0.115,-0.049,-1.464,0.109,-0.111,-36.495,8.403,43.369
1747600807.47,0.077,-0.095,-0.057,-1.519,0.028,-0.077,-38.196,8.586,43.472
1747600807.49,0.043,-0.063,-0.004,-1.514,0.011,-0.074,-39.928,8.749,43.623
1747600807.51,-0.004,-0.040,-0.004,-1.502,-0.026,-0.149,-41.645,8.854,43.703
1747600807.53,-0.021,-0.061,-0.008,-1.456,0.034,-0.181,-43.342,8.944,43.664
1747600807.55,-0.034,-0.103,-0.050,-1.490,0.113,-0.182,-45.030,9.060,43.602
1747600807.57,-0.014,-0.094,0.005,-1.507,0.160,-0.188,-46.760,9.274,43.538
1747600807.59,0.079,-0.038,-0.010,-1.489,0.083,-0.149,-48.477,9.578,43.578
1747600807.61,0.043,0.040,-0.020,-1.419,-0.012,-0.280,-50.149,9.660,43.418
1747600807.63,-0.013,0.062,0.024,-1.386,-0.102,-0.390,-51.793,9.445,43.008
1747600807.65,-0.064,-0.012,0.041,-1.412,-0.008,-0.386,-53.432,9.129,42.465
1747600807.67,0.000,-0.054,-0.010,-1.488,0.020,-0.377,-55.140,8.918,41.955
1747600807.69,0.074,-0.009,0.038,-1.487,-0.103,-0.325,-56.882,8.665,41.444
1747600807.71,0.113,0.067,0.058,-1.420,-0.206,-0.323,-58.583,8.312,40.982
1747600807.73,0.033,0.110,0.040,-1.346,-0.246,-0.458,-60.210,7.682,40.299
1747600807.75,-0.074,0.027,0.016,-1.367,-0.211,-0.529,-61.810,6.743,39.250
1747600807.77,-0.081,-0.131,0.025,-1.332,-0.091,-0.469,-63.408,5.787,38.084
1747600807.79,-0.047,-0.122,0.006,-1.318,-0.005,-0.436,-64.961,4.981,36.937
1747600807.81,-0.019,-0.021,0.012,-1.329,0.064,-0.416,-66.500,4.200,35.752
1747600807.83,0.023,0.010,0.015,-1.205,0.178,-0.437,-67.980,3.380,34.402
1747600807.85,0.055,-0.056,-0.050,-1.216,0.212,-0.416,-69.382,2.557,32.956
1747600807.87,0.073,-0.081,-0.040,-1.196,0.118,-0.364,-70.766,1.641,31.428
1747600807.89,0.067,-0.033,0.001,-1.137,0.104,-0.344,-72.119,0.664,29.943
1747600807.91,0.056,0.004,0.019,-1.116,0.045,-0.318,-73.399,-0.425,28.339
1747600807.93,-0.005,-0.014,0.017,-1.123,-0.024,-0.322,-74.676,-1.833,26.509
1747600807.95,-0.005,-0.054,-0.007,-1.087,0.101,-0.317,-75.904,-3.430,24.489
1747600807.97,-0.039,-0.022,0.025,-1.126,0.107,-0.350,-77.140,-5.272,22.073
1747600807.99,-0.065,0.006,-0.018,-1.002,0.059,-0.302,-78.326,-7.517,19.386
1747600808.01,0.043,-0.014,0.014,-0.935,0.265,-0.271,-79.359,-9.859,16.463
1747600808.03,0.063,-0.020,0.028,-0.967,0.273,-0.237,-80.358,-12.172,13.428
1747600808.05,-0.036,-0.003,0.017,-1.024,0.148,-0.312,-81.397,-15.627,9.323
1747600808.07,-0.112,-0.046,-0.001,-0.997,0.092,-0.365,-82.367,-20.611,3.817
1747600808.09,0.003,-0.048,-0.011,-0.968,0.236,-0.348,-83.224,-27.068,-2.884
1747600808.11,0.094,0.023,-0.002,-0.851,0.196,-0.278,-83.964,-34.180,-10.285
1747600808.13,0.007,0.046,0.029,-0.847,0.115,-0.288,-84.500,-42.450,-18.799
1747600808.15,-0.078,-0.019,-0.012,-0.880,0.249,-0.288,-84.930,-52.571,-29.137
1747600808.17,0.008,-0.060,-0.014,-0.774,0.351,-0.279,-85.160,-63.484,-40.445
1747600808.19,0.071,-0.012,0.038,-0.766,0.215,-0.225,-85.221,-74.198,-51.546
1747600808.21,0.045,-0.010,-0.024,-0.605,0.034,-0.254,-85.090,-83.760,-61.279
1747600808.23,-0.032,-0.007,-0.055,-0.461,0.063,-0.242,-84.852,-90.662,-68.219
1747600808.25,-0.082,0.034,0.004,-0.410,0.274,-0.251,-84.535,-95.734,-73.520
1747600808.27,-0.101,0.053,-0.000,-0.303,0.335,-0.209,-84.220,-98.998,-77.159
1747600808.29,-0.090,0.003,0.011,-0.318,0.298,-0.079,-84.008,-101.739,-80.271
1747600808.31,-0.047,-0.081,0.063,-0.329,0.431,-0.094,-83.841,-104.439,-83.413
1747600808.33,0.011,-0.062,0.080,-0.319,0.356,-0.123,-83.613,-107.043,-86.501
1747600808.35,0.078,0.054,0.032,-0.155,0.241,-0.141,-83.374,-108.632,-88.438
1747600808.36,0.105,0.081,-0.000,0.045,-0.017,-0.042,-83.252,-108.676,-88.630
1747600808.38,0.040,0.027,-0.047,0.052,-0.318,-0.001,-83.262,-108.207,-87.955
1747600808.40,-0.062,-0.038,-0.039,-0.011,-0.327,-0.039,-83.246,-108.396,-87.735
1747600808.42,-0.059,-0.032,0.019,-0.095,0.040,-0.028,-83.187,-108.931,-88.107
1747600808.44,-0.052,-0.004,0.045,-0.083,0.211,-0.027,-83.124,-109.559,-88.906
1747600808.46,-0.031,-0.005,0.016,-0.062,0.144,-0.014,-83.073,-109.852,-89.420
1747600808.48,-0.004,-0.031,0.010,-0.057,0.092,-0.012,-83.036,-110.208,-89.909
1747600808.50,0.004,-0.013,-0.005,0.027,0.071,-0.005,-83.010,-110.182,-89.976
1747600808.52,-0.030,0.024,-0.031,0.080,0.070,0.010,-83.019,-109.706,-89.579
1747600808.54,-0.060,0.011,-0.020,0.093,-0.016,0.006,-83.047,-108.934,-88.845
1747600808.56,-0.039,0.002,-0.041,0.091,-0.092,0.006,-83.076,-108.263,-88.087
1747600808.58,0.027,0.002,0.009,0.094,-0.049,0.013,-83.118,-107.622,-87.357
1747600808.60,0.055,-0.011,0.036,0.136,0.032,0.045,-83.181,-106.567,-86.284
1747600808.62,0.035,0.004,0.035,0.114,-0.023,0.043,-83.256,-105.373,-85.109
1747600808.64,-0.044,-0.001,0.012,0.095,-0.088,0.046,-83.334,-104.428,-84.084
1747600808.66,-0.076,-0.005,-0.002,0.070,-0.073,0.004,-83.385,-103.837,-83.383
1747600808.68,-0.048,-0.024,0.012,0.051,0.056,-0.013,-83.403,-103.317,-82.850
1747600808.70,0.012,-0.019,0.016,0.101,0.077,0.002,-83.422,-102.670,-82.283
1747600808.72,0.034,0.012,0.002,0.149,-0.074,0.063,-83.474,-101.536,-81.161
1747600808.74,0.024,0.004,0.005,0.190,-0.276,0.114,-83.605,-100.266,-79.674
1747600808.76,-0.002,-0.009,0.011,0.266,-0.357,0.100,-83.754,-98.596,-77.630
1747600808.78,-0.030,0.042,-0.020,0.413,-0.429,0.098,-83.912,-95.778,-74.322
1747600808.80,-0.046,0.035,0.001,0.529,-0.262,0.127,-84.077,-91.040,-69.162
1747600808.82,-0.061,-0.028,0.071,0.444,-0.224,0.145,-84.219,-85.754,-63.582
1747600808.84,-0.037,-0.071,0.091,0.461,-0.246,0.156,-84.330,-80.956,-58.488
1747600808.86,-0.002,-0.031,0.045,0.685,-0.447,0.234,-84.407,-74.347,-51.479
1747600808.88,-0.053,0.074,0.003,0.762,-0.761,0.276,-84.399,-65.931,-42.310
1747600808.90,-0.079,0.033,-0.007,0.763,-0.602,0.211,-84.241,-57.694,-33.203
1747600808.92,-0.055,-0.051,0.060,0.804,-0.151,0.141,-83.869,-50.042,-25.080
1747600808.94,-0.013,-0.062,0.100,0.871,-0.085,0.216,-83.341,-42.804,-17.714
1747600808.96,0.012,-0.013,0.020,1.040,-0.114,0.301,-82.706,-35.449,-10.171
1747600808.98,-0.014,0.051,0.003,1.124,-0.265,0.374,-81.823,-28.300,-3.168
1747600809.00,-0.029,0.002,-0.057,1.078,-0.027,0.351,-80.888,-22.490,2.587
1747600809.02,0.096,-0.113,0.091,1.033,0.392,0.276,-79.865,-17.815,6.709
1747600809.04,0.105,-0.069,0.059,1.101,0.213,0.298,-78.809,-14.060,9.806
1747600809.06,0.011,0.075,-0.002,1.210,0.020,0.373,-77.572,-10.778,12.664
1747600809.08,-0.100,0.086,0.069,1.080,0.109,0.366,-76.339,-7.958,15.182
1747600809.10,-0.169,-0.061,0.038,0.932,0.290,0.296,-75.253,-5.737,16.946
1747600809.12,-0.046,-0.146,0.055,0.922,0.507,0.285,-74.239,-3.708,18.217
1747600809.14,0.078,-0.036,0.009,1.053,0.175,0.357,-73.117,-1.903,19.359
1747600809.16,0.111,0.100,-0.064,1.004,0.035,0.401,-71.948,-0.318,20.678
1747600809.18,0.020,0.046,-0.007,0.842,0.051,0.377,-70.893,1.036,21.757
1747600809.20,-0.040,-0.069,0.023,0.822,0.118,0.346,-69.940,2.228,22.660
1747600809.22,-0.010,-0.057,0.007,0.936,0.046,0.284,-68.935,3.177,23.335
1747600809.24,-0.000,0.028,-0.025,1.097,-0.013,0.237,-67.736,3.749,23.703
1747600809.26,-0.066,0.069,0.048,0.967,0.130,0.220,-66.526,4.233,23.945
1747600809.28,-0.187,0.001,0.008,0.826,0.213,0.267,-65.480,4.844,24.205
1747600809.30,-0.082,-0.048,0.062,0.796,0.274,0.367,-64.548,5.755,24.676
1747600809.32,0.168,-0.019,0.002,0.993,-0.033,0.281,-63.519,6.463,25.110
1747600809.34,0.158,0.015,-0.013,1.184,-0.053,0.224,-62.209,6.617,25.395
1747600809.36,0.034,0.001,0.007,1.036,0.138,0.181,-60.888,6.847,25.577
1747600809.38,-0.168,-0.046,-0.036,0.776,0.330,0.301,-59.818,7.287,25.794
1747600809.40,0.078,-0.092,0.091,0.733,0.250,0.507,-58.939,8.313,26.534
1747600809.42,0.295,0.003,0.045,1.031,-0.195,0.448,-57.879,9.015,27.285
1747600809.44,0.139,0.093,-0.054,1.226,-0.316,0.256,-56.505,8.975,27.664
1747600809.46,-0.136,0.053,-0.068,1.047,-0.110,0.003,-55.169,8.627,27.535
1747600809.48,-0.220,-0.073,0.012,0.832,0.061,0.138,-54.129,8.443,27.330
1747600809.50,0.110,-0.130,0.076,0.844,-0.076,0.349,-53.156,8.679,27.602
1747600809.52,0.194,0.050,0.047,1.079,-0.268,0.252,-52.021,8.735,27.929
1747600809.54,0.003,0.172,-0.002,1.242,-0.120,0.110,-50.660,8.469,27.907
1747600809.56,-0.146,0.088,-0.035,0.973,0.152,0.017,-49.368,8.358,27.736
1747600809.58,-0.100,-0.127,-0.081,0.757,0.173,0.159,-48.400,8.462,27.620
1747600809.60,0.136,-0.159,0.086,0.755,-0.048,0.303,-47.524,8.746,27.857
1747600809.62,0.159,0.104,0.090,0.915,-0.245,0.296,-46.533,8.764,28.161
1747600809.64,0.074,0.230,0.138,1.091,-0.152,0.219,-45.346,8.653,28.322
1747600809.66,0.035,0.095,-0.001,0.959,-0.155,0.180,-44.137,8.527,28.386
1747600809.68,0.096,-0.169,-0.135,0.820,-0.135,0.350,-43.097,8.486,28.561
1747600809.70,0.135,-0.249,0.039,0.788,-0.242,0.498,-42.128,8.620,29.061
1747600809.72,-0.026,-0.013,-0.018,0.904,-0.300,0.402,-41.103,8.643,29.570
1747600809.74,-0.085,0.134,0.036,1.098,-0.267,0.186,-39.912,8.450,29.784
1747600809.76,0.017,0.093,0.003,1.078,-0.311,-0.005,-38.641,8.059,29.667
1747600809.78,-0.042,-0.051,-0.135,0.918,-0.215,0.114,-37.517,7.598,29.494
1747600809.80,-0.056,-0.132,0.079,0.839,-0.017,0.296,-36.501,7.566,29.652
1747600809.82,-0.095,0.033,0.014,0.860,-0.017,0.196,-35.518,7.692,29.860
1747600809.84,0.006,0.216,0.100,1.030,-0.094,0.031,-34.427,7.634,29.846
1747600809.86,0.041,0.181,0.001,1.051,-0.339,-0.108,-33.238,7.254,29.596
1747600809.88,-0.134,-0.015,-0.097,0.930,-0.238,-0.027,-32.130,6.737,29.317
1747600809.90,-0.129,-0.154,0.035,0.882,-0.003,0.046,-31.103,6.559,29.210
1747600809.92,-0.062,-0.064,0.006,0.888,-0.006,-0.029,-30.117,6.505,29.091
1747600809.94,0.127,0.070,0.053,0.979,-0.094,-0.057,-29.064,6.349,28.894
1747600809.96,0.111,0.097,0.040,0.928,-0.249,-0.069,-27.975,6.057,28.671
1747600809.98,-0.011,0.045,-0.014,0.883,-0.157,0.023,-26.957,5.721,28.517
1747600810.00,-0.036,-0.044,0.002,0.901,0.031,-0.019,-25.945,5.613,28.429
1747600810.02,-0.073,-0.078,0.004,0.903,0.107,-0.061,-24.925,5.629,28.376
1747600810.04,0.048,-0.042,-0.024,0.899,0.140,-0.041,-23.907,5.741,28.456
1747600810.06,0.065,0.053,0.001,0.798,-0.099,0.091,-22.938,5.724,28.617
1747600810.08,0.163,0.059,0.021,0.760,-0.165,0.219,-22.034,5.620,28.964
1747600810.10,0.106,-0.003,-0.009,0.824,-0.174,0.194,-21.109,5.464,29.355
1747600810.12,-0.006,-0.115,-0.033,0.942,0.093,0.146,-20.081,5.455,29.698
1747600810.14,-0.065,-0.144,-0.069,0.880,0.179,0.113,-19.007,5.627,29.974
1747600810.16,-0.011,-0.046,-0.022,0.689,0.157,0.175,-18.105,5.867,30.321
1747600810.18,0.079,0.110,-0.030,0.638,-0.104,0.115,-17.339,5.970,30.665
1747600810.20,0.027,0.044,-0.093,0.650,-0.221,0.068,-16.600,5.742,30.953
1747600810.22,0.038,-0.034,0.007,0.721,-0.114,0.009,-15.819,5.533,31.176
1747600810.24,-0.045,-0.037,0.023,0.685,0.111,0.071,-15.008,5.514,31.403
1747600810.26,0.010,-0.008,-0.035,0.586,0.191,0.172,-14.265,5.720,31.721
1747600810.28,0.030,0.126,-0.103,0.479,0.091,0.196,-13.643,5.940,32.126
1747600810.30,0.018,0.139,-0.059,0.491,-0.081,0.135,-13.090,5.986,32.527
1747600810.32,0.087,-0.018,-0.033,0.535,-0.224,0.033,-12.495,5.800,32.783
1747600810.34,0.045,-0.087,0.034,0.601,-0.068,0.003,-11.855,5.588,32.950
1747600810.36,-0.081,-0.066,0.046,0.567,0.153,0.122,-11.166,5.656,33.202
1747600810.38,-0.048,0.091,-0.052,0.531,0.204,0.179,-10.533,5.899,33.587
1747600810.40,-0.019,0.142,-0.035,0.516,0.005,0.062,-9.938,6.051,34.128
1747600810.42,0.013,0.023,-0.045,0.556,-0.182,-0.121,-9.335,5.913,34.307
1747600810.44,0.003,-0.057,0.007,0.618,-0.101,-0.203,-8.674,5.688,34.268
1747600810.46,-0.116,-0.036,0.009,0.576,0.123,-0.146,-8.010,5.656,34.230
1747600810.48,-0.085,0.072,-0.082,0.473,0.204,-0.099,-7.435,5.838,34.265
1747600810.50,0.004,0.034,-0.086,0.454,0.103,-0.135,-6.929,6.016,34.313
1747600810.52,0.101,-0.003,-0.074,0.434,-0.147,-0.146,-6.450,5.947,34.320
1747600810.54,0.085,-0.013,-0.035,0.425,-0.145,-0.155,-5.984,5.722,34.316
1747600810.56,-0.045,-0.021,0.021,0.390,0.090,-0.139,-5.528,5.675,34.308
1747600810.58,-0.039,-0.047,-0.071,0.303,0.142,-0.037,-5.153,5.810,34.380
1747600810.60,0.120,-0.017,-0.096,0.212,0.035,0.067,-4.855,5.926,34.593
1747600810.62,0.161,0.009,-0.127,0.150,-0.115,0.135,-4.635,5.883,34.891
1747600810.64,0.051,-0.005,-0.044,0.133,-0.058,0.146,-4.460,5.779,35.237
1747600810.66,-0.068,-0.007,-0.002,0.109,0.027,0.149,-4.306,5.775,35.586
1747600810.68,-0.039,0.002,-0.039,0.076,0.085,0.098,-4.183,5.857,35.908
1747600810.70,0.008,0.002,-0.136,0.013,-0.016,0.053,-4.121,5.913,36.169
1747600810.72,0.043,0.002,-0.103,-0.033,-0.170,0.062,-4.135,5.810,36.414
1747600810.74,0.011,0.040,-0.020,-0.061,-0.109,0.052,-4.174,5.638,36.658
1747600810.76,-0.061,-0.017,-0.076,-0.107,0.014,0.032,-4.269,5.577,36.878
1747600810.78,-0.009,-0.027,-0.054,-0.145,0.009,0.002,-4.417,5.614,37.066
1747600810.80,0.125,-0.046,-0.073,-0.202,-0.105,0.027,-4.600,5.573,37.283
1747600810.82,0.091,0.014,-0.096,-0.238,-0.147,0.082,-4.849,5.403,37.529
1747600810.84,-0.017,0.049,-0.039,-0.305,0.023,0.085,-5.142,5.366,37.833
1747600810.86,-0.064,-0.032,-0.083,-0.345,0.082,0.035,-5.502,5.433,38.096
1747600810.88,0.029,-0.098,-0.084,-0.428,-0.007,-0.027,-5.932,5.517,38.294
1747600810.90,0.049,-0.049,-0.178,-0.533,-0.149,0.041,-6.474,5.412,38.504
1747600810.92,0.043,-0.013,-0.111,-0.651,-0.035,0.076,-7.146,5.320,38.795
1747600810.94,0.003,-0.028,-0.093,-0.703,0.051,0.052,-7.906,5.361,39.100
1747600810.96,0.007,-0.057,-0.132,-0.795,0.019,0.036,-8.754,5.420,39.385
1747600810.98,-0.019,-0.046,-0.150,-0.914,0.028,-0.002,-9.735,5.465,39.658
1747600811.00,0.035,-0.054,-0.127,-0.983,0.014,-0.008,-10.817,5.502,39.913
1747600811.02,0.068,-0.062,-0.074,-1.033,-0.010,-0.022,-11.962,5.520,40.174
1747600811.04,0.048,-0.052,-0.052,-1.112,-0.004,-0.029,-13.187,5.533,40.388
1747600811.06,-0.056,-0.043,-0.054,-1.114,0.170,0.006,-14.468,5.626,40.610
1747600811.08,-0.002,-0.030,-0.028,-1.153,0.368,-0.019,-15.752,5.984,40.853
1747600811.10,0.001,-0.039,-0.027,-1.210,0.370,-0.062,-17.099,6.438,41.046
1747600811.12,0.017,-0.076,-0.041,-1.247,0.331,-0.095,-18.505,6.882,41.210
1747600811.14,-0.045,-0.057,-0.031,-1.305,0.295,-0.137,-19.964,7.230,41.327
1747600811.16,-0.030,-0.027,-0.013,-1.385,0.238,-0.158,-21.514,7.559,41.412
1747600811.18,-0.004,-0.017,-0.072,-1.436,0.213,-0.204,-23.142,7.825,41.475
1747600811.20,-0.029,-0.014,-0.027,-1.419,0.159,-0.301,-24.791,8.026,41.437
1747600811.22,-0.110,-0.050,-0.035,-1.379,0.142,-0.336,-26.427,8.111,41.308
1747600811.24,-0.008,-0.081,-0.010,-1.383,0.085,-0.338,-28.042,8.177,41.137
1747600811.26,0.019,-0.082,0.069,-1.377,-0.004,-0.297,-29.664,8.136,40.948
1747600811.28,0.021,-0.073,0.002,-1.344,-0.045,-0.231,-31.245,8.058,40.825
1747600811.30,0.057,-0.081,-0.020,-1.299,-0.035,-0.200,-32.768,8.003,40.749
1747600811.32,0.046,-0.104,-0.033,-1.299,0.044,-0.189,-34.259,7.988,40.680
1747600811.34,0.030,-0.140,-0.018,-1.414,0.119,-0.126,-35.824,8.105,40.630
1747600811.36,0.059,-0.166,0.002,-1.462,0.159,-0.046,-37.463,8.376,40.738
1747600811.38,0.039,-0.116,0.027,-1.464,0.116,-0.055,-39.122,8.693,40.898
1747600811.40,-0.002,-0.034,-0.018,-1.468,0.031,-0.126,-40.797,8.906,40.993
1747600811.42,-0.012,0.034,-0.023,-1.457,-0.065,-0.166,-42.464,8.965,41.009
1747600811.44,0.007,0.046,-0.021,-1.445,-0.117,-0.183,-44.138,8.924,40.934
1747600811.45,0.032,-0.002,-0.017,-1.416,-0.083,-0.162,-45.780,8.848,40.873
1747600811.47,0.048,-0.041,0.004,-1.428,0.037,-0.127,-47.398,8.902,40.848
1747600811.50,0.037,-0.042,0.049,-1.488,0.171,-0.179,-49.075,9.152,40.851
1747600811.51,-0.029,-0.003,0.075,-1.469,0.153,-0.200,-50.783,9.400,40.758
1747600811.53,-0.017,0.053,0.022,-1.473,0.049,-0.212,-52.481,9.594,40.661
1747600811.55,0.066,0.052,-0.014,-1.438,-0.072,-0.277,-54.165,9.595,40.470
1747600811.57,0.056,0.022,-0.019,-1.390,-0.278,-0.376,-55.820,9.228,40.060
1747600811.59,0.025,-0.014,0.025,-1.368,-0.245,-0.393,-57.442,8.634,39.480
1747600811.61,-0.027,-0.022,0.016,-1.417,-0.152,-0.398,-59.070,8.052,38.827
1747600811.63,-0.054,-0.013,0.090,-1.463,0.008,-0.386,-60.769,7.591,38.139
1747600811.65,0.015,-0.032,0.045,-1.416,-0.003,-0.320,-62.459,7.276,37.527
1747600811.67,0.096,-0.036,-0.028,-1.339,-0.120,-0.375,-64.063,6.832,36.861
1747600811.69,0.044,-0.019,-0.042,-1.382,-0.138,-0.455,-65.658,6.011,35.887
1747600811.71,-0.027,-0.005,-0.010,-1.390,-0.037,-0.458,-67.281,5.039,34.671
1747600811.73,-0.015,-0.004,0.067,-1.327,-0.032,-0.424,-68.879,4.100,33.415
1747600811.75,-0.004,-0.016,0.035,-1.257,-0.011,-0.392,-70.388,3.039,32.060
1747600811.77,0.043,-0.089,0.001,-1.189,0.120,-0.356,-71.784,2.000,30.588
1747600811.79,0.018,-0.108,-0.078,-1.155,0.080,-0.353,-73.130,0.986,29.071
1747600811.81,-0.058,-0.039,-0.065,-1.220,0.247,-0.446,-74.488,-0.380,27.142
1747600811.83,-0.030,-0.008,0.018,-1.229,0.215,-0.425,-75.882,-2.120,24.722
1747600811.85,0.006,-0.013,-0.020,-1.150,0.140,-0.417,-77.210,-4.199,22.038
1747600811.87,0.030,0.000,0.023,-1.114,0.201,-0.397,-78.458,-6.686,18.973
1747600811.89,0.022,-0.019,0.006,-1.014,0.126,-0.395,-79.594,-9.716,15.367
1747600811.91,-0.010,-0.057,-0.040,-1.021,0.303,-0.336,-80.639,-13.307,11.139
1747600811.93,-0.007,-0.067,-0.028,-1.031,0.292,-0.324,-81.679,-17.127,6.563
1747600811.95,0.013,0.022,-0.026,-0.974,0.207,-0.383,-82.619,-22.442,0.888
1747600811.97,0.093,-0.003,-0.034,-0.880,0.107,-0.287,-83.419,-28.757,-5.633
1747600811.99,0.112,-0.024,0.003,-0.745,0.099,-0.260,-84.038,-35.467,-12.497
1747600812.01,-0.019,0.023,-0.003,-0.672,-0.021,-0.258,-84.479,-42.770,-19.885
1747600812.03,-0.124,-0.038,0.017,-0.673,0.131,-0.265,-84.793,-50.759,-27.950
1747600812.05,-0.101,-0.065,0.023,-0.582,0.276,-0.228,-84.985,-58.990,-36.459
1747600812.07,-0.041,0.026,-0.025,-0.533,0.442,-0.216,-85.046,-66.241,-44.162
1747600812.09,-0.050,0.052,0.028,-0.539,0.329,-0.185,-85.048,-73.411,-51.803
1747600812.11,-0.086,-0.003,0.016,-0.521,0.335,-0.157,-85.004,-80.334,-59.119
1747600812.13,-0.063,-0.027,-0.020,-0.485,0.565,-0.186,-84.874,-86.545,-65.838
1747600812.15,0.014,-0.016,0.038,-0.499,0.738,-0.175,-84.680,-91.863,-71.961
1747600812.17,0.017,-0.003,0.031,-0.524,0.467,-0.138,-84.457,-97.232,-78.054
1747600812.19,0.026,-0.016,-0.007,-0.448,0.298,-0.149,-84.201,-102.084,-83.356
1747600812.21,0.074,0.000,-0.032,-0.400,0.259,-0.143,-83.924,-105.799,-87.402
1747600812.23,0.066,0.037,-0.023,-0.284,0.045,-0.055,-83.675,-108.917,-90.712
1747600812.25,-0.018,0.035,-0.066,-0.082,-0.067,-0.058,-83.560,-110.406,-92.181
1747600812.27,-0.083,0.005,-0.013,-0.112,-0.011,-0.064,-83.460,-111.013,-92.741
1747600812.29,-0.063,-0.016,0.022,-0.180,0.080,-0.004,-83.350,-112.254,-94.029
1747600812.31,0.006,0.004,0.011,-0.090,0.168,0.064,-83.317,-113.528,-95.461
1747600812.33,0.003,0.008,0.029,-0.018,0.225,0.039,-83.355,-113.902,-96.064
1747600812.35,-0.002,-0.031,0.069,-0.031,0.165,0.017,-83.370,-114.050,-96.446
1747600812.37,0.024,-0.048,0.024,0.066,0.061,0.008,-83.376,-113.846,-96.378
1747600812.39,0.019,0.013,0.020,0.208,-0.127,0.021,-83.439,-112.654,-95.146
1747600812.41,-0.010,0.015,0.040,0.161,-0.247,0.050,-83.572,-111.349,-93.596
1747600812.43,-0.044,-0.029,0.046,-0.002,-0.110,-0.011,-83.602,-111.315,-93.328
1747600812.45,0.027,-0.061,0.061,0.055,0.083,0.002,-83.582,-111.744,-93.747
1747600812.47,0.040,0.008,0.020,0.107,-0.010,0.008,-83.635,-111.027,-93.101
1747600812.49,-0.038,0.045,-0.036,0.090,-0.109,0.031,-83.681,-110.541,-92.506
1747600812.51,-0.010,-0.014,-0.023,0.053,0.055,0.054,-83.728,-110.232,-92.153
1747600812.53,0.041,-0.005,-0.043,0.137,0.159,0.067,-83.807,-109.812,-91.856
1747600812.55,-0.001,0.016,-0.023,0.144,0.100,0.097,-83.966,-108.623,-90.821
1747600812.57,-0.061,0.031,-0.047,0.083,0.117,0.052,-84.083,-107.436,-89.742
1747600812.59,-0.000,-0.009,-0.015,0.053,0.227,0.018,-84.130,-106.591,-89.093
1747600812.61,0.042,-0.018,0.000,0.079,0.118,0.021,-84.186,-105.618,-88.348
1747600812.63,-0.016,-0.013,-0.045,0.055,-0.131,-0.003,-84.230,-104.663,-87.376
1747600812.65,0.017,-0.019,-0.048,0.026,-0.074,-0.011,-84.211,-104.173,-86.747
1747600812.67,0.090,0.026,-0.020,0.037,-0.087,-0.010,-84.202,-103.709,-86.209
1747600812.69,0.029,0.024,-0.029,0.032,-0.224,-0.020,-84.204,-103.435,-85.746
1747600812.71,-0.062,-0.008,0.013,-0.033,-0.176,-0.027,-84.182,-103.483,-85.545
1747600812.73,-0.061,-0.030,0.024,-0.131,0.040,-0.050,-84.120,-104.206,-86.196
1747600812.75,-0.021,-0.030,0.046,-0.160,0.049,-0.056,-84.038,-105.597,-87.661
1747600812.77,0.022,-0.006,-0.020,-0.105,-0.011,-0.056,-83.937,-106.814,-88.909
1747600812.79,0.043,0.021,-0.041,-0.039,-0.145,-0.031,-83.861,-107.491,-89.503
1747600812.81,0.033,0.026,-0.057,0.037,-0.190,-0.028,-83.817,-107.503,-89.308
1747600812.83,0.023,-0.001,0.005,0.003,-0.191,-0.002,-83.796,-107.595,-89.186
1747600812.85,-0.026,-0.021,0.006,0.011,-0.158,0.005,-83.802,-107.689,-89.063
1747600812.87,-0.030,-0.022,0.026,-0.008,-0.005,0.029,-83.842,-107.660,-88.946
1747600812.89,-0.031,0.004,0.037,0.023,0.041,0.026,-83.902,-107.469,-88.792
1747600812.91,-0.031,0.029,0.022,0.051,-0.017,0.013,-83.951,-106.942,-88.284
1747600812.93,-0.023,0.008,0.037,0.066,-0.027,-0.009,-83.959,-106.502,-87.802
1747600812.95,-0.007,-0.025,0.035,0.098,-0.003,0.013,-83.965,-105.755,-87.037
1747600812.97,-0.020,-0.004,0.043,0.149,-0.069,0.047,-83.992,-104.988,-86.230
1747600812.99,-0.021,-0.005,0.052,0.185,-0.210,0.085,-84.072,-103.876,-84.942
1747600813.01,-0.014,-0.016,0.070,0.230,-0.229,0.087,-84.185,-102.676,-83.476
1747600813.03,-0.020,-0.006,0.050,0.302,-0.338,0.078,-84.310,-100.911,-81.375
1747600813.05,-0.006,-0.004,0.026,0.395,-0.350,0.064,-84.420,-98.230,-78.276
1747600813.07,-0.005,-0.007,0.051,0.466,-0.409,0.086,-84.525,-94.533,-74.128
1747600813.09,-0.037,0.009,0.029,0.520,-0.666,0.176,-84.686,-89.266,-68.231
1747600813.11,-0.073,0.022,0.009,0.586,-0.808,0.198,-84.873,-83.047,-61.101
1747600813.13,-0.049,0.011,0.013,0.598,-0.682,0.165,-84.948,-75.938,-53.101
1747600813.15,-0.008,-0.025,0.044,0.720,-0.454,0.137,-84.889,-68.058,-44.536
1747600813.17,0.008,-0.002,0.033,0.901,-0.395,0.151,-84.605,-58.721,-34.710
1747600813.19,-0.011,0.042,-0.025,1.050,-0.539,0.262,-84.132,-48.667,-24.050
1747600813.21,-0.090,0.027,-0.062,1.029,-0.378,0.307,-83.495,-39.248,-14.043
1747600813.23,-0.102,-0.048,-0.042,0.875,-0.017,0.265,-82.809,-32.048,-6.873
1747600813.25,0.010,-0.106,0.070,0.900,0.393,0.262,-82.073,-26.144,-1.505
1747600813.27,0.030,-0.029,0.028,0.932,0.345,0.304,-81.230,-20.887,3.042
1747600813.29,0.057,0.047,0.033,1.017,0.213,0.413,-80.313,-16.006,7.327
1747600813.31,-0.024,0.039,-0.016,1.023,0.118,0.351,-79.274,-11.800,11.117
1747600813.33,-0.128,-0.064,0.028,1.001,0.325,0.260,-78.194,-8.864,13.580
1747600813.35,-0.024,-0.089,0.035,1.012,0.405,0.254,-77.108,-6.434,15.327
1747600813.37,0.070,0.026,-0.015,0.943,0.274,0.350,-75.995,-4.183,16.962
1747600813.39,0.059,0.056,0.077,0.831,0.067,0.352,-75.038,-2.170,18.547
1747600813.41,-0.025,-0.009,-0.011,0.928,0.001,0.258,-74.042,-0.776,19.709
1747600813.43,-0.104,-0.011,-0.014,1.072,0.039,0.126,-72.908,0.020,20.271
1747600813.45,-0.108,0.027,-0.050,1.197,0.283,0.021,-71.598,0.422,20.255
1747600813.47,-0.097,0.012,-0.002,0.979,0.653,0.094,-70.317,1.010,20.105
1747600813.49,-0.127,-0.060,0.088,0.700,0.869,0.258,-69.388,2.389,20.369
1747600813.51,-0.055,-0.094,-0.032,0.650,0.719,0.349,-68.613,4.152,21.025
1747600813.53,0.197,-0.032,-0.043,0.910,0.379,0.303,-67.723,5.553,21.608
1747600813.55,0.282,0.048,-0.051,1.190,0.148,0.192,-66.481,6.165,21.764
1747600813.57,0.146,0.068,0.079,0.982,-0.043,0.165,-65.188,6.430,21.697
1747600813.59,-0.064,-0.022,-0.062,0.774,-0.146,0.316,-64.154,6.493,21.860
1747600813.61,0.153,-0.154,0.092,0.782,-0.164,0.399,-63.253,7.057,22.606
1747600813.63,0.192,-0.090,-0.041,0.980,-0.596,0.300,-62.219,7.169,23.225
1747600813.65,0.013,0.046,-0.126,1.209,-0.415,0.099,-60.928,6.656,23.385
1747600813.67,-0.133,0.101,-0.022,1.114,0.016,0.039,-59.544,6.288,23.209
1747600813.69,-0.273,-0.025,-0.009,0.808,0.243,0.207,-58.445,6.415,23.161
1747600813.71,0.041,-0.190,0.044,0.702,0.188,0.389,-57.586,7.120,23.636
1747600813.73,0.290,-0.096,0.048,0.904,-0.332,0.415,-56.642,7.595,24.300
1747600813.75,0.196,0.102,-0.020,1.164,-0.400,0.188,-55.401,7.428,24.662
1747600813.77,-0.017,0.165,-0.007,1.140,0.012,0.116,-54.030,7.174,24.618
1747600813.79,-0.102,0.039,0.054,0.794,0.066,0.280,-52.922,7.333,24.737
1747600813.81,0.041,-0.146,0.006,0.691,-0.054,0.512,-52.025,7.783,25.308
1747600813.83,0.227,-0.131,0.048,0.732,-0.313,0.553,-51.154,8.242,26.118
1747600813.85,0.022,0.085,0.005,0.926,-0.342,0.408,-50.142,8.353,26.807
1747600813.87,-0.165,0.248,-0.012,0.907,-0.138,0.142,-49.039,8.250,27.026
1747600813.89,-0.126,0.063,-0.002,0.814,-0.106,0.124,-48.044,8.152,27.025
1747600813.91,-0.004,-0.189,-0.076,0.810,-0.149,0.237,-47.112,8.066,27.136
1747600813.93,0.053,-0.197,-0.063,0.776,-0.135,0.210,-46.180,8.067,27.346
1747600813.95,-0.058,-0.023,-0.061,0.838,-0.054,0.137,-45.246,8.000,27.442
1747600813.97,-0.008,0.084,0.060,0.994,0.047,0.048,-44.198,7.977,27.375
1747600813.99,0.097,0.017,0.040,0.976,-0.164,0.043,-43.063,7.809,27.223
1747600814.01,0.060,-0.061,-0.084,0.844,-0.218,0.110,-42.015,7.515,27.138
1747600814.03,-0.004,-0.061,-0.020,0.794,-0.174,0.188,-41.068,7.355,27.220
1747600814.05,-0.042,0.033,0.022,0.886,-0.128,0.154,-40.105,7.246,27.323
1747600814.07,0.030,0.104,0.154,0.923,-0.136,0.095,-39.042,7.111,27.341
1747600814.09,0.114,0.079,0.015,0.891,-0.302,0.007,-38.005,6.815,27.231
1747600814.11,0.038,0.015,-0.058,0.824,-0.357,0.114,-37.015,6.392,27.181
1747600814.13,-0.048,0.009,-0.020,0.715,-0.187,0.124,-36.125,6.116,27.239
1747600814.15,-0.128,0.037,0.025,0.782,-0.114,0.094,-35.283,5.972,27.298
1747600814.17,-0.004,0.065,0.073,0.957,-0.028,-0.071,-34.283,5.839,27.197
1747600814.19,0.014,0.056,0.035,0.975,-0.110,-0.253,-33.180,5.549,26.821
1747600814.21,-0.069,-0.029,-0.071,0.875,-0.052,-0.118,-32.157,5.280,26.428
1747600814.23,-0.059,-0.117,-0.070,0.797,-0.064,0.061,-31.197,5.105,26.303
1747600814.25,0.157,-0.023,0.067,0.866,-0.058,0.008,-30.268,5.070,26.379
1747600814.27,0.121,0.068,0.057,1.045,-0.182,-0.075,-29.181,4.819,26.446
1747600814.29,0.119,-0.075,-0.002,0.994,-0.228,-0.053,-27.995,4.510,26.439
1747600814.31,-0.054,-0.247,-0.101,0.781,-0.131,0.142,-26.985,4.247,26.623
1747600814.33,-0.027,-0.183,0.005,0.727,0.121,0.201,-26.126,4.356,27.013
1747600814.35,0.051,0.038,0.007,0.850,0.057,0.186,-25.220,4.527,27.409
1747600814.37,0.112,0.070,0.020,0.912,0.032,0.177,-24.177,4.644,27.787
1747600814.39,-0.121,0.021,-0.092,0.877,0.068,0.245,-23.128,4.740,28.157
1747600814.41,-0.114,0.091,0.021,0.764,0.207,0.219,-22.187,5.010,28.671
1747600814.43,-0.019,0.196,-0.013,0.822,-0.102,0.201,-21.254,5.144,29.041
1747600814.45,0.011,0.126,0.009,0.842,-0.266,-0.005,-20.288,4.905,29.294
1747600814.47,-0.047,-0.024,-0.052,0.733,0.004,-0.116,-19.385,4.678,29.407
1747600814.49,-0.188,-0.118,-0.115,0.656,0.297,-0.016,-18.611,4.783,29.461
1747600814.51,-0.110,-0.021,-0.035,0.634,0.247,-0.112,-17.889,5.116,29.631
1747600814.52,0.080,0.159,0.045,0.682,-0.098,-0.007,-17.145,5.165,29.711
1747600814.55,0.047,0.047,-0.011,0.742,-0.162,-0.181,-16.348,4.928,29.712
1747600814.57,-0.014,-0.048,-0.025,0.692,0.032,-0.163,-15.543,4.747,29.702
1747600814.58,-0.023,-0.106,-0.082,0.541,0.202,-0.042,-14.839,4.889,29.770
1747600814.60,0.097,-0.007,-0.078,0.467,0.022,0.188,-14.267,5.023,30.036
1747600814.62,0.159,0.104,0.018,0.515,-0.080,0.074,-13.702,5.022,30.349
1747600814.64,0.105,-0.013,0.024,0.544,-0.147,0.136,-13.084,4.884,30.660
1747600814.66,-0.018,-0.072,0.005,0.511,0.124,0.136,-12.457,4.885,30.999
1747600814.68,-0.019,-0.050,-0.036,0.512,0.183,0.148,-11.870,5.112,31.350
1747600814.70,0.013,0.036,-0.011,0.466,0.067,0.171,-11.306,5.293,31.706
1747600814.72,0.055,0.112,0.036,0.472,-0.029,0.175,-10.744,5.342,32.089
1747600814.74,-0.028,0.053,-0.037,0.502,-0.025,0.109,-10.175,5.317,32.435
1747600814.76,-0.014,-0.107,-0.057,0.535,0.089,0.022,-9.580,5.362,32.686
1747600814.78,-0.016,-0.098,-0.042,0.520,0.132,0.012,-8.958,5.481,32.856
1747600814.80,-0.005,0.009,-0.070,0.443,0.085,0.039,-8.407,5.608,33.052
1747600814.82,0.012,0.043,-0.080,0.392,-0.007,0.002,-7.930,5.658,33.249
1747600814.84,0.088,-0.024,-0.081,0.386,-0.075,-0.067,-7.486,5.593,33.376
1747600814.86,0.092,-0.062,-0.055,0.375,-0.051,-0.011,-7.066,5.502,33.489
1747600814.88,0.002,0.027,-0.000,0.337,0.063,0.101,-6.663,5.510,33.722
1747600814.90,-0.022,0.085,-0.033,0.297,0.145,0.154,-6.283,5.655,34.059
1747600814.92,0.033,0.057,-0.091,0.250,0.025,0.118,-5.952,5.768,34.415
1747600814.94,0.030,-0.007,-0.095,0.212,-0.080,0.044,-5.683,5.750,34.688
1747600814.96,0.010,-0.025,-0.094,0.171,-0.125,0.007,-5.458,5.618,34.885
1747600814.98,-0.060,0.024,-0.007,0.137,-0.049,-0.048,-5.289,5.510,35.033
1747600815.00,-0.046,0.013,-0.027,0.162,-0.006,-0.069,-5.127,5.479,35.125
1747600815.02,-0.029,0.027,-0.045,0.158,0.047,-0.074,-4.954,5.498,35.195
1747600815.04,0.025,0.005,-0.033,0.117,-0.023,-0.066,-4.799,5.512,35.267
1747600815.06,0.050,-0.005,-0.033,0.127,-0.080,-0.038,-4.680,5.437,35.346
1747600815.08,0.003,0.006,-0.022,0.131,-0.031,-0.023,-4.544,5.348,35.447
1747600815.10,-0.028,0.008,0.029,0.133,0.051,-0.041,-4.405,5.368,35.550
1747600815.12,-0.040,-0.011,-0.019,0.151,0.056,-0.079,-4.246,5.426,35.620
1747600815.14,0.053,-0.037,-0.026,0.136,-0.034,-0.108,-4.099,5.453,35.667
1747600815.16,0.056,-0.031,-0.020,0.116,-0.079,-0.046,-3.966,5.380,35.727
1747600815.18,0.034,0.015,-0.012,0.081,0.050,0.011,-3.861,5.335,35.857
1747600815.20,0.004,-0.029,-0.046,0.035,0.093,0.048,-3.798,5.417,36.060
1747600815.22,0.037,-0.042,-0.098,-0.011,0.030,0.036,-3.753,5.512,36.269
1747600815.24,0.046,-0.043,-0.093,-0.104,-0.010,0.039,-3.792,5.527,36.472
1747600815.26,0.027,-0.050,-0.126,-0.213,0.056,0.069,-3.963,5.563,36.717
1747600815.28,0.000,-0.037,-0.134,-0.299,0.072,0.092,-4.241,5.645,37.019
1747600815.30,-0.004,0.007,-0.135,-0.396,0.010,0.063,-4.624,5.702,37.318
1747600815.32,-0.002,-0.031,-0.138,-0.528,0.050,0.006,-5.135,5.748,37.574
1747600815.34,-0.029,-0.048,-0.176,-0.639,0.065,0.014,-5.804,5.815,37.798
1747600815.36,0.038,-0.031,-0.137,-0.714,0.052,0.013,-6.572,5.916,38.047
1747600815.38,0.038,0.010,-0.136,-0.783,-0.041,-0.027,-7.434,5.917,38.287
1747600815.40,-0.034,-0.030,-0.124,-0.866,0.006,-0.110,-8.369,5.899,38.470
1747600815.42,-0.105,-0.023,-0.129,-0.975,0.050,-0.162,-9.437,5.917,38.569
1747600815.44,-0.040,-0.066,-0.107,-1.011,0.129,-0.209,-10.586,6.016,38.644
1747600815.46,-0.001,-0.107,-0.102,-1.045,0.040,-0.257,-11.773,6.091,38.629
1747600815.48,0.002,-0.128,-0.090,-1.126,0.028,-0.221,-13.041,6.095,38.608
1747600815.50,0.070,-0.102,-0.060,-1.178,0.053,-0.191,-14.375,6.110,38.611
1747600815.52,0.033,-0.079,-0.021,-1.236,0.202,-0.161,-15.769,6.237,38.637
1747600815.54,0.006,-0.079,0.015,-1.313,0.281,-0.074,-17.230,6.530,38.741
1747600815.56,0.046,-0.070,-0.045,-1.377,0.187,0.043,-18.753,6.860,38.979
1747600815.58,0.090,-0.048,-0.052,-1.392,0.150,0.019,-20.323,7.124,39.290
1747600815.60,0.029,-0.069,0.023,-1.368,0.184,-0.088,-21.888,7.384,39.501
1747600815.62,-0.003,-0.093,-0.000,-1.436,0.061,-0.061,-23.479,7.574,39.629
1747600815.64,0.090,-0.112,-0.058,-1.484,-0.155,0.070,-25.140,7.620,39.887
1747600815.66,0.132,-0.069,0.025,-1.430,-0.151,0.098,-26.779,7.579,40.275
1747600815.68,0.002,-0.038,0.026,-1.435,-0.034,-0.053,-28.393,7.592,40.545
1747600815.70,-0.115,-0.077,-0.025,-1.405,0.164,-0.086,-30.012,7.751,40.688
1747600815.72,-0.069,-0.097,-0.041,-1.450,0.052,-0.045,-31.628,7.972,40.841
1747600815.74,0.045,-0.085,0.001,-1.443,-0.066,0.013,-33.275,8.077,41.072
1747600815.76,0.055,-0.048,-0.006,-1.429,-0.098,-0.019,-34.881,8.148,41.332
1747600815.78,0.008,-0.061,-0.025,-1.479,-0.044,-0.056,-36.550,8.200,41.544
1747600815.80,0.017,-0.062,0.054,-1.515,0.130,-0.069,-38.241,8.396,41.724
1747600815.82,-0.042,-0.035,-0.046,-1.598,0.042,0.001,-40.005,8.657,41.936
1747600815.84,-0.015,0.007,0.020,-1.558,0.144,-0.038,-41.789,8.993,42.235
1747600815.86,0.006,0.056,0.018,-1.499,0.086,-0.151,-43.525,9.270,42.375
1747600815.88,-0.026,0.030,0.026,-1.469,0.105,-0.196,-45.231,9.438,42.385
1747600815.90,0.019,-0.023,0.045,-1.469,0.146,-0.181,-46.919,9.675,42.369
1747600815.92,0.035,-0.047,-0.014,-1.498,0.114,-0.212,-48.633,9.892,42.379
1747600815.94,0.017,-0.034,0.010,-1.476,0.179,-0.251,-50.362,10.111,42.152
1747600815.96,-0.051,0.006,-0.008,-1.494,0.112,-0.275,-52.071,10.272,41.968
1747600815.98,0.006,-0.016,0.025,-1.574,0.129,-0.332,-53.877,10.360,41.683
1747600816.00,0.112,-0.031,0.045,-1.531,-0.040,-0.300,-55.689,10.369,41.424
1747600816.02,0.155,0.004,0.038,-1.474,-0.121,-0.301,-57.428,10.250,41.163
1747600816.04,0.120,0.053,0.013,-1.434,-0.349,-0.369,-59.133,9.863,40.770
1747600816.06,0.013,0.045,-0.001,-1.392,-0.385,-0.404,-60.794,9.125,40.183
1747600816.08,-0.025,-0.037,0.041,-1.328,-0.266,-0.350,-62.400,8.422,39.565
1747600816.10,-0.034,-0.105,-0.038,-1.371,-0.121,-0.374,-63.967,7.774,38.846
1747600816.12,-0.023,-0.127,-0.011,-1.415,-0.008,-0.367,-65.606,7.262,38.106
1747600816.14,-0.026,-0.079,0.031,-1.388,0.128,-0.322,-67.249,6.932,37.381
1747600816.16,-0.018,-0.007,0.034,-1.377,0.140,-0.318,-68.853,6.627,36.595
1747600816.18,0.024,0.033,-0.006,-1.303,0.092,-0.372,-70.435,6.177,35.709
1747600816.20,0.035,0.020,0.022,-1.184,0.071,-0.387,-71.879,5.356,34.419
1747600816.22,0.028,-0.036,-0.063,-1.212,-0.022,-0.338,-73.292,4.437,33.140
1747600816.24,-0.065,-0.075,-0.049,-1.167,-0.051,-0.468,-74.653,3.095,31.527
1747600816.26,0.007,-0.052,0.043,-1.257,-0.012,-0.382,-76.093,1.442,29.535
1747600816.28,0.093,-0.051,-0.060,-1.128,-0.154,-0.317,-77.440,-0.297,27.569
1747600816.30,0.033,-0.016,-0.012,-1.087,-0.149,-0.407,-78.705,-2.586,25.120
1747600816.32,-0.086,-0.013,-0.083,-1.013,0.121,-0.464,-79.857,-5.675,21.706
1747600816.34,-0.051,-0.056,-0.050,-1.003,0.259,-0.441,-80.926,-9.357,17.421
1747600816.36,0.009,0.006,-0.030,-0.988,0.288,-0.328,-81.942,-13.455,12.653
1747600816.38,0.064,-0.005,0.072,-1.155,0.237,-0.216,-83.039,-17.908,7.536
1747600816.40,0.131,-0.063,0.009,-1.189,0.088,-0.219,-84.230,-23.763,1.090
1747600816.42,0.106,-0.059,-0.075,-1.083,-0.297,-0.326,-85.217,-33.952,-9.351
1747600816.44,0.104,0.014,-0.044,-0.899,-0.508,-0.420,-85.810,-47.785,-23.095
1747600816.46,-0.017,0.078,-0.044,-0.837,-0.545,-0.382,-85.978,-63.522,-38.216
1747600816.48,-0.112,-0.005,-0.016,-0.909,-0.241,-0.385,-85.882,-79.056,-53.333
1747600816.50,-0.119,-0.112,0.003,-0.889,-0.061,-0.267,-85.571,-93.495,-67.650
1747600816.52,-0.101,-0.062,-0.040,-0.912,0.204,-0.256,-85.124,-105.346,-79.606
1747600816.54,-0.053,0.035,-0.014,-0.819,0.382,-0.214,-84.520,-114.376,-89.025
1747600816.56,-0.055,0.097,-0.034,-0.687,0.452,-0.155,-83.936,-120.474,-95.640
1747600816.58,-0.035,-0.005,-0.032,-0.582,0.501,-0.202,-83.390,-124.465,-100.209
1747600816.60,0.039,-0.026,-0.011,-0.491,0.363,-0.217,-82.822,-126.873,-103.147
1747600816.62,0.078,0.009,0.004,-0.364,0.145,-0.132,-82.356,-128.500,-105.094
1747600816.64,0.010,-0.026,0.027,-0.387,0.013,-0.091,-82.006,-130.256,-106.946
1747600816.66,-0.062,-0.040,0.055,-0.385,0.058,-0.155,-81.608,-131.957,-108.690
1747600816.68,-0.047,-0.008,0.054,-0.371,0.060,-0.090,-81.211,-133.377,-110.201
1747600816.70,0.015,-0.019,0.042,-0.326,-0.005,-0.067,-80.872,-134.791,-111.665
1747600816.72,0.004,-0.009,0.023,-0.341,-0.148,-0.063,-80.550,-136.129,-112.931
1747600816.74,-0.031,-0.025,-0.038,-0.346,-0.123,-0.068,-80.211,-137.588,-114.236
1747600816.76,-0.025,0.019,-0.038,-0.157,-0.083,-0.033,-79.940,-138.585,-115.134
1747600816.78,0.005,0.029,-0.021,-0.045,-0.035,-0.004,-79.865,-138.912,-115.406
1747600816.80,0.000,0.020,0.010,0.010,-0.096,-0.014,-79.839,-139.013,-115.447
1747600816.82,-0.016,0.018,-0.058,0.060,-0.094,-0.003,-79.868,-138.948,-115.252
1747600816.84,-0.054,-0.012,-0.047,0.076,0.008,0.007,-79.952,-138.486,-114.731
1747600816.86,-0.069,0.002,0.022,0.082,0.178,0.028,-80.040,-138.028,-114.383
1747600816.88,-0.032,0.006,0.007,0.152,0.211,0.041,-80.166,-137.515,-114.100
1747600816.90,0.027,0.005,-0.018,0.130,0.170,0.032,-80.342,-136.649,-113.451
1747600816.92,0.062,0.011,0.008,0.071,0.102,-0.004,-80.450,-135.845,-112.806
1747600816.94,0.051,-0.016,0.001,0.061,0.070,0.008,-80.485,-135.433,-112.464
1747600816.96,0.070,-0.028,0.041,0.051,0.096,-0.002,-80.515,-135.089,-112.232
1747600816.98,0.054,0.012,-0.013,0.124,0.016,0.017,-80.597,-134.597,-111.806
1747600817.00,-0.019,0.011,-0.018,0.058,-0.011,0.017,-80.702,-134.287,-111.468
1747600817.02,-0.079,-0.010,-0.018,0.076,0.095,0.001,-80.754,-134.042,-111.260
1747600817.04,-0.028,-0.002,0.035,0.102,0.237,-0.001,-80.828,-133.520,-110.929
1747600817.06,0.026,0.010,0.019,0.119,0.182,0.019,-80.932,-132.754,-110.406
1747600817.08,0.019,-0.012,0.006,0.111,0.137,0.033,-81.051,-132.068,-109.890
1747600817.10,-0.006,-0.019,0.030,0.069,0.079,0.032,-81.134,-131.568,-109.517
1747600817.12,0.006,0.001,0.033,0.104,0.070,0.040,-81.207,-131.203,-109.230
1747600817.14,0.030,-0.026,0.033,0.143,-0.004,0.071,-81.360,-130.924,-108.989
1747600817.16,-0.036,0.045,0.037,0.196,0.002,0.038,-81.525,-130.213,-108.249
1747600817.18,-0.059,-0.029,0.029,0.188,0.108,0.054,-81.694,-129.354,-107.446
1747600817.20,-0.073,-0.020,0.015,0.251,0.144,0.071,-81.882,-128.308,-106.537
1747600817.22,-0.055,0.002,0.024,0.301,0.103,0.097,-82.147,-126.982,-105.344
1747600817.24,-0.033,-0.014,0.018,0.354,0.078,0.092,-82.432,-125.300,-103.745
1747600817.26,0.001,-0.013,-0.003,0.463,0.063,0.060,-82.724,-122.739,-101.249
1747600817.28,0.001,-0.002,-0.022,0.549,-0.117,0.077,-83.066,-119.047,-97.514
1747600817.30,-0.024,-0.002,-0.011,0.638,-0.331,0.121,-83.471,-114.650,-92.815
1747600817.32,-0.041,-0.012,0.002,0.764,-0.366,0.167,-83.922,-108.885,-86.607
1747600817.34,-0.049,0.007,-0.024,0.878,-0.288,0.191,-84.369,-100.896,-78.175
1747600817.36,-0.033,0.012,0.007,0.918,-0.120,0.162,-84.674,-90.629,-67.638
1747600817.38,0.008,-0.004,0.028,1.076,-0.073,0.190,-84.763,-78.483,-55.337
1747600817.40,0.034,0.023,-0.004,1.269,-0.105,0.303,-84.575,-63.726,-40.426
1747600817.42,-0.040,0.046,0.044,1.223,-0.347,0.401,-84.131,-49.436,-25.819
1747600817.44,-0.150,-0.011,0.036,1.042,-0.068,0.256,-83.472,-38.907,-15.302
1747600817.46,-0.095,-0.130,0.127,1.129,0.407,0.158,-82.605,-31.406,-8.327
1747600817.48,0.027,-0.073,0.002,1.226,0.285,0.172,-81.492,-25.193,-2.833
1747600817.50,0.081,0.084,-0.043,1.105,-0.030,0.233,-80.323,-20.441,1.493
1747600817.52,0.023,0.038,0.060,1.021,-0.001,0.248,-79.285,-16.864,4.828
1747600817.54,-0.012,-0.096,0.031,0.979,0.371,0.268,-78.254,-13.724,7.525
1747600817.56,0.050,-0.069,0.109,1.085,0.263,0.249,-77.173,-10.811,9.776
1747600817.58,0.053,0.049,-0.021,1.167,0.236,0.239,-75.943,-8.486,11.641
1747600817.60,0.001,0.012,0.051,1.096,0.240,0.253,-74.674,-6.516,13.104
1747600817.62,-0.083,-0.060,-0.025,0.953,0.247,0.313,-73.552,-4.734,14.436
1747600817.64,-0.062,-0.057,0.041,0.903,0.407,0.305,-72.534,-2.945,15.616
1747600817.66,0.048,0.022,-0.009,1.128,0.325,0.292,-71.382,-1.369,16.596
1747600817.67,0.146,0.061,0.070,1.002,0.188,0.315,-70.156,-0.014,17.445
1747600817.70,0.079,0.020,0.032,0.868,0.218,0.366,-69.083,1.200,18.289
1747600817.72,-0.033,-0.009,0.057,0.808,0.026,0.357,-68.119,2.388,19.161
1747600817.74,-0.068,-0.011,-0.023,1.010,-0.045,0.193,-67.088,3.030,19.650
1747600817.75,0.025,-0.022,-0.078,1.259,-0.156,0.111,-65.765,3.139,19.532
1747600817.77,0.011,-0.017,-0.089,1.093,0.001,0.069,-64.395,3.063,19.429
1747600817.79,-0.093,-0.065,-0.022,0.876,0.120,0.245,-63.272,3.330,19.542
1747600817.81,-0.049,-0.131,-0.026,0.738,0.369,0.422,-62.343,4.247,20.284
1747600817.83,0.229,-0.082,0.003,0.962,0.161,0.402,-61.353,5.391,21.150
1747600817.85,0.202,0.027,-0.068,1.150,-0.205,0.279,-60.084,5.785,21.705
1747600817.87,0.059,0.077,-0.021,1.047,-0.033,0.191,-58.816,5.868,21.946
1747600817.89,-0.091,-0.003,0.008,0.806,-0.085,0.302,-57.736,6.074,22.231
1747600817.91,0.003,-0.123,-0.064,0.757,-0.209,0.385,-56.812,6.369,22.806
1747600817.93,0.195,-0.121,0.046,0.919,-0.416,0.362,-55.840,6.532,23.415
1747600817.95,0.035,0.019,-0.025,1.135,-0.371,0.234,-54.610,6.295,23.762
1747600817.97,-0.117,0.118,0.020,0.949,0.142,0.108,-53.369,6.268,23.844
1747600817.99,-0.140,0.037,0.062,0.779,0.072,0.364,-52.374,6.615,24.054
1747600818.01,0.091,-0.045,0.041,0.763,-0.134,0.457,-51.473,7.104,24.720
1747600818.03,0.218,-0.009,0.016,0.956,-0.564,0.367,-50.433,7.149,25.282
1747600818.05,0.029,0.062,-0.039,1.077,-0.450,0.209,-49.231,6.722,25.585
1747600818.07,-0.038,0.081,0.061,1.004,0.057,0.083,-48.014,6.527,25.601
1747600818.09,-0.064,-0.052,-0.047,0.828,0.163,0.197,-46.960,6.684,25.611
1747600818.11,0.023,-0.164,0.025,0.746,0.073,0.437,-46.038,7.100,26.001
1747600818.13,0.065,-0.059,0.078,0.756,0.053,0.427,-45.129,7.607,26.589
1747600818.15,0.039,0.171,0.008,0.876,-0.013,0.309,-44.144,7.910,26.993
1747600818.17,0.011,0.258,0.079,0.914,-0.189,0.170,-43.066,7.933,27.173
1747600818.19,-0.027,0.141,-0.090,0.837,-0.356,0.123,-42.055,7.626,27.192
1747600818.21,-0.101,-0.041,-0.022,0.787,-0.303,0.200,-41.125,7.297,27.289
1747600818.23,-0.173,-0.036,0.042,0.883,-0.169,0.088,-40.162,7.081,27.366
1747600818.25,-0.155,0.048,0.006,0.967,-0.098,-0.068,-39.111,6.823,27.208
1747600818.27,-0.009,0.001,0.052,1.001,-0.051,-0.172,-37.999,6.532,26.864
1747600818.29,0.068,-0.020,-0.078,0.962,-0.106,-0.198,-36.904,6.174,26.418
1747600818.31,0.019,-0.046,0.004,0.871,-0.124,-0.031,-35.885,5.877,26.116
1747600818.33,-0.022,-0.048,0.005,0.845,-0.062,0.029,-34.916,5.687,26.017
1747600818.35,0.025,0.005,0.009,0.928,-0.092,-0.035,-33.907,5.551,25.896
1747600818.37,0.117,0.037,0.067,1.026,-0.203,-0.068,-32.804,5.275,25.692
1747600818.39,0.108,-0.026,-0.051,0.939,-0.325,-0.041,-31.668,4.858,25.596
1747600818.41,-0.027,-0.112,-0.032,0.813,-0.247,0.139,-30.685,4.499,25.747
1747600818.43,-0.048,-0.119,0.051,0.829,-0.019,0.159,-29.741,4.417,26.088
1747600818.45,0.000,-0.019,0.044,0.975,-0.070,0.072,-28.716,4.411,26.341
1747600818.47,0.144,0.024,0.057,1.032,-0.059,0.046,-27.549,4.321,26.514
1747600818.49,0.040,0.001,-0.071,0.922,-0.143,0.080,-26.411,4.131,26.689
1747600818.51,-0.064,-0.058,-0.042,0.815,0.066,0.243,-25.410,4.147,27.054
1747600818.53,-0.009,0.036,0.067,0.829,0.129,0.265,-24.470,4.389,27.558
1747600818.55,0.062,0.106,0.062,1.007,-0.013,0.107,-23.413,4.530,27.963
1747600818.57,0.061,0.001,0.025,1.055,-0.127,0.078,-22.204,4.438,28.227
1747600818.59,-0.001,-0.075,-0.069,0.851,-0.016,0.068,-21.106,4.348,28.454
1747600818.61,-0.065,-0.021,-0.071,0.726,-0.009,0.200,-20.219,4.375,28.803
1747600818.63,0.002,0.127,0.030,0.851,-0.055,0.132,-19.323,4.380,29.175
1747600818.65,0.022,0.057,-0.011,0.939,-0.125,0.019,-18.266,4.274,29.438
1747600818.67,-0.046,-0.091,-0.008,0.892,0.128,0.073,-17.210,4.263,29.693
1747600818.69,-0.090,-0.054,-0.052,0.796,0.155,0.044,-16.247,4.438,29.888
1747600818.71,0.034,0.071,0.048,0.784,-0.069,-0.040,-15.359,4.499,30.139
1747600818.73,0.153,0.026,0.013,0.839,-0.318,-0.038,-14.451,4.233,30.358
1747600818.75,0.096,-0.064,-0.014,0.878,-0.250,-0.017,-13.474,3.836,30.489
1747600818.77,-0.011,-0.069,-0.023,0.859,0.091,0.108,-12.466,3.758,30.723
1747600818.79,-0.081,0.013,-0.042,0.773,0.236,0.239,-11.532,3.985,31.109
1747600818.81,0.034,0.049,-0.032,0.752,0.105,0.266,-10.655,4.257,31.609
1747600818.83,0.202,0.049,0.012,0.781,-0.186,0.177,-9.759,4.250,32.018
1747600818.85,0.101,0.012,-0.009,0.784,-0.191,0.162,-8.854,3.995,32.390
1747600818.87,-0.068,-0.085,-0.042,0.723,0.176,0.163,-7.979,4.012,32.758
1747600818.89,-0.179,0.034,-0.046,0.712,0.325,0.126,-7.142,4.330,33.115
1747600818.91,-0.072,0.150,-0.017,0.653,0.222,0.051,-6.354,4.679,33.406
1747600818.93,-0.010,0.158,-0.086,0.623,-0.072,-0.084,-5.641,4.766,33.583
1747600818.95,0.038,0.020,-0.209,0.608,-0.168,-0.281,-4.959,4.603,33.582
1747600818.97,-0.090,0.004,-0.151,0.535,-0.054,-0.318,-4.341,4.425,33.411
1747600818.99,-0.167,0.011,-0.039,0.471,0.143,-0.302,-3.794,4.470,33.226
1747600819.01,-0.012,-0.016,-0.056,0.412,0.147,-0.303,-3.303,4.613,33.075
1747600819.03,0.018,-0.042,-0.112,0.328,0.161,-0.220,-2.906,4.778,32.950
1747600819.05,0.055,0.015,-0.124,0.242,0.032,-0.147,-2.610,4.884,32.910
1747600819.07,0.129,-0.011,-0.108,0.189,-0.071,-0.090,-2.364,4.845,32.951
1747600819.09,0.061,-0.081,-0.061,0.139,-0.012,-0.056,-2.190,4.778,33.037
1747600819.11,-0.008,-0.088,-0.000,0.088,0.035,0.023,-2.060,4.809,33.180
1747600819.13,0.048,-0.010,-0.020,0.050,0.007,0.063,-1.977,4.831,33.402
1747600819.15,0.078,-0.036,0.003,0.034,-0.063,0.063,-1.927,4.803,33.646
1747600819.17,0.085,-0.102,-0.038,0.055,-0.085,0.113,-1.865,4.720,33.907
1747600819.19,0.020,-0.032,-0.013,0.091,0.001,0.160,-1.752,4.668,34.234
1747600819.21,-0.072,0.011,0.050,0.093,0.088,0.149,-1.624,4.741,34.572
1747600819.23,-0.019,-0.025,0.027,0.082,0.091,0.104,-1.516,4.872,34.878
1747600819.25,0.050,0.003,-0.061,0.094,0.012,0.072,-1.376,4.949,35.138
1747600819.27,-0.005,0.028,-0.054,0.076,-0.010,0.083,-1.255,4.951,35.385
1747600819.29,-0.024,0.068,-0.010,0.085,0.123,0.064,-1.163,4.995,35.656
1747600819.31,-0.053,0.065,-0.015,0.037,0.215,0.001,-1.086,5.190,35.849
1747600819.33,-0.006,0.015,-0.104,-0.039,0.081,-0.051,-1.080,5.385,35.962
1747600819.35,0.028,0.016,-0.137,-0.105,0.055,-0.075,-1.170,5.443,36.044
1747600819.37,0.019,0.057,-0.130,-0.227,0.073,-0.065,-1.379,5.519,36.114
1747600819.39,-0.037,0.015,-0.155,-0.359,0.064,-0.014,-1.733,5.583,36.251
1747600819.41,0.064,-0.007,-0.177,-0.475,0.045,-0.039,-2.206,5.648,36.429
1747600819.43,0.051,-0.045,-0.160,-0.609,0.046,-0.074,-2.828,5.694,36.590
1747600819.45,0.060,-0.070,-0.155,-0.727,-0.015,-0.030,-3.597,5.715,36.768
1747600819.47,0.077,-0.036,-0.180,-0.848,-0.072,0.015,-4.480,5.680,37.016
1747600819.49,0.024,0.000,-0.180,-0.919,0.002,0.009,-5.488,5.640,37.270
1747600819.51,-0.010,-0.031,-0.103,-1.031,0.034,-0.028,-6.606,5.676,37.507
1747600819.53,0.020,-0.076,-0.102,-1.076,0.034,-0.027,-7.805,5.725,37.724
1747600819.55,0.059,-0.086,-0.128,-1.112,0.025,-0.027,-9.054,5.781,37.948
1747600819.57,0.039,-0.057,-0.096,-1.135,0.046,-0.044,-10.334,5.837,38.284
1747600819.59,-0.005,-0.036,-0.046,-1.237,0.006,-0.019,-11.686,5.886,38.492
1747600819.61,0.037,-0.057,-0.019,-1.268,0.055,0.029,-13.118,5.954,38.746
1747600819.63,0.106,-0.101,-0.027,-1.248,0.152,-0.010,-14.551,6.114,39.003
1747600819.65,0.049,-0.085,-0.051,-1.258,0.208,-0.061,-15.973,6.357,39.204
1747600819.67,-0.048,-0.062,-0.082,-1.315,0.142,-0.127,-17.439,6.575,39.336
1747600819.69,-0.098,-0.094,0.030,-1.374,0.205,-0.231,-18.994,6.750,39.363
1747600819.71,-0.076,-0.131,0.037,-1.395,0.240,-0.251,-20.597,6.980,39.309
1747600819.73,-0.027,-0.096,-0.049,-1.408,0.210,-0.234,-22.219,7.223,39.284
1747600819.75,-0.060,-0.020,-0.027,-1.411,0.258,-0.264,-23.857,7.420,39.224
1747600819.77,-0.002,-0.051,0.067,-1.421,0.334,-0.293,-25.493,7.725,39.142
1747600819.79,0.117,-0.103,0.013,-1.486,0.231,-0.181,-27.177,8.057,39.090
1747600819.81,0.144,-0.097,0.019,-1.500,0.026,-0.065,-28.896,8.261,39.207
1747600819.83,0.068,-0.029,0.004,-1.416,-0.023,-0.128,-30.558,8.316,39.343
1747600819.85,-0.036,-0.031,-0.029,-1.502,0.033,-0.144,-32.227,8.363,39.413
1747600819.87,-0.072,-0.094,-0.003,-1.523,0.152,-0.124,-33.960,8.543,39.503
1747600819.89,-0.026,-0.087,-0.023,-1.524,0.125,-0.144,-35.707,8.802,39.575
1747600819.91,0.024,-0.053,-0.017,-1.532,0.018,-0.167,-37.462,8.963,39.591
1747600819.93,0.091,-0.071,-0.003,-1.518,-0.158,-0.153,-39.204,8.940,39.608
1747600819.95,0.133,-0.086,-0.028,-1.569,-0.218,-0.148,-40.968,8.818,39.639
1747600819.97,0.066,-0.096,-0.030,-1.564,-0.204,-0.094,-42.757,8.679,39.706
1747600819.99,0.004,-0.085,0.018,-1.577,-0.091,-0.077,-44.541,8.681,39.809
1747600820.01,-0.020,-0.069,-0.024,-1.629,0.031,-0.090,-46.362,8.831,39.926
1747600820.03,0.028,-0.048,-0.017,-1.705,-0.020,-0.102,-48.257,9.074,40.035
1747600820.05,0.051,-0.031,-0.004,-1.746,-0.045,-0.128,-50.233,9.222,40.102
1747600820.07,0.061,-0.004,-0.019,-1.692,-0.128,-0.185,-52.199,9.298,40.110
1747600820.09,0.002,0.010,0.031,-1.669,-0.211,-0.213,-54.125,9.219,40.074
1747600820.11,0.012,-0.038,0.004,-1.619,-0.322,-0.239,-56.032,8.988,39.950
1747600820.13,0.029,-0.058,-0.039,-1.537,-0.285,-0.400,-57.869,8.506,39.594
1747600820.15,0.032,-0.075,0.004,-1.611,-0.246,-0.396,-59.713,7.879,38.973
1747600820.17,-0.018,-0.049,0.004,-1.632,-0.247,-0.337,-61.583,7.254,38.335
1747600820.19,-0.019,-0.016,0.023,-1.665,-0.110,-0.300,-63.524,6.813,37.838
1747600820.21,0.058,0.006,0.056,-1.603,-0.003,-0.347,-65.404,6.440,37.188
1747600820.23,0.042,0.009,0.013,-1.533,-0.235,-0.399,-67.224,5.807,36.386
1747600820.25,0.010,0.010,0.005,-1.537,-0.266,-0.415,-69.034,4.781,35.356
1747600820.27,0.018,-0.023,-0.020,-1.461,-0.147,-0.509,-70.758,3.444,33.911
1747600820.29,-0.023,-0.060,0.041,-1.451,-0.189,-0.472,-72.459,1.736,32.029
1747600820.31,-0.065,-0.079,-0.009,-1.428,-0.047,-0.431,-74.113,-0.014,30.064
1747600820.33,0.012,-0.108,-0.016,-1.420,0.264,-0.351,-75.738,-1.633,27.968
1747600820.35,-0.007,-0.048,-0.007,-1.265,0.433,-0.427,-77.257,-3.346,25.489
1747600820.37,-0.045,0.039,0.006,-1.292,0.479,-0.350,-78.665,-5.397,22.558
1747600820.39,-0.036,0.012,0.046,-1.335,0.409,-0.425,-80.115,-8.093,18.955
1747600820.41,-0.067,-0.072,0.007,-1.205,0.205,-0.413,-81.467,-12.228,14.094
1747600820.43,0.011,-0.117,-0.044,-1.187,0.147,-0.405,-82.644,-17.863,7.880
1747600820.45,0.118,-0.064,-0.062,-1.002,0.050,-0.332,-83.686,-24.827,0.424
1747600820.47,0.131,0.055,-0.081,-0.775,0.137,-0.333,-84.373,-32.830,-7.741
1747600820.49,-0.015,0.093,-0.061,-0.644,0.253,-0.280,-84.789,-40.330,-15.514
1747600820.51,-0.183,0.011,-0.001,-0.844,0.352,-0.291,-85.169,-49.467,-24.997
1747600820.53,-0.155,-0.101,0.013,-0.906,0.686,-0.267,-85.486,-61.277,-37.449
1747600820.55,-0.070,-0.054,0.031,-0.882,0.888,-0.259,-85.609,-73.914,-51.027
1747600820.57,-0.004,-0.000,0.077,-0.825,0.957,-0.166,-85.555,-85.953,-64.167
1747600820.59,0.035,0.017,0.033,-0.810,0.711,-0.237,-85.308,-96.523,-75.761
1747600820.61,0.066,0.029,-0.012,-0.782,0.459,-0.329,-84.794,-105.488,-85.429
1747600820.63,0.101,0.034,-0.011,-0.575,0.175,-0.309,-84.217,-111.715,-92.036
1747600820.65,0.046,-0.021,0.013,-0.502,-0.110,-0.290,-83.666,-115.538,-95.920
1747600820.67,0.004,-0.077,0.022,-0.533,-0.302,-0.343,-83.082,-118.934,-99.088
1747600820.69,-0.004,-0.065,0.001,-0.489,-0.350,-0.250,-82.487,-121.981,-101.757
1747600820.71,-0.007,0.018,0.005,-0.347,-0.385,-0.199,-82.009,-124.371,-103.763
1747600820.73,-0.022,0.068,-0.025,-0.143,-0.465,-0.040,-81.746,-125.937,-104.829
1747600820.75,-0.042,0.018,-0.030,-0.095,-0.212,-0.019,-81.650,-126.952,-105.447
1747600820.77,-0.088,0.000,-0.041,-0.068,0.026,-0.053,-81.564,-127.375,-105.775
1747600820.79,-0.111,0.038,-0.036,-0.001,0.167,-0.065,-81.472,-127.265,-105.774
1747600820.80,-0.074,0.002,-0.046,0.096,0.270,-0.006,-81.480,-126.461,-105.223
1747600820.82,-0.032,-0.018,-0.019,0.057,0.273,0.018,-81.545,-125.682,-104.756
1747600820.85,0.044,-0.003,-0.005,0.019,0.184,0.032,-81.588,-125.310,-104.652
1747600820.87,0.100,-0.002,0.029,0.073,0.073,0.048,-81.654,-125.030,-104.530
1747600820.88,0.083,0.000,0.041,0.062,-0.096,0.033,-81.742,-124.726,-104.202
1747600820.90,0.056,-0.005,0.043,0.025,-0.162,-0.030,-81.770,-124.590,-103.907
1747600820.92,0.042,-0.030,0.039,-0.035,-0.204,-0.060,-81.723,-124.641,-103.745
1747600820.94,0.017,-0.006,0.042,0.006,-0.249,-0.027,-81.671,-124.872,-103.725
1747600820.96,-0.004,0.002,-0.005,-0.041,-0.280,-0.007,-81.665,-125.363,-103.904
1747600820.98,-0.044,-0.022,0.005,-0.097,-0.222,0.007,-81.623,-126.369,-104.616
1747600821.00,-0.068,0.015,-0.009,-0.053,-0.091,-0.003,-81.572,-127.132,-105.205
1747600821.02,-0.058,0.010,-0.013,-0.054,-0.011,0.011,-81.539,-127.549,-105.580
1747600821.04,-0.010,-0.028,-0.004,-0.049,-0.023,0.020,-81.513,-128.003,-106.026
1747600821.06,0.039,0.004,-0.006,0.027,-0.130,0.024,-81.513,-128.220,-106.166
1747600821.08,0.011,0.037,-0.008,0.123,-0.259,0.032,-81.578,-127.954,-105.671
1747600821.10,-0.017,0.009,-0.039,0.159,-0.235,0.029,-81.690,-127.332,-104.730
1747600821.12,-0.033,-0.022,-0.019,0.159,-0.064,0.032,-81.816,-126.553,-103.772
1747600821.14,-0.064,-0.008,-0.001,0.130,0.092,0.008,-81.940,-125.716,-102.953
1747600821.16,-0.047,-0.000,0.030,0.078,0.138,0.038,-82.035,-125.073,-102.438
1747600821.18,0.015,-0.000,0.047,0.063,0.141,0.049,-82.128,-124.532,-102.056
1747600821.20,0.069,0.000,0.034,0.034,0.115,0.038,-82.198,-124.112,-101.789
1747600821.22,0.090,-0.017,0.034,0.075,0.007,0.013,-82.239,-123.787,-101.538
1747600821.24,0.062,-0.005,0.020,0.117,-0.102,0.007,-82.296,-123.155,-100.849
1747600821.26,0.008,-0.001,0.019,0.089,-0.242,0.010,-82.366,-122.754,-100.237
1747600821.28,-0.028,-0.009,0.006,0.028,-0.271,-0.030,-82.395,-122.683,-99.854
1747600821.30,-0.013,-0.014,0.038,0.045,-0.205,-0.022,-82.394,-122.778,-99.669
1747600821.32,-0.014,0.001,0.039,0.069,-0.117,-0.009,-82.425,-122.608,-99.314
1747600821.34,-0.029,0.001,0.017,0.137,-0.067,0.023,-82.493,-122.116,-98.715
1747600821.36,-0.049,0.012,0.003,0.168,-0.153,0.039,-82.614,-121.173,-97.654
1747600821.38,-0.059,-0.011,0.011,0.159,-0.190,0.048,-82.739,-120.471,-96.730
1747600821.40,-0.036,-0.016,0.024,0.198,-0.169,0.034,-82.839,-119.827,-95.873
1747600821.42,-0.007,-0.004,0.009,0.286,-0.137,-0.004,-82.937,-118.476,-94.335
1747600821.44,0.025,0.103,-0.004,0.414,-0.274,-0.106,-83.006,-115.653,-91.274
1747600821.46,0.093,0.111,-0.027,0.588,-0.547,0.009,-83.165,-111.513,-86.625
1747600821.48,0.071,-0.054,0.004,0.607,-0.582,0.067,-83.453,-106.789,-81.189
1747600821.50,-0.001,-0.086,0.043,0.653,-0.509,0.034,-83.675,-101.455,-75.205
1747600821.52,-0.053,-0.030,0.018,0.874,-0.472,0.154,-83.893,-94.100,-67.246
1747600821.54,-0.149,0.000,0.019,0.909,-0.392,0.262,-84.133,-84.800,-57.380
1747600821.56,-0.213,-0.028,0.025,0.903,-0.147,0.259,-84.247,-74.516,-46.732
1747600821.58,-0.173,-0.048,0.007,0.879,0.319,0.247,-84.154,-64.021,-36.258
1747600821.60,-0.050,-0.052,0.089,0.842,0.716,0.259,-83.903,-53.931,-26.737
1747600821.62,-0.005,0.001,0.090,0.947,0.510,0.239,-83.447,-44.517,-18.028
1747600821.64,-0.012,0.038,0.012,1.018,0.128,0.309,-82.787,-36.195,-10.343
1747600821.66,-0.008,0.012,0.000,0.930,0.268,0.265,-82.015,-29.227,-3.884
1747600821.68,0.002,-0.063,0.115,0.813,0.478,0.203,-81.257,-24.207,0.389
1747600821.70,0.023,-0.070,0.063,0.919,0.251,0.194,-80.435,-20.116,3.712
1747600821.72,0.031,0.034,-0.061,1.015,-0.045,0.179,-79.440,-16.965,6.483
1747600821.74,0.087,0.062,-0.025,1.039,-0.015,0.244,-78.374,-14.167,9.056
1747600821.76,0.006,-0.028,-0.046,0.863,0.020,0.217,-77.366,-11.826,11.149
1747600821.78,-0.078,-0.132,-0.052,0.882,0.139,0.211,-76.455,-9.901,12.744
1747600821.80,-0.019,-0.058,-0.074,0.992,0.392,0.175,-75.432,-8.047,14.074
1747600821.82,0.105,-0.002,-0.094,1.091,0.377,0.212,-74.287,-6.288,15.187
1747600821.84,0.153,-0.005,-0.094,1.056,0.362,0.370,-73.063,-4.284,16.575
1747600821.86,0.054,-0.051,-0.036,0.793,0.308,0.442,-72.047,-2.255,18.065
1747600821.88,-0.016,-0.104,0.001,0.827,0.314,0.428,-71.132,-0.362,19.444
1747600821.90,0.057,-0.047,0.027,0.910,0.206,0.397,-70.170,1.340,20.687
1747600821.92,0.118,0.025,-0.031,1.166,-0.087,0.258,-68.949,2.289,21.439
1747600821.94,0.063,0.067,0.016,1.172,-0.174,0.184,-67.587,2.631,21.760
1747600821.96,-0.070,0.005,-0.056,0.954,-0.000,0.273,-66.360,2.929,22.038
1747600821.98,-0.112,-0.069,0.017,0.860,0.037,0.332,-65.297,3.606,22.564
1747600822.00,0.003,-0.028,0.080,0.923,0.093,0.303,-64.304,4.338,23.274
1747600822.02,0.118,0.019,0.018,1.114,-0.108,0.242,-63.109,4.760,23.767
1747600822.04,0.058,0.066,0.024,1.133,0.108,0.248,-61.776,5.068,24.135
1747600822.06,-0.080,0.069,0.055,0.777,0.078,0.162,-60.655,5.450,24.398
1747600822.08,-0.044,-0.031,0.024,0.680,0.005,0.322,-59.803,5.810,24.762
1747600822.10,0.236,-0.046,0.098,0.796,-0.281,0.391,-58.955,6.277,25.441
1747600822.12,0.126,0.046,0.009,1.076,-0.571,0.273,-57.852,6.175,25.957
1747600822.14,-0.075,0.145,-0.044,1.224,-0.350,0.039,-56.498,5.697,26.039
1747600822.16,-0.199,0.127,-0.060,1.086,0.049,-0.136,-55.182,5.232,25.677
1747600822.18,-0.090,-0.075,-0.009,0.866,0.055,0.044,-54.082,5.039,25.357
1747600822.20,0.109,-0.224,0.047,0.817,0.077,0.256,-53.121,5.263,25.529
1747600822.22,0.151,-0.151,0.048,0.889,0.006,0.322,-52.127,5.670,25.957
1747600822.24,0.104,0.092,-0.023,1.010,-0.055,0.185,-51.006,5.862,26.266
1747600822.26,0.020,0.207,0.030,1.003,-0.148,0.031,-49.828,5.752,26.254
1747600822.28,-0.013,0.082,-0.036,0.873,-0.305,0.060,-48.772,5.385,26.142
1747600822.30,0.056,-0.113,0.040,0.845,-0.228,0.211,-47.785,5.161,26.251
1747600822.32,0.041,-0.061,0.018,0.879,-0.229,0.230,-46.789,5.076,26.506
1747600822.34,0.013,0.097,0.044,0.973,-0.102,0.142,-45.718,5.018,26.696
1747600822.36,0.004,0.122,0.054,0.942,0.069,0.053,-44.601,5.012,26.699
1747600822.38,-0.043,-0.029,-0.060,0.799,-0.024,0.098,-43.614,5.026,26.679
1747600822.40,0.010,-0.141,-0.002,0.748,0.049,0.234,-42.730,5.143,26.845
1747600822.42,0.076,-0.021,-0.008,0.812,-0.015,0.216,-41.834,5.357,27.100
1747600822.44,0.003,0.163,0.049,0.991,-0.142,0.121,-40.780,5.348,27.233
1747600822.46,-0.053,0.119,0.068,1.030,-0.119,-0.005,-39.600,5.145,27.162
1747600822.48,-0.067,-0.097,-0.084,0.846,-0.067,0.021,-38.532,4.971,27.025
1747600822.50,-0.065,-0.192,-0.062,0.708,0.027,0.212,-37.642,4.972,27.103
1747600822.52,0.015,-0.011,0.037,0.778,0.096,0.190,-36.790,5.199,27.320
1747600822.54,-0.059,0.171,0.042,0.952,-0.017,0.075,-35.795,5.287,27.396
1747600822.56,0.016,0.072,0.112,1.052,-0.064,-0.059,-34.649,5.177,27.273
1747600822.58,0.051,-0.131,-0.076,0.978,-0.140,-0.056,-33.480,4.931,27.053
1747600822.60,-0.004,-0.205,-0.056,0.818,-0.041,0.191,-32.459,4.781,27.028
1747600822.62,0.003,-0.087,0.000,0.784,0.048,0.257,-31.537,4.934,27.255
1747600822.64,0.034,0.103,0.013,0.909,-0.095,0.188,-30.559,5.026,27.561
1747600822.66,0.038,0.091,0.103,1.017,-0.154,0.006,-29.439,4.878,27.744
1747600822.68,-0.038,-0.051,-0.106,0.914,-0.239,-0.048,-28.326,4.575,27.769
1747600822.70,-0.108,-0.166,-0.073,0.823,-0.100,0.133,-27.347,4.317,27.954
1747600822.72,0.131,-0.031,0.021,0.773,-0.073,0.283,-26.433,4.325,28.357
1747600822.74,0.183,0.161,0.058,0.868,-0.279,0.367,-25.475,4.294,28.895
1747600822.76,0.063,0.075,0.056,0.914,-0.291,0.426,-24.420,4.099,29.548
1747600822.78,0.000,-0.017,0.096,0.943,0.029,0.356,-23.323,4.120,30.182
1747600822.80,-0.035,-0.144,-0.108,0.838,0.115,0.325,-22.278,4.346,30.763
1747600822.82,-0.016,-0.185,-0.115,0.820,0.136,0.295,-21.308,4.623,31.336
1747600822.84,0.022,-0.039,-0.054,0.803,0.038,0.297,-20.356,4.815,31.870
1747600822.86,-0.000,0.119,0.087,0.782,-0.079,0.346,-19.415,4.896,32.426
1747600822.88,-0.086,0.192,0.073,0.822,-0.054,0.303,-18.469,4.908,32.993
1747600822.90,-0.083,0.114,-0.016,0.864,-0.059,0.176,-17.490,4.924,33.456
1747600822.92,-0.108,-0.025,-0.135,0.893,-0.066,0.041,-16.476,4.839,33.736
1747600822.94,-0.045,-0.113,-0.043,0.900,0.126,-0.033,-15.449,4.850,33.907
1747600822.96,-0.072,-0.009,0.070,0.848,0.127,0.078,-14.457,5.000,34.070
1747600822.98,-0.087,0.258,0.146,0.850,0.052,0.061,-13.481,5.112,34.296
1747600823.00,0.041,0.119,-0.081,0.910,-0.004,-0.037,-12.462,5.121,34.432
1747600823.02,0.138,-0.159,-0.149,0.850,0.006,-0.185,-11.460,5.085,34.461
1747600823.04,-0.158,-0.215,-0.072,0.733,0.127,-0.161,-10.577,5.088,34.404
1747600823.06,-0.030,-0.121,-0.052,0.704,0.208,-0.093,-9.772,5.277,34.384
1747600823.08,0.082,0.156,0.027,0.660,0.099,-0.056,-8.987,5.421,34.424
1747600823.10,0.099,0.205,-0.080,0.603,0.083,0.011,-8.273,5.492,34.596
1747600823.12,0.168,0.070,-0.173,0.585,0.010,0.038,-7.594,5.531,34.758
1747600823.14,0.033,0.015,-0.125,0.534,0.133,0.047,-6.945,5.608,34.987
1747600823.16,-0.094,0.078,-0.049,0.450,0.267,0.012,-6.370,5.845,35.211
1747600823.18,-0.073,0.144,-0.038,0.409,0.163,-0.005,-5.883,6.116,35.424
1747600823.20,0.018,0.113,-0.067,0.399,-0.036,-0.139,-5.440,6.197,35.784
1747600823.22,0.044,-0.069,-0.124,0.345,-0.080,-0.206,-5.054,6.085,35.810
1747600823.24,-0.017,-0.137,-0.096,0.298,0.050,-0.211,-4.718,6.042,35.765
1747600823.26,-0.091,-0.040,-0.035,0.252,0.216,-0.197,-4.427,6.178,35.714
1747600823.28,0.009,-0.030,0.006,0.221,0.190,-0.163,-4.184,6.403,35.676
1747600823.30,0.091,-0.056,-0.035,0.171,0.069,-0.134,-3.981,6.540,35.673
1747600823.32,0.171,-0.046,-0.042,0.127,-0.065,-0.067,-3.817,6.529,35.720
1747600823.34,0.117,-0.053,-0.010,0.089,-0.056,0.034,-3.704,6.445,35.878
1747600823.36,0.047,-0.051,0.011,0.106,0.051,0.114,-3.587,6.438,36.121
1747600823.38,-0.004,-0.043,0.020,0.136,0.145,0.144,-3.433,6.567,36.431
1747600823.40,-0.025,-0.017,0.024,0.170,0.121,0.136,-3.242,6.757,36.716
1747600823.42,0.042,-0.001,0.017,0.187,0.005,0.071,-3.017,6.848,36.968
1747600823.44,0.027,-0.025,-0.012,0.188,-0.049,0.036,-2.791,6.817,37.170
1747600823.46,-0.030,0.009,-0.029,0.198,-0.013,0.031,-2.562,6.775,37.368
1747600823.48,-0.069,0.027,0.006,0.233,0.095,0.018,-2.306,6.818,37.524
1747600823.50,-0.020,0.008,-0.022,0.241,0.066,0.000,-2.037,6.927,37.660
1747600823.52,0.043,0.029,-0.015,0.236,0.020,-0.027,-1.770,6.996,37.771
1747600823.54,0.022,0.031,-0.052,0.216,-0.002,-0.013,-1.529,6.995,37.871
1747600823.56,0.005,0.021,-0.037,0.149,0.118,0.001,-1.334,7.034,38.000
1747600823.58,-0.039,0.016,-0.085,0.078,0.178,-0.013,-1.229,7.188,38.127
1747600823.60,0.047,-0.053,-0.097,-0.002,0.124,-0.028,-1.196,7.383,38.266
1747600823.62,0.072,-0.008,-0.171,-0.160,0.123,-0.007,-1.295,7.508,38.418
1747600823.64,-0.042,-0.035,-0.238,-0.347,0.162,0.019,-1.578,7.692,38.642
1747600823.66,0.007,-0.062,-0.270,-0.522,0.057,-0.032,-2.071,7.832,38.896
1747600823.68,0.087,-0.094,-0.242,-0.704,-0.040,-0.044,-2.769,7.829,39.123
1747600823.70,0.071,-0.059,-0.211,-0.846,-0.029,0.002,-3.654,7.774,39.407
1747600823.72,0.047,-0.011,-0.156,-0.953,0.061,0.034,-4.673,7.813,39.747
1747600823.74,0.087,0.011,-0.140,-1.062,0.051,-0.000,-5.810,7.906,40.088
1747600823.76,0.077,-0.040,-0.079,-1.153,-0.002,-0.027,-7.062,7.960,40.402
1747600823.78,0.063,-0.056,-0.126,-1.254,-0.041,0.006,-8.428,7.944,40.733
1747600823.80,0.086,-0.055,-0.095,-1.296,-0.010,0.033,-9.868,7.962,41.097
1747600823.82,0.026,-0.025,-0.059,-1.353,0.057,-0.037,-11.372,8.018,41.433
1747600823.84,-0.053,-0.078,-0.050,-1.415,0.046,-0.074,-12.942,8.115,41.709
1747600823.86,-0.020,-0.108,-0.068,-1.473,0.076,-0.108,-14.593,8.214,41.953
1747600823.88,0.019,-0.101,-0.018,-1.443,0.072,-0.249,-16.269,8.315,42.079
1747600823.90,-0.051,-0.099,-0.002,-1.446,0.086,-0.335,-17.949,8.357,42.066
1747600823.92,-0.057,-0.100,0.017,-1.500,0.144,-0.300,-19.671,8.450,42.017
1747600823.94,0.008,-0.105,-0.020,-1.493,0.230,-0.267,-21.420,8.648,42.000
1747600823.95,-0.004,-0.085,-0.010,-1.500,0.269,-0.252,-23.147,8.918,42.015
1747600823.97,-0.052,-0.051,0.018,-1.555,0.208,-0.256,-24.921,9.190,42.020
1747600824.00,-0.009,-0.057,-0.003,-1.550,0.119,-0.214,-26.716,9.390,42.063
1747600824.01,0.068,-0.075,0.019,-1.494,0.023,-0.204,-28.469,9.491,42.118
1747600824.03,0.078,-0.103,0.018,-1.474,0.033,-0.212,-30.178,9.534,42.160
1747600824.05,0.021,-0.123,-0.002,-1.490,0.105,-0.207,-31.885,9.655,42.164
1747600824.07,-0.061,-0.103,0.002,-1.540,0.161,-0.136,-33.624,9.847,42.247
1747600824.09,-0.010,-0.060,0.049,-1.522,0.117,-0.128,-35.377,10.143,42.407
1747600824.11,0.020,-0.039,-0.009,-1.495,0.047,-0.136,-37.097,10.353,42.550
1747600824.13,0.053,-0.037,-0.076,-1.487,-0.040,-0.195,-38.802,10.438,42.609
1747600824.15,0.038,-0.043,-0.022,-1.560,-0.142,-0.207,-40.543,10.398,42.603
1747600824.17,0.016,-0.032,0.022,-1.651,-0.164,-0.125,-42.384,10.360,42.660
1747600824.19,0.021,-0.003,0.035,-1.636,-0.133,-0.092,-44.250,10.396,42.824
1747600824.21,0.079,0.010,-0.049,-1.625,-0.262,-0.115,-46.110,10.413,43.007
1747600824.23,0.050,-0.025,-0.047,-1.578,-0.245,-0.235,-47.940,10.249,43.032
1747600824.25,-0.002,-0.073,0.001,-1.582,-0.262,-0.275,-49.756,9.977,42.889
1747600824.27,-0.023,-0.114,-0.022,-1.649,-0.195,-0.234,-51.635,9.771,42.789
1747600824.29,-0.018,-0.084,-0.007,-1.689,-0.146,-0.233,-53.552,9.625,42.706
1747600824.31,0.047,-0.036,0.029,-1.664,-0.108,-0.329,-55.501,9.517,42.522
1747600824.33,0.052,-0.015,-0.044,-1.629,-0.266,-0.325,-57.414,9.219,42.225
1747600824.35,0.048,-0.009,-0.013,-1.642,-0.362,-0.382,-59.329,8.679,41.806
1747600824.37,0.073,-0.053,0.015,-1.645,-0.318,-0.390,-61.246,8.005,41.251
1747600824.39,0.053,-0.058,0.013,-1.585,-0.330,-0.359,-63.125,7.250,40.575
1747600824.41,0.005,-0.035,0.026,-1.629,-0.365,-0.377,-64.999,6.474,39.915
1747600824.43,0.004,-0.030,0.003,-1.638,-0.315,-0.366,-66.902,5.565,39.098
1747600824.45,-0.016,-0.014,0.051,-1.560,-0.219,-0.481,-68.772,4.526,38.032
1747600824.47,-0.035,-0.016,0.016,-1.529,-0.098,-0.487,-70.566,3.148,36.496
1747600824.49,0.011,-0.056,0.020,-1.522,0.038,-0.430,-72.323,1.777,34.834
1747600824.51,0.043,-0.050,0.015,-1.648,0.074,-0.413,-74.120,0.372,32.994
1747600824.53,-0.008,-0.011,0.012,-1.697,-0.047,-0.420,-76.050,-1.406,30.893
1747600824.55,0.032,-0.012,0.025,-1.525,0.008,-0.446,-77.870,-4.081,27.873
1747600824.57,0.046,-0.031,-0.019,-1.302,0.273,-0.483,-79.411,-7.263,24.204
1747600824.59,-0.024,-0.028,0.000,-1.312,0.312,-0.424,-80.796,-11.167,19.564
1747600824.61,-0.141,-0.058,-0.074,-1.271,0.354,-0.469,-82.110,-16.395,13.605
1747600824.63,-0.059,-0.101,-0.006,-1.318,0.461,-0.391,-83.329,-23.694,5.378
1747600824.65,0.068,-0.101,-0.027,-1.293,0.370,-0.286,-84.464,-32.920,-4.769
1747600824.67,0.123,-0.034,-0.011,-1.155,0.312,-0.281,-85.362,-45.547,-18.204
1747600824.69,0.053,0.072,-0.057,-0.836,0.276,-0.310,-85.797,-59.655,-32.854
1747600824.71,-0.120,0.081,-0.029,-0.653,0.442,-0.316,-85.811,-71.266,-44.908
1747600824.73,-0.232,-0.038,0.019,-0.827,0.464,-0.416,-85.592,-82.848,-57.053
1747600824.75,-0.155,-0.124,0.017,-0.929,0.594,-0.384,-85.147,-94.924,-69.749
1747600824.77,0.031,-0.087,0.065,-0.887,0.734,-0.274,-84.587,-104.910,-80.563
1747600824.79,0.096,0.050,0.011,-0.739,0.507,-0.188,-84.022,-112.155,-88.603
1747600824.81,0.042,0.100,-0.048,-0.461,0.130,-0.118,-83.596,-117.049,-93.880
1747600824.83,0.006,0.034,-0.110,-0.278,0.041,-0.146,-83.269,-119.465,-96.377
1747600824.85,0.028,-0.020,-0.080,-0.196,0.097,-0.150,-82.990,-120.591,-97.598
1747600824.87,0.013,-0.006,-0.091,-0.119,0.036,-0.121,-82.745,-120.977,-98.070
1747600824.89,0.006,0.018,-0.070,-0.072,0.152,-0.025,-82.627,-121.284,-98.472
1747600824.91,-0.026,0.020,0.020,-0.095,0.223,0.050,-82.594,-121.692,-99.111
1747600824.93,-0.031,-0.002,0.018,-0.117,0.289,0.058,-82.585,-122.534,-100.260
1747600824.95,-0.044,-0.016,-0.001,-0.090,0.299,-0.009,-82.550,-123.078,-101.149
1747600824.97,-0.015,0.003,-0.017,-0.125,0.306,-0.075,-82.441,-123.244,-101.660
1747600824.99,0.022,0.028,0.020,-0.079,0.257,-0.114,-82.279,-123.356,-102.104
1747600825.01,0.022,0.010,0.028,-0.018,0.088,0.027,-82.218,-123.243,-102.182
1747600825.03,0.020,-0.031,0.052,-0.085,0.016,-0.013,-82.187,-123.582,-102.580
1747600825.05,0.034,-0.033,0.029,-0.117,-0.015,-0.069,-82.081,-123.881,-102.883
1747600825.07,0.048,-0.006,0.018,-0.108,-0.027,-0.085,-81.936,-124.429,-103.408
1747600825.09,0.039,-0.005,0.025,-0.014,0.003,-0.040,-81.843,-124.760,-103.732
1747600825.11,0.000,0.007,0.007,-0.044,-0.092,-0.029,-81.772,-125.413,-104.331
1747600825.13,-0.034,0.001,-0.006,-0.072,-0.152,-0.038,-81.694,-126.252,-105.022
1747600825.15,-0.041,-0.009,-0.013,0.004,-0.073,-0.012,-81.657,-126.757,-105.378
1747600825.17,-0.048,-0.017,0.020,0.095,0.080,0.023,-81.708,-126.583,-105.212
1747600825.19,-0.032,-0.011,0.013,0.108,0.125,0.024,-81.802,-125.935,-104.691
1747600825.21,-0.001,0.023,0.006,0.118,0.026,0.015,-81.888,-125.123,-103.963
1747600825.23,0.011,0.027,0.010,0.090,-0.042,0.007,-81.950,-124.339,-103.157
1747600825.25,0.019,-0.005,0.040,0.081,-0.028,0.013,-81.962,-123.870,-102.637
1747600825.27,0.014,-0.031,0.043,0.076,-0.028,0.025,-81.990,-123.433,-102.171
1747600825.29,-0.010,-0.028,0.025,0.077,-0.040,0.020,-82.041,-123.185,-101.878
1747600825.31,-0.012,0.006,-0.003,0.151,-0.092,0.012,-82.130,-122.620,-101.235
1747600825.33,-0.033,0.020,0.001,0.207,-0.124,0.037,-82.246,-122.016,-100.490
1747600825.35,-0.042,-0.002,-0.003,0.197,-0.073,0.046,-82.379,-121.526,-99.858
1747600825.37,-0.040,-0.026,0.001,0.186,0.007,0.027,-82.479,-120.678,-98.960
1747600825.39,-0.018,-0.018,-0.000,0.260,-0.015,0.043,-82.610,-119.255,-97.529
1747600825.41,0.009,0.016,-0.027,0.335,-0.077,0.094,-82.822,-117.127,-95.338
1747600825.43,-0.018,0.016,0.006,0.345,-0.169,0.117,-83.059,-114.889,-92.931
1747600825.45,-0.037,0.000,0.012,0.367,-0.133,0.071,-83.258,-112.384,-90.233
1747600825.47,-0.042,-0.012,0.033,0.420,-0.126,0.073,-83.487,-109.147,-86.830
1747600825.49,-0.013,-0.019,0.024,0.451,-0.172,0.120,-83.738,-105.372,-82.860
1747600825.51,0.008,-0.037,0.019,0.507,-0.181,0.150,-84.017,-100.947,-78.204
1747600825.53,-0.006,-0.042,0.030,0.605,-0.175,0.149,-84.276,-95.202,-72.232
1747600825.55,-0.044,-0.017,0.021,0.686,-0.344,0.183,-84.486,-88.032,-64.728
1747600825.57,-0.065,0.009,-0.009,0.819,-0.428,0.175,-84.599,-79.373,-55.590
1747600825.59,-0.061,0.022,-0.040,0.995,-0.533,0.213,-84.519,-68.763,-44.365
1747600825.61,-0.015,-0.007,-0.068,1.047,-0.382,0.239,-84.222,-57.436,-32.435
1747600825.63,0.017,-0.057,-0.018,1.171,-0.193,0.280,-83.677,-46.721,-21.340
1747600825.65,-0.000,-0.061,-0.005,1.302,-0.016,0.392,-82.854,-36.393,-11.194
1747600825.67,-0.038,-0.024,0.054,1.226,0.211,0.402,-81.875,-27.559,-2.794
1747600825.69,-0.154,0.028,0.037,1.161,0.226,0.357,-80.802,-21.070,3.206
1747600825.71,-0.086,0.012,0.044,1.095,0.451,0.357,-79.711,-15.987,7.623
1747600825.73,0.022,-0.001,0.103,1.079,0.301,0.226,-78.593,-12.265,10.623
1747600825.75,0.042,-0.018,0.048,1.138,0.045,0.227,-77.401,-9.825,12.575
1747600825.77,0.011,-0.021,-0.001,1.012,-0.051,0.296,-76.210,-7.741,14.406
1747600825.79,0.011,-0.027,-0.002,1.033,0.058,0.324,-75.104,-5.843,16.107
1747600825.81,0.087,0.000,-0.004,1.029,0.025,0.289,-73.966,-4.090,17.571
1747600825.83,0.093,-0.010,-0.104,1.186,-0.022,0.299,-72.737,-2.802,18.675
1747600825.85,0.084,-0.013,0.003,1.034,-0.092,0.363,-71.438,-1.489,19.841
1747600825.87,-0.040,-0.034,-0.026,0.920,-0.036,0.391,-70.352,-0.303,20.981
1747600825.89,-0.047,-0.093,-0.006,0.872,0.272,0.405,-69.334,1.079,22.075
1747600825.91,0.031,-0.063,0.050,1.136,0.180,0.400,-68.213,2.487,23.006
1747600825.93,0.064,0.020,-0.116,1.366,-0.090,0.284,-66.730,3.254,23.648
1747600825.95,0.086,0.032,-0.025,1.108,0.438,0.459,-65.317,4.369,24.208
1747600825.97,-0.215,-0.137,-0.232,0.883,0.254,0.523,-64.081,5.417,24.941
1747600825.99,-0.076,-0.155,-0.014,0.832,0.324,0.570,-63.056,6.831,25.978
1747600826.01,0.056,-0.078,0.014,0.994,0.226,0.586,-61.961,8.202,26.965
1747600826.03,0.140,-0.011,-0.102,1.283,-0.013,0.462,-60.554,9.111,27.749
1747600826.05,-0.030,0.156,0.113,1.182,-0.309,0.214,-59.090,9.096,27.838
1747600826.07,-0.059,0.176,-0.020,0.876,-0.089,0.425,-57.884,8.947,27.882
1747600826.09,0.033,-0.140,0.110,0.890,-0.053,0.405,-56.827,9.376,28.361
1747600826.11,0.091,-0.014,-0.018,1.111,-0.269,0.438,-55.616,9.615,28.793
1747600826.13,0.046,0.151,0.017,1.254,-0.277,0.346,-54.169,9.600,29.123
1747600826.15,-0.088,0.147,0.137,1.022,-0.042,0.189,-52.826,9.519,29.202
1747600826.17,-0.083,-0.024,-0.008,0.803,0.098,0.165,-51.773,9.632,29.280
1747600826.19,-0.012,0.003,-0.011,0.857,0.048,0.225,-50.840,9.699,29.286
1747600826.21,0.095,0.129,-0.038,0.981,-0.121,0.296,-49.758,9.816,29.489
1747600826.23,0.051,0.169,0.031,1.209,-0.069,0.152,-48.486,9.768,29.557
1747600826.25,0.020,0.113,0.142,1.231,-0.014,0.032,-47.070,9.567,29.355
1747600826.27,0.009,-0.048,-0.048,1.106,-0.162,0.079,-45.719,9.251,29.096
1747600826.29,0.027,-0.207,0.026,1.049,-0.167,0.268,-44.482,9.089,29.089
1747600826.31,0.008,-0.124,-0.025,1.013,-0.161,0.154,-43.288,8.980,29.223
1747600826.33,-0.132,0.177,-0.029,1.148,-0.121,-0.141,-42.076,8.642,28.961
1747600826.35,-0.111,0.218,0.110,1.241,-0.126,-0.220,-40.745,8.140,28.399
1747600826.37,0.020,0.035,0.040,1.237,-0.268,-0.179,-39.371,7.543,27.835
1747600826.39,0.171,-0.110,-0.033,1.228,-0.391,-0.134,-38.003,6.929,27.407
1747600826.41,0.098,-0.075,-0.022,1.182,-0.388,-0.073,-36.647,6.188,27.001
1747600826.43,0.086,-0.130,0.049,1.079,-0.232,-0.080,-35.365,5.700,26.741
1747600826.45,0.021,0.041,0.057,1.036,-0.115,0.057,-34.182,5.408,26.575
1747600826.47,0.090,0.039,-0.043,0.942,-0.196,0.147,-33.043,5.270,26.595
1747600826.49,-0.012,-0.041,-0.006,0.945,-0.070,0.227,-31.964,5.158,26.733
1747600826.51,-0.022,-0.094,0.032,1.023,0.060,0.156,-30.818,5.253,26.881
1747600826.53,0.044,-0.022,0.017,1.061,0.013,0.129,-29.609,5.336,26.934
1747600826.55,0.063,0.013,0.051,1.150,0.003,0.178,-28.345,5.366,27.011
1747600826.57,0.036,0.000,-0.090,1.005,0.003,0.260,-27.065,5.450,27.151
1747600826.59,-0.113,-0.032,-0.039,1.001,0.160,0.459,-25.913,5.633,27.486
1747600826.61,-0.035,0.081,0.022,1.033,0.231,0.366,-24.678,6.063,27.893
1747600826.63,0.015,0.132,0.076,1.047,0.011,0.303,-23.460,6.353,28.163
1747600826.65,0.025,0.016,-0.061,1.010,-0.207,0.276,-22.262,6.282,28.372
1747600826.67,-0.033,-0.003,0.023,0.979,-0.153,0.240,-21.101,6.153,28.567
1747600826.69,-0.134,-0.054,-0.038,0.978,0.018,0.206,-19.962,6.108,28.870
1747600826.71,-0.125,-0.099,-0.096,0.953,0.043,0.028,-18.852,6.154,29.163
1747600826.73,-0.103,-0.155,-0.026,0.983,0.134,0.010,-17.742,6.228,29.327
1747600826.75,-0.048,-0.073,-0.008,0.968,-0.066,-0.100,-16.646,6.233,29.415
1747600826.77,-0.010,-0.035,-0.064,0.966,-0.272,-0.049,-15.573,5.955,29.518
1747600826.79,0.095,-0.060,0.021,0.925,-0.288,0.032,-14.486,5.607,29.668
1747600826.81,0.039,-0.031,-0.016,0.931,-0.229,0.020,-13.421,5.278,29.873
1747600826.83,0.020,-0.126,-0.028,0.986,0.044,0.076,-12.326,5.166,30.169
1747600826.85,0.050,-0.154,-0.068,0.869,0.065,0.168,-11.253,5.276,30.464
1747600826.87,0.054,-0.033,-0.044,0.787,0.035,0.287,-10.284,5.355,30.929
1747600826.89,0.087,0.087,-0.018,0.761,-0.148,0.323,-9.367,5.340,31.477
1747600826.91,0.096,0.056,0.015,0.752,-0.239,0.269,-8.479,5.152,32.037
1747600826.93,0.073,-0.087,-0.043,0.759,-0.178,0.303,-7.602,4.908,32.547
1747600826.95,-0.023,-0.130,0.004,0.805,0.137,0.331,-6.681,4.921,33.111
1747600826.97,-0.053,-0.007,0.019,0.770,0.299,0.351,-5.745,5.226,33.976
1747600826.99,-0.130,0.139,0.009,0.702,0.267,0.323,-4.864,5.590,34.583
1747600827.01,-0.039,0.127,-0.068,0.693,0.035,0.157,-4.047,5.799,35.068
1747600827.03,0.109,-0.041,-0.095,0.720,-0.178,-0.019,-3.231,5.697,35.358
1747600827.05,0.018,-0.151,-0.127,0.631,-0.109,-0.012,-2.463,5.477,35.534
1747600827.07,-0.124,-0.060,-0.041,0.612,0.256,0.057,-1.759,5.584,35.757
1747600827.09,-0.031,0.098,-0.041,0.557,0.252,0.111,-1.076,5.890,36.056
1747600827.11,0.037,0.090,-0.057,0.492,0.169,0.080,-0.469,6.143,36.383
1747600827.13,0.103,-0.001,-0.128,0.432,-0.061,0.027,0.061,6.198,36.629
1747600827.15,0.053,-0.066,-0.123,0.372,-0.093,-0.024,0.522,6.074,36.820
1747600827.17,-0.022,0.005,-0.090,0.297,0.053,-0.050,0.898,6.063,36.957
1747600827.19,-0.087,0.006,-0.078,0.255,0.098,-0.051,1.200,6.153,37.094
1747600827.20,0.030,0.049,-0.068,0.218,0.033,-0.057,1.465,6.241,37.237
1747600827.22,0.031,0.040,-0.070,0.165,-0.072,-0.096,1.673,6.207,37.352
1747600827.25,0.007,-0.011,-0.098,0.130,-0.058,-0.122,1.828,6.130,37.429
1747600827.27,-0.017,-0.031,-0.076,0.077,0.029,-0.178,1.929,6.129,37.471
1747600827.28,-0.033,-0.025,-0.088,0.025,0.033,-0.203,1.968,6.166,37.456
1747600827.30,0.045,-0.028,-0.052,-0.027,-0.010,-0.179,1.940,6.198,37.446
1747600827.32,0.055,-0.012,-0.095,-0.149,-0.053,-0.130,1.828,6.166,37.509
1747600827.34,0.054,-0.018,-0.142,-0.254,-0.039,-0.072,1.588,6.113,37.631
1747600827.36,0.066,-0.079,-0.141,-0.373,0.038,-0.118,1.224,6.103,37.782
1747600827.38,-0.004,-0.143,-0.120,-0.496,0.087,-0.095,0.718,6.181,37.935
1747600827.40,0.029,-0.120,-0.175,-0.657,0.138,0.059,0.063,6.321,38.189
1747600827.42,0.062,-0.059,-0.246,-0.816,0.109,0.106,-0.767,6.458,38.584
1747600827.44,0.049,-0.071,-0.163,-0.926,0.162,0.060,-1.742,6.623,38.996
1747600827.46,-0.008,-0.097,-0.156,-1.061,0.102,0.034,-2.860,6.780,39.346
1747600827.48,0.033,-0.071,-0.182,-1.195,-0.002,0.009,-4.144,6.842,39.716
1747600827.50,0.046,-0.047,-0.156,-1.228,-0.004,-0.067,-5.524,6.847,40.028
1747600827.52,-0.039,-0.040,-0.140,-1.304,0.098,-0.108,-6.955,6.906,40.245
1747600827.54,-0.042,-0.066,-0.132,-1.439,0.140,-0.011,-8.513,7.059,40.504
1747600827.56,0.076,-0.080,-0.109,-1.526,0.170,0.046,-10.204,7.287,40.894
1747600827.58,0.083,-0.047,-0.035,-1.552,0.154,-0.071,-11.951,7.510,41.273
1747600827.60,-0.024,-0.073,-0.037,-1.591,0.076,-0.159,-13.750,7.684,41.497
1747600827.62,-0.011,-0.119,-0.050,-1.685,0.025,-0.106,-15.628,7.754,41.716
1747600827.64,0.084,-0.110,-0.011,-1.691,0.016,-0.114,-17.560,7.803,42.002
1747600827.66,-0.015,-0.095,-0.001,-1.639,0.192,-0.181,-19.454,7.955,42.200
1747600827.68,-0.132,-0.125,-0.007,-1.666,0.358,-0.279,-21.369,8.277,42.297
1747600827.70,-0.122,-0.158,-0.007,-1.752,0.380,-0.255,-23.340,8.690,42.361
1747600827.72,-0.005,-0.121,-0.033,-1.787,0.272,-0.209,-25.386,9.097,42.491
1747600827.74,0.060,-0.034,0.045,-1.745,0.140,-0.251,-27.416,9.380,42.635
1747600827.76,0.043,0.015,0.014,-1.688,0.073,-0.272,-29.413,9.477,42.681
1747600827.78,0.087,-0.043,0.051,-1.662,0.131,-0.178,-31.328,9.637,42.769
1747600827.80,0.055,-0.077,-0.020,-1.728,0.158,-0.140,-33.263,9.903,42.967
1747600827.82,0.015,-0.133,-0.035,-1.809,0.144,-0.066,-35.277,10.245,43.251
1747600827.84,0.047,-0.147,0.042,-1.803,0.161,-0.066,-37.323,10.662,43.625
1747600827.86,0.067,-0.098,0.072,-1.795,0.015,-0.104,-39.360,10.987,43.956
1747600827.88,0.059,-0.018,0.088,-1.683,-0.159,-0.123,-41.350,11.148,44.213
1747600827.90,0.080,0.075,0.024,-1.654,-0.245,-0.137,-43.245,11.098,44.448
1747600827.92,0.072,0.022,-0.024,-1.623,-0.183,-0.153,-45.116,11.016,44.648
1747600827.94,-0.053,-0.073,0.009,-1.614,0.028,-0.189,-46.957,11.117,44.832
1747600827.96,-0.160,-0.119,0.000,-1.627,0.270,-0.209,-48.815,11.448,44.966
1747600827.98,-0.100,-0.103,0.066,-1.642,0.341,-0.226,-50.696,11.972,45.083
1747600828.00,0.015,-0.013,0.044,-1.644,0.107,-0.256,-52.587,12.425,45.182
1747600828.02,0.055,0.073,-0.005,-1.529,-0.107,-0.350,-54.431,12.491,45.137
1747600828.04,0.085,0.077,-0.012,-1.416,-0.242,-0.443,-56.170,12.146,44.849
1747600828.06,0.071,0.010,0.004,-1.381,-0.131,-0.556,-57.843,11.669,44.323
1747600828.08,-0.079,0.026,-0.054,-1.495,-0.020,-0.623,-59.583,10.829,43.358
1747600828.10,0.001,-0.108,-0.011,-1.382,-0.138,-0.422,-61.269,10.215,42.586
1747600828.12,0.031,-0.155,0.015,-1.412,0.014,-0.455,-62.934,9.811,41.973
1747600828.14,-0.025,-0.040,0.005,-1.325,-0.256,-0.522,-64.559,9.173,41.099
1747600828.16,-0.057,-0.051,-0.000,-1.300,0.303,-0.411,-66.119,8.414,40.071
1747600828.18,-0.049,-0.100,0.011,-1.418,0.361,-0.444,-67.729,8.262,39.190
1747600828.20,-0.079,0.028,0.002,-1.330,0.097,-0.423,-69.361,7.742,38.061
1747600828.22,0.096,0.091,0.012,-1.197,0.164,-0.349,-70.846,7.189,37.038
1747600828.24,0.198,0.081,0.003,-1.117,-0.006,-0.352,-72.201,6.642,36.026
1747600828.26,0.156,-0.057,-0.072,-1.107,-0.384,-0.262,-73.496,5.717,34.977
1747600828.28,0.026,-0.240,-0.116,-1.208,-0.391,-0.339,-74.828,4.333,33.745
1747600828.30,0.028,-0.100,-0.070,-1.087,-0.288,-0.414,-76.175,2.797,32.215
1747600828.32,-0.115,0.056,-0.043,-1.077,-0.042,-0.402,-77.429,0.699,29.964
1747600828.34,-0.032,-0.031,-0.030,-0.972,0.178,-0.346,-78.582,-1.280,27.546
1747600828.36,-0.006,-0.128,-0.011,-1.084,0.254,-0.309,-79.734,-3.289,24.901
1747600828.38,-0.122,0.016,-0.034,-1.043,0.262,-0.269,-80.932,-5.242,22.270
1747600828.40,-0.023,0.082,-0.042,-0.962,0.259,-0.335,-82.026,-7.980,19.163
1747600828.42,-0.066,-0.063,-0.008,-0.981,0.429,-0.483,-83.024,-12.853,13.881
1747600828.44,-0.048,-0.102,-0.024,-0.874,0.365,-0.324,-83.928,-18.898,7.299
1747600828.46,0.040,0.020,-0.074,-0.733,0.245,-0.238,-84.664,-24.824,1.005
1747600828.48,0.155,0.037,-0.003,-0.594,0.154,-0.166,-85.223,-30.922,-5.347
1747600828.50,0.113,-0.075,-0.002,-0.562,0.044,-0.125,-85.664,-36.765,-11.367
1747600828.52,-0.040,-0.134,-0.010,-0.573,0.086,-0.207,-86.039,-44.629,-19.313
1747600828.54,-0.040,0.045,-0.024,-0.538,0.093,-0.194,-86.297,-53.947,-28.768
1747600828.56,-0.079,0.006,-0.030,-0.453,-0.085,-0.224,-86.374,-63.581,-38.440
1747600828.58,0.049,-0.029,-0.045,-0.360,-0.202,-0.146,-86.361,-71.575,-46.248
1747600828.60,0.076,0.013,-0.023,-0.242,0.028,0.037,-86.336,-77.402,-52.037
1747600828.62,-0.019,0.044,-0.020,-0.134,-0.084,0.059,-86.464,-80.170,-54.786
1747600828.64,-0.126,-0.026,0.014,-0.154,-0.112,-0.074,-86.472,-83.246,-57.738
1747600828.66,-0.098,0.032,-0.013,0.024,0.116,-0.014,-86.401,-84.666,-59.150
1747600828.68,-0.026,0.047,0.041,0.056,0.230,0.064,-86.441,-83.147,-57.860
1747600828.70,0.034,-0.020,0.035,-0.094,0.202,0.008,-86.493,-83.099,-58.067
1747600828.72,0.014,-0.041,0.018,-0.079,0.119,-0.050,-86.475,-84.843,-59.990
1747600828.74,0.042,0.033,-0.029,0.048,0.093,-0.025,-86.412,-85.036,-60.305
1747600828.76,0.048,0.021,0.001,-0.015,-0.051,-0.012,-86.393,-84.530,-59.821
1747600828.78,-0.011,-0.002,0.004,-0.021,0.024,-0.030,-86.381,-85.371,-60.628
1747600828.80,-0.035,0.040,-0.020,0.038,0.134,0.014,-86.374,-85.118,-60.477
1747600828.82,0.015,-0.013,-0.031,0.032,0.106,0.044,-86.424,-83.930,-59.428
1747600828.84,0.049,-0.044,-0.020,-0.067,0.066,0.027,-86.503,-83.870,-59.471
1747600828.86,-0.008,0.007,-0.003,-0.100,0.063,-0.029,-86.515,-85.683,-61.361
1747600828.88,-0.054,0.010,-0.017,0.039,0.064,-0.014,-86.474,-86.209,-61.963
1747600828.90,-0.068,-0.012,-0.023,0.118,0.089,-0.013,-86.458,-84.319,-60.157
1747600828.92,-0.059,-0.004,-0.009,0.092,0.118,-0.034,-86.431,-82.004,-57.966
1747600828.94,0.016,0.011,-0.005,0.087,0.080,-0.058,-86.364,-80.336,-56.413
1747600828.96,0.021,-0.040,-0.021,0.081,0.060,-0.072,-86.269,-79.034,-55.173
1747600828.98,-0.003,-0.010,-0.001,0.056,0.073,-0.075,-86.132,-78.009,-54.237
1747600829.00,0.023,0.012,0.026,0.014,0.083,-0.033,-86.033,-77.450,-53.773
1747600829.02,0.052,0.015,0.025,0.019,-0.007,-0.021,-86.007,-77.466,-53.831
1747600829.04,-0.029,-0.001,-0.022,0.057,-0.071,0.013,-86.002,-76.645,-52.961
1747600829.06,-0.013,-0.017,0.002,0.059,-0.047,-0.028,-85.985,-75.750,-51.991
1747600829.08,0.018,0.014,-0.001,0.024,-0.029,-0.028,-85.951,-75.525,-51.733
1747600829.10,0.004,-0.016,-0.011,-0.006,-0.062,0.010,-85.999,-75.938,-52.087
1747600829.12,-0.016,-0.006,-0.006,-0.026,-0.019,0.007,-86.004,-76.040,-52.138
1747600829.14,-0.001,0.001,0.004,-0.049,0.011,-0.011,-85.988,-76.621,-52.712
1747600829.16,-0.011,0.028,-0.006,-0.007,0.086,-0.010,-85.996,-77.070,-53.226
1747600829.18,-0.005,0.005,-0.019,0.001,0.043,-0.018,-85.989,-76.749,-52.991
1747600829.20,-0.011,-0.018,-0.033,0.019,-0.017,-0.009,-85.955,-76.504,-52.754
1747600829.22,-0.013,-0.023,-0.027,0.026,0.018,-0.022,-85.928,-76.256,-52.505
1747600829.24,0.013,-0.008,-0.013,0.010,0.025,-0.008,-85.896,-76.026,-52.297
1747600829.26,0.015,0.020,-0.003,0.024,0.061,-0.004,-85.878,-75.441,-51.765
1747600829.28,0.024,0.020,0.003,0.030,0.060,0.006,-85.846,-74.399,-50.792
1747600829.30,0.026,-0.008,-0.011,0.053,-0.004,0.018,-85.818,-73.214,-49.638
1747600829.32,-0.013,-0.014,-0.023,0.062,-0.005,-0.024,-85.795,-72.094,-48.504
1747600829.34,-0.019,-0.004,0.005,0.039,-0.041,-0.043,-85.747,-71.430,-47.819
1747600829.36,0.006,0.000,0.006,0.010,-0.072,-0.011,-85.737,-71.357,-47.675
1747600829.38,0.035,0.001,0.011,0.026,-0.040,-0.003,-85.752,-70.996,-47.248
1747600829.40,0.030,0.003,-0.014,0.056,-0.017,0.006,-85.721,-70.026,-46.253
1747600829.42,0.019,-0.007,-0.014,0.052,-0.054,0.023,-85.697,-69.265,-45.451
1747600829.44,-0.021,-0.008,-0.022,0.034,-0.032,0.018,-85.705,-68.745,-44.875
1747600829.46,-0.008,-0.014,-0.005,0.008,-0.009,-0.028,-85.724,-68.578,-44.684
1747600829.48,-0.013,0.004,-0.012,-0.012,-0.014,-0.039,-85.707,-68.663,-44.761
1747600829.50,0.011,-0.011,-0.034,-0.010,-0.044,-0.001,-85.703,-68.714,-44.778
1747600829.52,0.039,0.004,-0.045,0.031,-0.017,0.010,-85.688,-68.135,-44.161
1747600829.54,0.011,0.014,-0.026,0.021,0.008,-0.006,-85.667,-67.781,-43.798
1747600829.56,-0.013,-0.006,-0.016,0.040,0.065,0.009,-85.639,-67.279,-43.330
1747600829.58,-0.018,0.010,-0.005,0.027,0.111,0.004,-85.618,-66.266,-42.418
1747600829.60,0.002,-0.015,-0.007,0.038,0.082,-0.023,-85.603,-65.063,-41.329
1747600829.62,0.011,0.003,-0.033,0.055,0.001,0.010,-85.577,-63.958,-40.274
1747600829.64,0.022,-0.011,-0.034,0.102,-0.031,0.025,-85.543,-62.657,-38.953
1747600829.66,-0.013,0.038,-0.021,0.126,-0.017,-0.003,-85.477,-61.219,-37.470
1747600829.68,0.018,-0.016,-0.008,0.137,0.009,-0.009,-85.396,-59.692,-35.939
1747600829.70,0.009,-0.036,-0.021,0.117,0.057,-0.003,-85.303,-57.912,-34.187
1747600829.72,-0.032,0.012,-0.010,0.093,0.041,-0.012,-85.225,-56.327,-32.660
1747600829.74,0.008,0.026,-0.027,0.078,0.056,-0.006,-85.156,-55.214,-31.600
1747600829.76,0.023,-0.020,-0.030,0.095,0.107,0.009,-85.113,-54.198,-30.671
1747600829.78,0.015,-0.028,-0.033,0.121,0.139,0.018,-85.051,-52.575,-29.191
1747600829.80,-0.017,-0.005,-0.006,0.097,0.149,-0.004,-84.964,-51.244,-28.023
1747600829.82,0.020,0.019,0.002,0.040,0.101,0.018,-84.904,-50.191,-27.116
1747600829.84,0.052,-0.008,0.023,-0.041,0.017,0.041,-84.930,-49.708,-26.704
1747600829.86,0.091,-0.081,0.012,-0.098,-0.050,-0.022,-84.983,-50.108,-27.085
1747600829.88,0.032,-0.032,0.029,-0.130,-0.062,-0.041,-85.034,-51.663,-28.566
1747600829.90,-0.030,0.032,0.033,-0.125,0.009,0.026,-85.123,-53.132,-29.996
1747600829.92,-0.054,0.028,0.039,-0.126,0.074,-0.006,-85.228,-54.202,-31.142
1747600829.94,-0.016,-0.036,-0.022,-0.188,-0.070,0.045,-85.323,-55.845,-32.781
1747600829.96,-0.053,0.036,-0.038,-0.060,-0.053,-0.037,-85.406,-57.350,-34.224
1747600829.98,-0.072,-0.019,-0.043,-0.020,-0.026,0.069,-85.458,-57.657,-34.474
1747600830.00,0.009,0.078,0.005,0.019,-0.095,-0.018,-85.472,-57.720,-34.462
1747600830.02,0.076,-0.008,0.025,0.069,-0.088,0.061,-85.461,-57.100,-33.759
1747600830.04,0.047,-0.053,-0.007,0.096,-0.175,0.069,-85.476,-55.640,-32.149
1747600830.06,0.034,-0.005,-0.022,0.180,-0.292,0.054,-85.436,-53.861,-30.097
1747600830.08,0.008,0.045,-0.048,0.257,-0.371,0.054,-85.328,-51.292,-27.131
1747600830.10,-0.027,0.020,-0.012,0.283,-0.352,0.057,-85.179,-48.284,-23.699
1747600830.12,-0.027,-0.022,0.030,0.327,-0.278,0.065,-85.000,-45.254,-20.296
1747600830.14,-0.030,-0.023,0.045,0.452,-0.231,0.122,-84.749,-41.226,-15.953
1747600830.16,-0.052,-0.004,0.052,0.501,-0.206,0.164,-84.423,-36.483,-10.945
1747600830.18,-0.049,-0.008,0.011,0.585,-0.178,0.172,-84.024,-31.735,-5.953
1747600830.20,-0.007,0.021,-0.004,0.691,-0.180,0.231,-83.488,-26.800,-0.785
1747600830.22,-0.003,0.017,0.034,0.707,-0.187,0.254,-82.883,-22.096,4.157
1747600830.23,-0.049,-0.005,0.048,0.770,-0.352,0.201,-82.189,-18.320,8.273
1747600830.25,-0.092,-0.017,0.019,0.892,-0.282,0.145,-81.332,-15.476,11.546
1747600830.27,-0.054,-0.017,0.027,0.931,-0.025,0.146,-80.354,-13.089,14.139
1747600830.29,0.009,0.001,0.051,0.988,0.075,0.199,-79.319,-10.723,16.481
1747600830.31,-0.034,-0.003,0.046,0.941,0.014,0.259,-78.278,-8.428,18.807
1747600830.33,-0.040,-0.000,0.105,1.034,0.115,0.228,-77.211,-6.359,20.446
1747600830.35,-0.103,0.018,0.010,1.206,0.216,0.171,-75.952,-4.749,21.574
1747600830.37,-0.097,-0.007,0.075,1.129,0.225,0.223,-74.622,-3.260,22.473
1747600830.39,-0.074,-0.050,0.037,1.043,0.331,0.247,-73.407,-1.812,23.310
1747600830.41,-0.030,-0.071,0.041,1.102,0.374,0.293,-72.197,-0.346,24.036
1747600830.43,0.023,-0.008,0.024,1.203,0.331,0.395,-70.875,1.235,24.956
1747600830.45,0.017,0.034,-0.019,1.196,0.202,0.352,-69.486,2.607,25.767
1747600830.47,-0.002,-0.013,-0.054,1.106,0.283,0.351,-68.145,3.688,26.355
1747600830.49,0.033,-0.081,0.023,1.070,0.332,0.459,-66.862,4.908,26.967
1747600830.51,0.043,-0.083,0.063,0.962,0.157,0.564,-65.675,6.340,27.900
1747600830.53,0.004,-0.068,-0.026,0.988,0.008,0.517,-64.485,7.425,29.047
1747600830.55,0.066,-0.050,0.028,1.094,0.024,0.389,-63.265,8.207,29.848
1747600830.57,0.076,0.008,-0.112,1.246,-0.075,0.327,-61.869,8.501,30.284
1747600830.59,0.053,0.055,0.045,1.202,0.011,0.335,-60.447,8.792,30.616
1747600830.61,-0.041,0.002,-0.009,1.219,-0.015,0.402,-58.994,9.114,31.007
1747600830.63,0.021,-0.085,-0.006,1.124,0.137,0.453,-57.604,9.635,31.517
1747600830.65,0.093,-0.084,0.010,1.132,0.000,0.499,-56.253,10.202,32.094
1747600830.67,0.068,0.029,0.053,1.138,-0.149,0.443,-54.855,10.575,32.635
1747600830.69,-0.009,0.068,-0.011,1.123,-0.128,0.373,-53.505,10.702,33.005
1747600830.71,-0.052,0.012,-0.045,1.141,-0.127,0.342,-52.173,10.757,33.264
1747600830.73,-0.089,-0.038,0.036,1.225,-0.059,0.260,-50.783,10.761,33.409
1747600830.75,-0.064,0.004,0.025,1.269,0.052,0.150,-49.325,10.709,33.333
1747600830.77,0.024,0.025,-0.011,1.145,0.127,0.214,-47.942,10.721,33.210
1747600830.79,0.071,0.020,0.055,1.143,0.014,0.298,-46.598,10.882,33.311
1747600830.81,0.061,0.026,0.032,1.220,-0.168,0.252,-45.218,10.844,33.394
1747600830.83,-0.015,0.047,0.044,1.245,-0.107,0.093,-43.780,10.610,33.314
1747600830.85,-0.060,0.052,-0.032,1.161,0.093,0.021,-42.420,10.427,33.027
1747600830.87,-0.008,0.004,0.026,1.076,0.096,0.160,-41.154,10.430,32.843
1747600830.89,0.162,-0.010,0.011,1.041,-0.135,0.300,-39.930,10.449,32.903
1747600830.91,0.153,0.005,0.006,1.098,-0.393,0.290,-38.656,10.242,33.063
1747600830.93,0.009,0.050,0.030,1.094,-0.251,0.129,-37.389,9.862,33.091
1747600830.95,-0.057,0.037,0.027,1.066,-0.108,0.063,-36.143,9.581,32.941
1747600830.97,-0.009,-0.010,-0.002,1.013,-0.049,0.202,-34.956,9.471,32.888
1747600830.99,0.023,0.003,0.011,1.006,-0.035,0.215,-33.774,9.494,32.969
1747600831.01,-0.067,0.009,-0.003,1.029,-0.155,0.108,-32.613,9.382,32.957
1747600831.03,-0.006,0.003,0.024,1.047,-0.155,-0.021,-31.433,9.102,32.794
1747600831.05,0.085,0.052,0.000,1.071,-0.269,0.011,-30.235,8.738,32.535
1747600831.07,0.072,0.085,0.009,1.049,-0.300,0.140,-29.026,8.345,32.427
1747600831.09,0.022,0.055,0.041,1.002,-0.271,0.219,-27.830,8.025,32.477
1747600831.11,-0.082,-0.056,-0.026,1.010,-0.025,0.145,-26.664,7.875,32.541
1747600831.13,-0.079,-0.077,0.013,1.073,0.061,0.069,-25.463,7.903,32.483
1747600831.15,-0.044,0.010,0.009,1.043,-0.099,0.126,-24.249,7.864,32.443
1747600831.17,0.167,0.122,0.006,1.038,-0.339,0.226,-23.046,7.636,32.465
1747600831.19,0.155,0.070,0.031,1.039,-0.445,0.341,-21.822,7.221,32.661
1747600831.21,0.065,-0.058,0.024,1.094,-0.281,0.263,-20.586,6.879,32.990
1747600831.23,-0.068,-0.189,-0.010,1.104,0.066,0.208,-19.311,6.781,33.305
1747600831.25,-0.092,-0.197,-0.055,0.976,0.268,0.180,-18.102,7.022,33.578
1747600831.27,-0.065,-0.076,0.009,0.989,0.213,0.146,-16.973,7.329,33.850
1747600831.29,-0.017,0.099,0.001,1.032,-0.004,0.097,-15.810,7.450,34.077
1747600831.31,0.020,0.079,0.034,1.054,-0.134,0.064,-14.618,7.355,34.218
1747600831.33,-0.043,0.038,0.001,1.031,-0.090,-0.003,-13.421,7.173,34.312
1747600831.35,-0.030,-0.056,-0.113,0.952,0.010,-0.039,-12.312,7.088,34.272
1747600831.37,-0.038,-0.085,-0.101,0.889,0.055,-0.039,-11.263,7.093,34.281
1747600831.39,-0.003,0.028,0.013,0.884,-0.025,0.043,-10.262,7.100,34.387
1747600831.41,0.045,0.126,0.025,0.844,-0.091,0.157,-9.269,7.023,34.575
1747600831.43,0.050,0.044,-0.004,0.873,-0.032,0.175,-8.268,6.953,34.845
