Time,AccX,AccY,AccZ,GyroX,GyroY,GyroZ,Pitch,Roll,Yaw
1747600922.61,0.027,-0.018,-0.003,0.024,0.039,0.013,-83.379,-4.859,-11.359
1747600922.62,0.014,-0.030,-0.024,0.008,-0.013,0.020,-83.354,-4.774,-11.288
1747600922.64,-0.009,0.005,-0.017,0.014,-0.014,0.015,-83.352,-4.651,-11.141
1747600922.66,-0.014,0.009,-0.010,0.014,-0.002,0.003,-83.332,-4.568,-11.045
1747600922.68,-0.010,-0.003,-0.010,0.008,0.006,-0.001,-83.318,-4.476,-10.964
1747600922.70,0.003,-0.016,-0.013,0.001,0.010,0.007,-83.298,-4.362,-10.856
1747600922.72,0.022,0.002,-0.012,0.030,-0.004,0.006,-83.262,-4.284,-10.787
1747600922.74,0.014,0.017,-0.015,0.033,-0.026,-0.000,-83.213,-4.293,-10.770
1747600922.76,-0.007,0.001,-0.010,-0.011,-0.010,0.003,-83.189,-4.353,-10.801
1747600922.78,-0.004,-0.018,0.013,-0.044,0.017,0.016,-83.215,-4.271,-10.734
1747600922.80,0.010,-0.012,0.006,-0.019,-0.022,0.013,-83.247,-4.061,-10.520
1747600922.82,-0.002,0.011,-0.001,0.005,-0.029,-0.003,-83.245,-3.985,-10.413
1747600922.84,-0.017,0.014,-0.011,0.014,-0.014,-0.025,-83.220,-4.145,-10.548
1747600922.86,-0.017,0.008,-0.016,-0.000,0.039,-0.018,-83.209,-4.399,-10.817
1747600922.88,-0.015,-0.006,0.007,-0.027,0.061,0.014,-83.230,-4.331,-10.815
1747600922.90,-0.005,-0.002,0.012,-0.036,0.066,0.022,-83.272,-4.079,-10.637
1747600922.92,0.007,-0.004,0.015,-0.016,0.047,0.006,-83.293,-3.951,-10.572
1747600922.94,0.000,0.013,0.006,-0.011,0.041,-0.016,-83.296,-4.019,-10.692
1747600922.96,-0.009,0.011,0.009,-0.007,0.044,-0.018,-83.303,-4.246,-10.965
1747600922.98,-0.002,-0.001,0.013,-0.008,-0.008,-0.018,-83.319,-4.421,-11.165
1747600923.00,0.001,-0.007,0.020,-0.029,-0.041,-0.001,-83.351,-4.537,-11.253
1747600923.02,0.002,-0.004,0.010,-0.050,-0.040,-0.017,-83.398,-4.690,-11.355
1747600923.04,0.008,-0.012,0.027,-0.042,-0.094,-0.024,-83.462,-5.058,-11.647
1747600923.06,0.015,0.006,0.003,-0.006,-0.159,-0.041,-83.494,-5.561,-12.008
1747600923.08,0.024,0.019,-0.012,0.014,-0.195,-0.031,-83.493,-6.139,-12.378
1747600923.10,0.019,-0.007,-0.002,0.013,-0.172,-0.013,-83.489,-6.499,-12.530
1747600923.12,-0.008,-0.023,-0.016,0.019,-0.171,-0.011,-83.481,-6.715,-12.559
1747600923.14,-0.003,-0.014,-0.018,0.038,-0.170,-0.008,-83.462,-6.982,-12.627
1747600923.16,0.015,0.004,-0.017,0.093,-0.148,0.009,-83.380,-6.955,-12.422
1747600923.18,0.004,0.005,-0.019,0.094,-0.117,0.017,-83.273,-6.778,-12.093
1747600923.20,-0.024,0.002,-0.005,0.094,-0.017,0.029,-83.161,-6.538,-11.768
1747600923.22,0.009,-0.027,0.016,0.091,0.002,0.031,-83.051,-6.156,-11.387
1747600923.24,0.032,-0.006,0.001,0.104,-0.079,0.041,-82.935,-5.745,-10.939
1747600923.26,0.034,0.018,-0.004,0.132,-0.108,0.044,-82.802,-5.312,-10.386
1747600923.28,0.029,0.003,0.015,0.186,-0.100,0.031,-82.623,-5.038,-9.981
1747600923.30,-0.007,-0.014,0.038,0.201,-0.083,0.001,-82.418,-4.866,-9.710
1747600923.32,-0.034,-0.011,0.017,0.191,-0.052,0.005,-82.194,-4.740,-9.497
1747600923.34,-0.022,0.021,0.038,0.195,-0.103,0.001,-81.996,-4.625,-9.302
1747600923.36,-0.001,0.016,0.017,0.244,-0.179,0.010,-81.758,-4.535,-9.044
1747600923.38,0.001,0.006,0.013,0.275,-0.139,-0.016,-81.484,-4.554,-8.880
1747600923.40,-0.030,0.012,-0.001,0.304,-0.109,-0.029,-81.173,-4.803,-8.976
1747600923.42,-0.064,0.016,0.025,0.265,0.045,0.006,-80.866,-4.800,-8.939
1747600923.44,-0.059,-0.020,0.048,0.273,0.137,0.041,-80.583,-4.403,-8.643
1747600923.46,-0.007,-0.028,0.034,0.379,0.157,0.068,-80.225,-3.683,-8.096
1747600923.48,0.025,0.012,-0.016,0.474,0.092,0.091,-79.735,-2.871,-7.408
1747600923.50,0.006,0.036,0.022,0.524,0.047,0.097,-79.169,-2.053,-6.669
1747600923.52,-0.079,0.010,0.021,0.563,0.013,0.088,-78.554,-1.435,-6.052
1747600923.54,-0.104,-0.025,0.036,0.547,0.171,0.105,-77.925,-0.725,-5.436
1747600923.56,-0.078,-0.018,0.055,0.621,0.204,0.071,-77.251,-0.028,-4.956
1747600923.58,-0.025,0.027,0.057,0.655,0.092,0.108,-76.533,0.574,-4.519
1747600923.60,-0.040,0.024,0.047,0.747,0.132,0.086,-75.721,1.070,-4.124
1747600923.62,-0.036,0.002,0.064,0.826,0.144,0.130,-74.830,1.566,-3.763
1747600923.64,-0.039,-0.005,0.050,0.812,0.225,0.188,-73.876,2.371,-3.156
1747600923.66,-0.024,0.003,0.003,0.833,0.192,0.166,-72.912,3.164,-2.576
1747600923.68,-0.009,0.017,0.076,0.811,0.174,0.173,-71.976,3.771,-2.172
1747600923.70,-0.028,-0.000,0.086,0.841,0.040,0.261,-71.013,4.411,-1.605
1747600923.72,-0.018,-0.009,0.032,0.928,0.176,0.183,-69.999,5.006,-1.061
1747600923.74,0.055,-0.022,-0.008,0.937,0.109,0.211,-68.892,5.460,-0.702
1747600923.76,0.023,-0.002,-0.008,0.884,0.150,0.195,-67.843,5.967,-0.265
1747600923.78,-0.024,0.014,-0.021,0.945,0.123,0.217,-66.787,6.380,0.105
1747600923.80,0.071,-0.014,-0.017,1.022,0.173,0.158,-65.632,6.743,0.355
1747600923.82,0.055,-0.040,-0.017,0.942,0.047,0.183,-64.486,6.959,0.530
1747600923.84,-0.005,-0.053,0.034,0.885,0.073,0.268,-63.424,7.313,0.932
1747600923.86,-0.057,-0.022,-0.015,0.914,0.061,0.303,-62.358,7.732,1.406
1747600923.88,-0.006,-0.007,-0.015,1.025,0.012,0.128,-61.237,7.971,1.818
1747600923.90,-0.028,0.043,-0.012,0.954,0.027,0.041,-60.088,7.858,1.802
1747600923.92,-0.096,0.050,0.029,0.845,0.205,0.079,-59.055,7.806,1.742
1747600923.94,-0.066,-0.003,0.121,0.738,0.322,0.228,-58.144,8.211,1.973
1747600923.96,0.038,-0.020,0.059,0.668,0.233,0.347,-57.308,8.891,2.496
1747600923.98,0.099,0.014,-0.012,0.745,-0.048,0.354,-56.450,9.396,3.116
1747600924.00,0.070,0.036,-0.019,0.850,-0.136,0.308,-55.491,9.611,3.670
1747600924.02,-0.007,0.069,0.081,0.821,-0.055,0.191,-54.468,9.665,4.017
1747600924.04,-0.095,0.016,-0.039,0.696,-0.105,0.148,-53.598,9.619,4.200
1747600924.06,0.023,-0.027,-0.039,0.615,-0.169,0.287,-52.835,9.626,4.548
1747600924.08,0.106,0.016,0.053,0.745,-0.223,0.335,-52.021,9.714,5.114
1747600924.10,-0.072,0.093,-0.044,0.862,-0.294,0.185,-51.035,9.578,5.503
1747600924.12,-0.068,0.075,-0.043,0.772,-0.065,0.089,-50.095,9.338,5.674
1747600924.14,-0.066,-0.063,0.005,0.650,0.015,0.063,-49.282,9.270,5.765
1747600924.16,-0.062,-0.114,-0.046,0.550,0.061,0.209,-48.600,9.354,5.959
1747600924.18,-0.011,-0.025,0.017,0.667,-0.014,0.109,-47.893,9.483,6.274
1747600924.20,-0.075,0.094,0.004,0.776,0.033,-0.075,-47.071,9.348,6.093
1747600924.22,-0.063,0.052,0.078,0.799,0.222,-0.151,-46.182,9.203,5.675
1747600924.24,0.014,-0.037,-0.065,0.607,0.161,-0.047,-45.405,9.143,5.282
1747600924.26,0.294,-0.085,0.052,0.543,0.231,0.277,-44.764,9.428,5.337
1747600924.28,0.336,-0.036,0.033,0.569,0.032,0.453,-44.054,9.902,5.769
1747600924.30,0.271,-0.006,-0.030,0.583,-0.126,0.535,-43.314,10.269,6.389
1747600924.32,0.219,-0.060,0.004,0.558,-0.262,0.492,-42.551,10.483,7.018
1747600924.34,0.034,-0.117,-0.071,0.541,-0.353,0.534,-41.830,10.518,7.626
1747600924.36,-0.136,-0.120,-0.087,0.485,-0.223,0.496,-41.144,10.617,8.275
1747600924.38,-0.388,0.018,-0.047,0.494,-0.031,0.315,-40.514,10.761,8.752
1747600924.40,-0.289,0.179,-0.031,0.606,0.096,0.012,-39.865,10.902,8.848
1747600924.42,-0.121,0.176,-0.014,0.681,-0.075,-0.105,-39.139,10.730,8.579
1747600924.44,-0.053,0.057,0.107,0.672,-0.161,-0.193,-38.415,10.349,8.173
1747600924.46,-0.061,0.030,-0.033,0.616,-0.223,-0.171,-37.723,9.862,7.748
1747600924.48,-0.003,0.027,0.035,0.647,-0.053,-0.211,-37.056,9.432,7.338
1747600924.50,0.030,0.046,0.007,0.654,-0.021,-0.228,-36.365,9.125,6.864
1747600924.52,0.150,-0.030,0.001,0.672,0.007,-0.134,-35.655,8.881,6.467
1747600924.54,0.257,-0.104,-0.019,0.698,-0.095,-0.099,-34.876,8.667,6.153
1747600924.56,0.204,-0.110,-0.012,0.626,-0.253,0.070,-34.138,8.360,5.986
1747600924.58,0.169,-0.065,-0.049,0.614,-0.396,0.167,-33.416,8.006,6.038
1747600924.60,0.102,0.011,-0.004,0.683,-0.340,0.178,-32.664,7.613,6.158
1747600924.62,-0.055,0.022,0.087,0.736,-0.084,0.085,-31.843,7.409,6.209
1747600924.64,-0.164,-0.073,-0.060,0.737,0.019,0.050,-30.993,7.343,6.172
1747600924.66,-0.093,-0.044,-0.048,0.820,0.136,-0.029,-30.114,7.411,6.283
1747600924.68,-0.137,0.076,0.074,0.846,0.067,-0.140,-29.180,7.407,6.468
1747600924.70,-0.067,0.121,0.082,0.875,-0.117,-0.177,-28.222,7.228,6.571
1747600924.72,0.016,0.110,0.077,0.914,-0.107,-0.120,-27.245,6.889,6.604
1747600924.74,-0.042,0.055,0.098,0.990,0.074,-0.312,-26.195,6.692,6.563
1747600924.76,-0.052,-0.044,-0.047,0.999,0.160,-0.008,-25.085,6.660,6.587
1747600924.78,0.058,-0.024,-0.020,0.979,0.158,-0.234,-23.986,6.692,6.678
1747600924.80,0.119,0.066,0.053,0.930,-0.112,0.014,-22.920,6.592,6.826
1747600924.82,0.052,0.041,0.122,0.995,-0.050,-0.086,-21.860,6.423,7.048
1747600924.84,0.085,-0.062,0.062,0.912,-0.065,0.039,-20.761,6.308,7.320
1747600924.86,0.111,-0.075,-0.004,0.915,0.049,0.169,-19.723,6.266,7.693
1747600924.88,0.070,0.026,0.031,0.922,0.054,0.352,-18.661,6.395,8.272
1747600924.90,0.097,0.085,0.019,0.954,0.043,0.381,-17.532,6.577,9.013
1747600924.92,0.060,0.036,-0.021,0.934,-0.083,0.396,-16.410,6.640,9.758
1747600924.94,-0.082,0.003,0.011,0.954,-0.018,0.306,-15.286,6.665,10.465
1747600924.96,-0.071,-0.034,-0.038,0.935,0.120,0.214,-14.168,6.753,11.082
1747600924.98,-0.084,-0.022,-0.055,0.851,0.143,0.194,-13.135,6.947,11.627
1747600925.00,-0.125,0.156,0.017,0.837,0.028,0.151,-12.176,7.088,12.138
1747600925.02,0.044,0.135,-0.065,0.964,-0.177,0.029,-11.141,7.004,12.548
1747600925.04,-0.046,0.008,0.008,0.984,-0.051,-0.062,-10.044,6.808,12.818
1747600925.06,-0.209,-0.123,-0.041,0.900,0.283,-0.062,-8.971,6.911,13.038
1747600925.08,-0.067,-0.018,-0.060,0.799,0.357,-0.097,-8.025,7.285,13.234
1747600925.10,0.108,0.070,-0.056,0.730,0.009,-0.000,-7.175,7.486,13.457
1747600925.12,0.191,0.151,0.022,0.723,-0.261,-0.066,-6.337,7.298,13.679
1747600925.14,-0.033,0.033,-0.057,0.699,-0.093,-0.018,-5.562,7.035,13.903
1747600925.16,-0.084,-0.133,-0.036,0.755,0.253,-0.022,-4.717,7.143,14.163
1747600925.18,-0.073,-0.104,-0.062,0.670,0.361,-0.005,-3.904,7.517,14.419
1747600925.20,-0.010,0.003,-0.147,0.584,0.153,-0.025,-3.202,7.812,14.683
1747600925.22,0.065,0.146,-0.076,0.516,-0.089,-0.102,-2.595,7.839,14.882
1747600925.24,0.073,0.007,-0.073,0.487,-0.245,-0.086,-2.039,7.617,15.049
1747600925.26,-0.004,-0.010,-0.011,0.480,-0.094,-0.036,-1.507,7.401,15.236
1747600925.27,-0.027,-0.016,0.007,0.474,0.095,0.029,-0.968,7.412,15.507
1747600925.30,-0.000,0.011,-0.029,0.442,0.122,0.033,-0.451,7.556,15.806
1747600925.31,0.056,0.028,-0.030,0.410,0.026,0.026,0.041,7.647,16.107
1747600925.33,0.070,0.030,-0.060,0.357,-0.096,0.033,0.483,7.612,16.404
1747600925.35,0.002,-0.010,-0.072,0.317,-0.050,0.025,0.871,7.514,16.704
1747600925.37,-0.010,-0.020,-0.020,0.321,0.094,0.043,1.235,7.534,16.992
1747600925.39,-0.011,0.008,-0.017,0.300,0.066,0.065,1.607,7.643,17.316
1747600925.41,0.022,0.049,-0.046,0.268,-0.037,0.057,1.942,7.668,17.648
1747600925.43,0.048,0.030,-0.093,0.235,-0.160,0.021,2.235,7.545,17.952
1747600925.45,0.008,-0.008,-0.076,0.223,-0.136,-0.000,2.484,7.368,18.196
1747600925.47,-0.030,-0.010,-0.016,0.158,-0.048,-0.041,2.703,7.267,18.419
1747600925.49,-0.005,-0.024,-0.061,0.154,-0.055,-0.023,2.874,7.209,18.638
1747600925.51,0.004,0.048,-0.027,0.195,-0.026,-0.020,3.059,7.163,18.867
1747600925.53,-0.000,0.011,-0.076,0.136,0.021,-0.058,3.239,7.174,19.074
1747600925.55,-0.005,0.013,-0.115,0.050,0.005,-0.063,3.341,7.194,19.247
1747600925.57,0.008,0.046,-0.091,-0.034,-0.053,-0.058,3.343,7.172,19.434
1747600925.59,0.013,0.015,-0.061,-0.060,-0.098,-0.098,3.278,7.062,19.614
1747600925.61,0.009,-0.032,-0.058,-0.133,0.001,-0.136,3.156,7.018,19.743
1747600925.63,0.000,-0.032,-0.153,-0.267,0.026,-0.092,2.918,7.040,20.107
1747600925.65,0.031,-0.027,-0.154,-0.415,-0.046,-0.030,2.519,7.022,20.400
1747600925.67,0.127,-0.040,-0.158,-0.565,-0.109,0.063,1.954,6.932,20.726
1747600925.69,0.045,-0.100,-0.178,-0.688,-0.079,0.095,1.247,6.799,21.143
1747600925.71,0.068,-0.084,-0.107,-0.777,-0.049,0.109,0.437,6.742,21.588
1747600925.73,0.038,-0.102,-0.160,-0.947,0.007,0.160,-0.521,6.715,22.075
1747600925.75,0.039,-0.057,-0.163,-1.037,-0.000,0.174,-1.628,6.721,22.638
1747600925.77,-0.004,-0.057,-0.139,-1.122,-0.013,0.126,-2.842,6.734,23.201
1747600925.79,0.024,-0.055,-0.100,-1.207,-0.066,0.096,-4.139,6.711,23.727
1747600925.81,-0.006,-0.047,-0.124,-1.289,-0.099,0.103,-5.550,6.637,24.218
1747600925.83,-0.031,-0.021,-0.081,-1.334,-0.037,0.050,-7.038,6.582,24.709
1747600925.85,-0.042,-0.076,-0.064,-1.285,0.051,-0.008,-8.514,6.620,25.111
1747600925.87,-0.008,-0.099,-0.053,-1.357,0.045,-0.021,-10.013,6.709,25.436
1747600925.89,-0.004,-0.039,-0.049,-1.451,0.000,0.087,-11.608,6.776,25.860
1747600925.91,0.021,0.031,-0.037,-1.469,0.051,0.009,-13.259,6.863,26.326
1747600925.93,-0.026,0.004,0.008,-1.483,0.087,-0.091,-14.944,6.978,26.628
1747600925.95,-0.025,-0.101,-0.044,-1.532,0.126,-0.090,-16.659,7.130,26.891
1747600925.97,0.015,-0.111,-0.078,-1.589,0.146,-0.102,-18.443,7.316,27.148
1747600925.99,-0.013,-0.052,-0.006,-1.630,0.190,-0.144,-20.280,7.554,27.370
1747600926.01,-0.028,0.001,0.003,-1.673,0.251,-0.174,-22.175,7.819,27.569
1747600926.03,0.017,-0.007,-0.039,-1.690,0.294,-0.215,-24.107,8.163,27.722
1747600926.05,0.035,-0.065,-0.076,-1.741,0.266,-0.260,-26.083,8.490,27.805
1747600926.07,0.029,-0.098,-0.017,-1.851,0.213,-0.278,-28.152,8.764,27.831
1747600926.09,-0.015,-0.101,0.055,-1.880,0.124,-0.236,-30.304,8.979,27.853
1747600926.11,0.020,-0.098,-0.006,-1.882,0.105,-0.196,-32.473,9.160,27.941
1747600926.13,0.069,-0.088,0.060,-1.798,0.327,-0.280,-34.598,9.468,27.995
1747600926.15,-0.009,-0.100,0.039,-1.728,0.444,-0.323,-36.631,9.867,27.914
1747600926.17,0.013,-0.112,0.039,-1.838,0.593,-0.229,-38.696,10.553,27.877
1747600926.19,-0.012,-0.100,0.038,-1.859,0.442,-0.132,-40.815,11.322,28.030
1747600926.21,0.018,-0.055,0.032,-1.820,0.395,-0.122,-42.913,12.070,28.292
1747600926.23,0.036,-0.016,0.014,-1.734,0.276,-0.285,-44.925,12.659,28.412
1747600926.25,0.023,0.004,-0.024,-1.722,0.062,-0.325,-46.921,12.909,28.370
1747600926.27,0.024,-0.039,-0.010,-1.713,-0.101,-0.281,-48.911,12.998,28.338
1747600926.29,0.058,-0.106,0.024,-1.710,-0.148,-0.252,-50.890,13.014,28.347
1747600926.31,0.090,-0.108,0.035,-1.641,-0.284,-0.222,-52.819,12.987,28.394
1747600926.33,0.019,-0.048,-0.003,-1.612,-0.360,-0.251,-54.685,12.830,28.448
1747600926.35,-0.077,0.025,-0.013,-1.537,-0.344,-0.371,-56.529,12.490,28.300
1747600926.37,-0.100,0.021,-0.009,-1.453,-0.254,-0.427,-58.295,12.039,27.896
1747600926.39,-0.076,-0.055,0.005,-1.422,-0.251,-0.407,-59.991,11.509,27.364
1747600926.41,0.034,-0.126,0.011,-1.413,-0.237,-0.331,-61.668,11.053,26.897
1747600926.43,0.109,-0.119,0.067,-1.334,-0.312,-0.272,-63.289,10.712,26.583
1747600926.45,0.097,0.004,0.032,-1.195,-0.353,-0.334,-64.765,10.197,26.170
1747600926.47,0.004,0.114,0.047,-1.071,-0.299,-0.404,-66.121,9.366,25.421
1747600926.49,-0.046,0.091,0.082,-1.050,-0.210,-0.410,-67.378,8.440,24.442
1747600926.51,-0.052,-0.003,0.094,-1.067,-0.141,-0.392,-68.648,7.486,23.371
1747600926.53,-0.005,-0.089,0.072,-1.059,-0.082,-0.333,-69.906,6.721,22.382
1747600926.55,0.025,-0.046,0.042,-0.960,0.027,-0.311,-71.082,6.011,21.393
1747600926.57,0.032,0.024,0.132,-0.900,0.160,-0.365,-72.194,5.300,20.211
1747600926.59,0.026,0.056,0.047,-0.911,0.113,-0.332,-73.230,4.445,18.831
1747600926.61,0.042,0.014,0.053,-1.008,0.110,-0.268,-74.357,3.627,17.550
1747600926.63,0.101,-0.065,0.064,-1.018,-0.125,-0.201,-75.545,2.871,16.417
1747600926.65,0.173,-0.035,-0.039,-0.930,-0.449,-0.256,-76.671,1.795,15.367
1747600926.67,0.117,0.024,-0.018,-0.701,-0.711,-0.353,-77.601,-0.398,13.540
1747600926.69,-0.124,0.038,-0.005,-0.684,-0.657,-0.376,-78.390,-3.273,11.103
1747600926.71,-0.339,-0.023,-0.078,-0.610,-0.275,-0.374,-79.082,-6.300,8.466
1747600926.73,-0.254,-0.066,-0.029,-0.609,0.260,-0.332,-79.715,-8.950,5.764
1747600926.75,-0.085,-0.012,0.028,-0.619,0.444,-0.307,-80.340,-11.214,3.019
1747600926.77,-0.008,0.037,0.080,-0.652,0.529,-0.269,-80.980,-13.583,0.048
1747600926.79,0.069,0.017,0.095,-0.533,0.366,-0.252,-81.581,-16.067,-3.009
1747600926.81,0.094,-0.018,0.064,-0.305,0.020,-0.278,-81.948,-18.802,-5.983
1747600926.83,0.028,0.010,0.018,-0.119,-0.164,-0.347,-82.042,-21.974,-9.052
1747600926.85,-0.035,0.035,0.036,-0.176,-0.035,-0.228,-82.041,-24.689,-11.707
1747600926.87,-0.087,-0.001,0.019,-0.290,-0.085,-0.168,-82.185,-27.033,-13.999
1747600926.89,0.013,-0.039,0.081,-0.408,0.159,-0.120,-82.472,-29.532,-16.522
1747600926.91,0.039,-0.041,0.053,-0.374,0.360,-0.125,-82.793,-31.872,-19.201
1747600926.93,-0.069,-0.013,-0.041,-0.382,0.524,-0.166,-83.042,-34.332,-22.187
1747600926.95,-0.020,-0.041,-0.009,-0.448,0.461,-0.107,-83.344,-37.310,-25.759
1747600926.97,0.181,-0.024,-0.018,-0.219,0.380,0.018,-83.634,-39.350,-28.318
1747600926.99,0.253,0.054,-0.088,0.029,0.112,0.001,-83.727,-39.408,-28.684
1747600927.01,0.128,0.042,-0.104,0.147,-0.253,-0.085,-83.602,-39.216,-28.403
1747600927.03,-0.064,-0.009,-0.125,0.033,-0.476,-0.097,-83.440,-39.668,-28.399
1747600927.05,-0.249,-0.055,-0.053,-0.009,-0.042,-0.133,-83.356,-40.948,-29.335
1747600927.07,-0.237,-0.043,0.062,0.049,0.573,-0.055,-83.265,-41.263,-29.965
1747600927.09,-0.103,0.040,0.047,0.070,0.817,0.032,-83.200,-40.094,-29.643
1747600927.11,-0.009,0.055,0.004,0.082,0.630,0.114,-83.189,-38.175,-28.566
1747600927.13,0.054,0.001,0.018,0.094,0.392,0.059,-83.172,-36.376,-27.330
1747600927.15,0.089,-0.048,0.106,0.056,0.082,-0.006,-83.120,-35.464,-26.709
1747600927.17,0.078,-0.026,0.030,0.122,-0.364,-0.080,-83.016,-35.530,-26.606
1747600927.19,0.025,0.001,-0.032,0.224,-0.549,-0.097,-82.793,-35.948,-26.464
1747600927.21,-0.016,-0.004,-0.057,0.347,-0.352,-0.048,-82.483,-35.538,-25.502
1747600927.23,-0.099,0.035,-0.072,0.464,-0.049,-0.040,-82.064,-34.063,-23.780
1747600927.25,-0.177,0.053,-0.061,0.435,0.266,0.025,-81.623,-32.041,-21.870
1747600927.27,-0.176,-0.011,-0.008,0.473,0.527,0.111,-81.223,-29.418,-19.676
1747600927.29,-0.072,-0.062,0.054,0.475,0.713,0.214,-80.825,-26.035,-16.991
1747600927.31,0.035,-0.026,0.093,0.504,0.450,0.224,-80.441,-22.549,-14.147
1747600927.33,0.042,-0.004,0.050,0.628,0.201,0.163,-79.912,-19.601,-11.718
1747600927.35,0.036,-0.002,0.039,0.827,0.062,0.093,-79.198,-17.356,-9.965
1747600927.37,0.049,0.033,-0.008,0.856,-0.262,0.098,-78.259,-15.468,-8.375
1747600927.39,-0.067,0.118,-0.017,0.760,-0.470,-0.084,-77.388,-14.725,-7.472
1747600927.41,-0.059,0.139,0.093,0.763,-0.092,-0.134,-76.509,-14.813,-7.939
1747600927.43,0.049,-0.068,0.087,0.762,-0.187,0.139,-75.665,-14.041,-7.330
1747600927.45,0.002,-0.159,0.062,0.769,-0.239,0.254,-74.866,-12.656,-5.944
1747600927.47,-0.046,-0.066,0.037,0.676,-0.344,0.268,-74.123,-11.322,-4.505
1747600927.49,-0.118,-0.074,0.037,0.730,-0.060,0.345,-73.405,-9.895,-3.019
1747600927.51,-0.169,-0.092,0.003,0.768,0.229,0.355,-72.611,-8.020,-1.465
1747600927.53,-0.158,-0.011,-0.050,0.772,0.462,0.380,-71.793,-6.036,-0.043
1747600927.55,0.016,-0.016,0.024,0.835,0.575,0.443,-70.937,-3.776,1.409
1747600927.57,0.104,-0.046,-0.009,0.794,0.386,0.528,-69.998,-1.546,2.931
1747600927.59,0.094,-0.027,0.099,0.810,0.250,0.481,-69.107,0.438,4.401
1747600927.61,0.037,-0.003,0.052,0.836,0.163,0.447,-68.158,1.951,5.548
1747600927.63,0.018,0.039,0.031,0.979,0.076,0.398,-67.103,3.166,6.487
1747600927.65,0.016,0.085,-0.025,1.094,0.110,0.230,-65.883,3.921,6.993
1747600927.67,-0.035,0.090,0.061,0.986,0.113,0.105,-64.682,4.266,6.998
1747600927.69,-0.140,0.040,0.032,0.806,0.220,0.231,-63.658,4.615,6.982
1747600927.71,0.001,-0.027,0.084,0.859,0.175,0.343,-62.696,5.387,7.368
1747600927.73,0.113,0.002,0.052,1.075,-0.009,0.239,-61.581,5.952,7.661
1747600927.75,0.023,0.060,-0.012,1.223,-0.175,0.154,-60.219,5.963,7.659
1747600927.77,-0.123,0.105,0.041,0.971,-0.014,-0.095,-58.938,5.680,7.310
1747600927.79,-0.131,0.032,0.031,0.692,0.116,0.062,-58.039,5.525,6.869
1747600927.81,0.131,-0.085,0.034,0.733,0.051,0.348,-57.230,5.907,7.067
1747600927.83,0.240,0.013,0.031,0.952,-0.230,0.284,-56.234,6.244,7.442
1747600927.85,0.058,0.136,-0.049,1.002,-0.251,0.136,-55.075,6.079,7.553
1747600927.87,-0.084,0.098,0.041,0.903,-0.098,0.049,-53.984,5.872,7.429
1747600927.89,-0.057,-0.088,-0.017,0.826,-0.025,0.218,-52.991,5.864,7.438
1747600927.91,0.066,-0.233,-0.067,0.794,-0.071,0.317,-52.049,6.102,7.744
1747600927.93,0.042,-0.203,-0.062,0.917,-0.178,0.205,-51.061,6.199,8.040
1747600927.95,-0.035,-0.031,-0.039,1.057,0.027,-0.034,-49.909,6.078,7.972
1747600927.97,-0.114,0.041,0.015,0.907,0.138,-0.107,-48.776,5.949,7.608
1747600927.99,-0.032,-0.028,0.007,0.719,0.121,0.122,-47.860,6.008,7.435
1747600928.01,0.210,-0.028,0.074,0.771,-0.064,0.309,-47.008,6.237,7.685
1747600928.03,0.216,0.081,0.020,0.906,-0.379,0.280,-46.005,6.224,8.032
1747600928.05,0.027,0.153,0.026,1.006,-0.261,0.112,-44.902,5.946,8.184
1747600928.07,-0.065,0.116,0.087,0.986,-0.116,0.078,-43.747,5.719,8.151
1747600928.09,-0.039,0.001,-0.067,0.849,-0.118,0.117,-42.694,5.570,8.147
1747600928.11,0.057,-0.095,-0.003,0.807,-0.147,0.181,-41.738,5.515,8.268
1747600928.13,-0.018,-0.079,-0.002,0.832,-0.293,0.178,-40.797,5.356,8.432
1747600928.15,0.000,0.044,0.067,0.963,-0.084,0.018,-39.773,5.173,8.480
1747600928.17,-0.040,0.140,0.052,0.939,-0.261,-0.126,-38.665,4.869,8.250
1747600928.19,-0.051,0.102,-0.074,0.822,-0.504,0.050,-37.674,4.283,8.061
1747600928.21,0.133,0.008,0.021,0.881,-0.436,0.186,-36.705,3.801,8.169
1747600928.23,0.086,-0.004,0.051,0.903,-0.333,0.194,-35.665,3.474,8.365
1747600928.25,-0.001,0.024,-0.003,0.796,-0.019,0.151,-34.674,3.344,8.530
1747600928.27,-0.020,-0.011,-0.032,0.678,0.095,0.305,-33.815,3.527,8.753
1747600928.29,-0.077,-0.035,0.032,0.709,0.218,0.336,-33.008,3.941,9.164
1747600928.31,-0.103,0.038,0.061,0.801,0.220,0.190,-32.147,4.376,9.467
1747600928.33,-0.003,0.065,-0.008,0.919,0.069,0.128,-31.155,4.603,9.593
1747600928.34,0.015,0.090,0.048,0.938,-0.075,0.023,-30.085,4.591,9.583
1747600928.37,0.024,0.009,-0.059,0.870,-0.112,0.047,-29.035,4.439,9.529
1747600928.38,-0.033,-0.064,0.015,0.773,-0.006,0.138,-28.092,4.370,9.570
1747600928.40,-0.072,-0.076,0.013,0.778,0.145,0.086,-27.217,4.522,9.772
1747600928.42,0.027,-0.052,-0.001,0.855,0.046,0.044,-26.282,4.647,9.982
1747600928.44,0.116,0.018,0.026,0.901,-0.130,0.018,-25.280,4.562,10.152
1747600928.46,0.081,0.059,0.037,0.920,-0.085,0.072,-24.229,4.417,10.343
1747600928.48,-0.021,0.030,-0.011,0.823,-0.098,0.141,-23.222,4.336,10.631
1747600928.50,-0.033,-0.040,-0.036,0.831,0.022,0.172,-22.275,4.339,11.025
1747600928.52,-0.015,0.009,0.044,0.863,0.062,0.093,-21.293,4.439,11.359
1747600928.54,0.002,0.036,0.070,0.842,-0.015,0.121,-20.307,4.466,11.638
1747600928.56,0.113,0.041,-0.020,0.869,-0.164,0.221,-19.328,4.391,12.032
1747600928.58,0.098,0.052,-0.045,0.810,-0.117,0.237,-18.349,4.287,12.487
1747600928.60,-0.091,-0.009,-0.046,0.762,0.052,0.259,-17.436,4.311,12.984
1747600928.62,-0.050,-0.034,0.055,0.781,0.167,0.232,-16.539,4.532,13.475
1747600928.64,-0.011,0.090,0.085,0.834,0.008,0.233,-15.610,4.692,13.957
1747600928.66,0.077,0.017,-0.001,0.911,-0.058,0.170,-14.579,4.687,14.422
1747600928.68,0.057,-0.073,-0.128,0.798,0.033,0.147,-13.609,4.677,14.790
1747600928.70,-0.094,-0.119,-0.140,0.698,0.226,0.203,-12.732,4.872,15.218
1747600928.72,-0.045,0.014,-0.021,0.687,0.168,0.226,-11.938,5.154,15.685
1747600928.74,0.125,0.152,0.120,0.693,-0.094,0.275,-11.129,5.239,16.212
1747600928.76,0.043,0.205,-0.002,0.708,-0.182,0.224,-10.280,5.112,16.707
1747600928.78,-0.068,-0.000,-0.166,0.611,-0.012,0.092,-9.522,4.996,17.118
1747600928.80,-0.157,-0.053,-0.130,0.546,0.142,-0.053,-8.866,5.098,17.373
1747600928.82,-0.071,-0.067,-0.072,0.515,0.080,-0.109,-8.276,5.222,17.535
1747600928.84,0.059,0.094,0.018,0.599,-0.076,-0.107,-7.654,5.192,17.636
1747600928.86,-0.063,0.245,0.043,0.584,-0.094,-0.079,-6.991,5.066,17.755
1747600928.88,-0.033,0.107,-0.053,0.555,-0.060,-0.040,-6.354,4.984,17.916
1747600928.90,0.012,-0.037,-0.062,0.557,-0.026,-0.158,-5.735,4.906,18.008
1747600928.92,0.012,-0.117,-0.039,0.574,0.068,-0.189,-5.106,4.905,18.026
1747600928.94,0.025,-0.099,-0.045,0.521,0.150,-0.152,-4.508,5.014,18.045
1747600928.96,-0.019,0.061,-0.026,0.459,0.116,-0.058,-3.950,5.161,18.147
1747600928.98,0.019,0.150,-0.024,0.425,0.053,-0.013,-3.454,5.251,18.344
1747600929.00,0.080,0.004,-0.065,0.419,-0.086,-0.067,-2.980,5.223,18.476
1747600929.02,0.038,-0.107,-0.061,0.374,-0.063,-0.075,-2.541,5.117,18.589
1747600929.04,-0.014,-0.098,-0.045,0.286,0.025,-0.046,-2.169,5.096,18.715
1747600929.06,0.001,-0.003,-0.011,0.289,0.026,-0.022,-1.843,5.128,18.881
1747600929.08,0.037,0.047,-0.034,0.281,-0.035,0.008,-1.527,5.131,19.076
1747600929.10,-0.000,0.049,-0.060,0.241,-0.039,0.010,-1.228,5.084,19.286
1747600929.12,0.022,-0.035,-0.085,0.240,-0.022,-0.041,-0.953,5.047,19.472
1747600929.14,0.012,-0.048,-0.021,0.221,-0.016,-0.080,-0.694,5.022,19.614
1747600929.16,-0.012,-0.015,0.018,0.234,0.053,-0.047,-0.449,5.035,19.734
1747600929.18,-0.022,0.077,-0.028,0.201,0.073,-0.023,-0.207,5.114,20.088
1747600929.20,-0.027,0.089,-0.027,0.176,0.074,-0.060,0.010,5.207,20.246
1747600929.22,0.039,0.015,-0.048,0.199,-0.009,-0.100,0.217,5.235,20.343
1747600929.24,0.018,-0.046,-0.008,0.187,0.004,-0.126,0.436,5.229,20.376
1747600929.26,-0.027,-0.022,-0.051,0.133,0.071,-0.089,0.593,5.250,20.432
1747600929.28,0.015,0.054,-0.050,0.109,0.101,-0.070,0.698,5.353,20.525
1747600929.30,0.030,0.024,-0.107,-0.043,0.118,-0.079,0.735,5.487,20.650
1747600929.32,0.053,-0.102,-0.176,-0.231,-0.036,0.023,0.570,5.543,20.807
1747600929.34,0.143,-0.062,-0.148,-0.261,-0.084,0.027,0.291,5.460,21.066
1747600929.36,0.037,-0.029,-0.092,-0.351,-0.056,0.056,-0.056,5.356,21.326
1747600929.38,-0.014,-0.039,-0.145,-0.497,0.044,0.110,-0.526,5.369,21.637
1747600929.40,0.009,-0.005,-0.188,-0.638,0.009,0.107,-1.167,5.405,22.020
1747600929.42,0.000,-0.032,-0.159,-0.713,-0.064,0.021,-1.929,5.383,22.353
1747600929.44,-0.033,-0.049,-0.148,-0.837,-0.156,-0.046,-2.811,5.254,22.592
1747600929.46,0.001,-0.061,-0.172,-0.881,-0.110,-0.098,-3.790,5.097,22.779
1747600929.48,-0.001,-0.025,-0.138,-0.990,-0.020,-0.131,-4.862,5.013,22.904
1747600929.50,-0.072,-0.030,-0.069,-1.055,0.068,-0.082,-6.034,5.043,23.041
1747600929.52,0.067,-0.029,-0.139,-1.159,0.012,0.009,-7.298,5.115,23.273
1747600929.54,0.109,-0.032,-0.109,-1.200,-0.000,-0.014,-8.652,5.133,23.573
1747600929.56,0.042,-0.060,-0.065,-1.217,-0.013,-0.047,-10.029,5.145,23.813
1747600929.58,0.002,-0.082,-0.067,-1.291,-0.107,-0.025,-11.456,5.086,24.048
1747600929.60,0.031,-0.099,-0.006,-1.338,0.004,0.057,-12.946,5.043,24.366
1747600929.62,0.035,-0.077,-0.019,-1.328,0.169,0.029,-14.464,5.185,24.693
1747600929.64,-0.027,-0.049,0.022,-1.377,0.295,-0.015,-15.983,5.520,24.951
1747600929.66,-0.000,-0.056,-0.003,-1.482,0.224,0.049,-17.610,5.877,25.202
1747600929.68,0.074,-0.080,-0.052,-1.486,0.077,0.081,-19.297,6.131,25.550
1747600929.70,0.040,-0.063,0.018,-1.479,0.136,-0.006,-20.970,6.303,25.844
1747600929.72,0.012,-0.056,0.058,-1.523,0.282,-0.005,-22.673,6.624,26.064
1747600929.74,0.021,-0.064,-0.046,-1.606,0.228,0.080,-24.453,7.036,26.353
1747600929.76,-0.006,-0.018,-0.025,-1.617,0.194,0.054,-26.284,7.416,26.731
1747600929.78,-0.000,0.035,0.057,-1.565,0.134,-0.090,-28.088,7.730,26.968
1747600929.80,-0.002,0.058,0.009,-1.596,-0.124,-0.150,-29.891,7.795,27.055
1747600929.82,0.054,0.008,0.032,-1.596,-0.293,-0.069,-31.723,7.613,27.179
1747600929.84,0.065,-0.048,0.012,-1.496,-0.368,-0.140,-33.486,7.313,27.288
1747600929.86,-0.041,-0.122,-0.035,-1.460,-0.276,-0.203,-35.182,6.931,27.253
1747600929.88,-0.112,-0.166,0.004,-1.410,-0.028,-0.282,-36.837,6.692,27.071
1747600929.90,-0.125,-0.155,0.024,-1.448,0.070,-0.300,-38.492,6.611,26.778
1747600929.92,-0.049,-0.120,-0.019,-1.496,0.107,-0.269,-40.211,6.596,26.532
1747600929.94,0.043,-0.072,-0.019,-1.498,0.147,-0.282,-41.941,6.669,26.285
1747600929.96,0.046,-0.037,-0.021,-1.530,0.055,-0.287,-43.695,6.669,25.991
1747600929.98,0.051,-0.040,0.049,-1.558,0.127,-0.249,-45.489,6.666,25.674
1747600930.00,0.078,-0.039,0.013,-1.597,0.119,-0.128,-47.296,6.804,25.509
1747600930.02,0.134,-0.007,0.017,-1.566,-0.025,-0.018,-49.114,7.029,25.545
1747600930.04,0.123,0.042,-0.016,-1.451,-0.135,-0.076,-50.832,7.149,25.639
1747600930.06,0.013,0.092,-0.002,-1.417,-0.263,-0.240,-52.462,6.937,25.472
1747600930.08,-0.077,0.050,0.055,-1.443,-0.224,-0.313,-54.134,6.465,25.037
1747600930.10,-0.070,-0.037,0.039,-1.398,-0.167,-0.319,-55.780,5.980,24.497
1747600930.12,-0.020,-0.064,0.051,-1.381,-0.133,-0.304,-57.395,5.525,23.903
1747600930.14,-0.004,-0.022,0.031,-1.415,-0.142,-0.346,-59.014,4.993,23.224
1747600930.16,0.008,0.021,0.071,-1.392,-0.024,-0.344,-60.649,4.465,22.465
1747600930.18,0.008,0.036,0.060,-1.332,-0.049,-0.382,-62.221,3.839,21.526
1747600930.20,0.032,-0.029,0.036,-1.294,-0.005,-0.384,-63.762,3.127,20.469
1747600930.22,0.032,-0.056,0.022,-1.260,-0.040,-0.411,-65.219,2.324,19.307
1747600930.24,-0.001,-0.021,0.044,-1.282,-0.078,-0.381,-66.685,1.337,17.992
1747600930.26,0.001,0.005,0.009,-1.248,-0.012,-0.387,-68.160,0.268,16.603
1747600930.28,0.037,0.000,-0.004,-1.148,0.033,-0.399,-69.515,-0.852,15.094
1747600930.30,0.021,-0.035,-0.003,-1.094,0.042,-0.433,-70.778,-2.255,13.252
1747600930.32,-0.020,-0.051,-0.008,-1.089,0.029,-0.441,-71.988,-3.891,11.144
1747600930.34,-0.084,-0.023,0.040,-1.234,0.196,-0.403,-73.280,-5.671,8.825
1747600930.36,-0.099,-0.029,0.039,-1.166,0.261,-0.328,-74.590,-7.422,6.384
1747600930.38,0.029,-0.063,0.002,-1.073,0.278,-0.261,-75.838,-9.025,4.066
1747600930.40,0.068,-0.026,-0.081,-0.827,0.083,-0.285,-76.831,-10.728,1.791
1747600930.42,0.004,0.029,-0.084,-0.863,0.022,-0.413,-77.680,-13.357,-1.267
1747600930.44,0.011,-0.009,-0.023,-0.863,0.106,-0.409,-78.519,-16.709,-5.112
1747600930.46,0.022,-0.044,-0.049,-0.840,0.053,-0.267,-79.305,-19.987,-8.876
1747600930.48,0.037,-0.033,0.006,-0.870,0.036,-0.230,-80.128,-23.415,-12.756
1747600930.50,0.052,-0.025,-0.019,-0.725,-0.015,-0.197,-80.860,-26.957,-16.703
1747600930.52,-0.049,0.005,-0.073,-0.542,-0.024,-0.301,-81.349,-30.796,-20.539
1747600930.54,-0.127,-0.011,-0.042,-0.571,0.241,-0.393,-81.657,-35.201,-25.095
1747600930.56,-0.137,-0.001,0.012,-0.535,0.403,-0.378,-81.894,-40.004,-30.360
1747600930.58,-0.144,0.021,0.053,-0.505,0.393,-0.258,-82.069,-44.170,-35.035
1747600930.60,-0.092,-0.021,0.058,-0.637,0.466,-0.207,-82.338,-48.515,-39.882
1747600930.62,0.033,-0.100,0.074,-0.623,0.640,-0.136,-82.647,-53.094,-45.162
1747600930.64,0.115,-0.031,0.018,-0.569,0.569,-0.181,-82.899,-57.566,-50.385
1747600930.66,0.090,0.052,-0.030,-0.445,0.243,-0.219,-82.984,-62.125,-55.461
1747600930.68,0.056,0.042,-0.062,-0.319,-0.027,-0.187,-82.969,-66.080,-59.565
1747600930.70,0.009,0.010,-0.058,-0.138,-0.240,-0.156,-82.884,-68.692,-62.038
1747600930.72,-0.051,-0.005,-0.009,-0.205,-0.322,-0.120,-82.801,-70.812,-63.836
1747600930.74,-0.074,-0.045,0.015,-0.225,-0.239,-0.120,-82.750,-73.415,-66.130
1747600930.76,-0.059,-0.040,-0.017,-0.147,-0.054,-0.055,-82.704,-75.421,-67.978
1747600930.78,-0.056,-0.002,-0.002,-0.148,0.223,0.008,-82.720,-76.550,-69.199
1747600930.80,-0.031,0.013,0.016,-0.148,0.475,0.034,-82.779,-77.463,-70.553
1747600930.82,-0.032,0.030,0.002,-0.060,0.345,0.089,-82.882,-77.790,-71.377
1747600930.84,-0.027,0.011,-0.004,-0.011,0.286,0.065,-82.978,-77.528,-71.456
1747600930.86,0.053,-0.016,0.007,-0.024,0.306,0.021,-83.034,-77.288,-71.576
1747600930.88,0.088,0.022,-0.027,0.109,0.127,0.005,-83.034,-76.683,-71.223
1747600930.90,0.073,0.034,-0.030,0.182,-0.177,0.034,-83.014,-75.261,-69.764
1747600930.92,0.029,0.001,0.005,0.147,-0.345,0.014,-82.991,-74.040,-68.204
1747600930.94,-0.009,-0.028,0.039,0.124,-0.224,-0.002,-82.955,-73.134,-66.954
1747600930.96,-0.035,0.002,0.059,0.077,-0.181,-0.006,-82.911,-72.429,-66.029
1747600930.98,-0.039,-0.015,0.068,0.011,-0.216,0.015,-82.906,-72.247,-65.610
1747600931.00,-0.040,-0.056,0.078,0.006,-0.141,-0.010,-82.910,-72.438,-65.585
1747600931.02,-0.048,0.006,0.063,0.025,-0.039,-0.015,-82.890,-72.510,-65.551
1747600931.04,-0.044,0.033,0.004,0.036,0.010,0.006,-82.874,-72.496,-65.523
1747600931.06,-0.026,0.020,-0.041,0.096,0.031,0.036,-82.867,-72.116,-65.164
1747600931.08,-0.036,0.004,-0.005,0.075,0.067,0.073,-82.899,-71.442,-64.534
1747600931.10,-0.052,-0.035,0.021,0.113,0.117,0.058,-82.933,-70.667,-63.860
1747600931.12,-0.039,-0.024,-0.010,0.175,0.145,0.078,-82.933,-69.187,-62.517
1747600931.14,-0.018,0.015,-0.002,0.266,0.134,0.108,-82.923,-66.720,-60.197
1747600931.16,-0.034,0.046,0.023,0.266,0.109,0.119,-82.898,-63.922,-57.522
1747600931.18,-0.046,0.015,0.048,0.290,0.058,0.114,-82.853,-61.520,-55.182
1747600931.20,-0.020,-0.029,0.061,0.338,0.030,0.083,-82.743,-58.880,-52.569
1747600931.22,0.023,-0.034,0.037,0.403,-0.063,0.092,-82.592,-55.947,-49.597
1747600931.24,0.020,0.000,0.028,0.478,-0.178,0.147,-82.397,-52.361,-45.832
1747600931.26,-0.033,0.004,0.048,0.508,-0.246,0.216,-82.204,-48.385,-41.570
1747600931.28,-0.114,-0.005,0.021,0.574,-0.230,0.187,-81.947,-44.252,-37.121
1747600931.30,-0.092,0.022,-0.009,0.625,-0.327,0.113,-81.560,-40.543,-33.064
1747600931.32,0.019,0.018,-0.038,0.689,-0.224,0.107,-81.042,-37.192,-29.319
1747600931.34,0.086,-0.005,0.077,0.689,-0.161,0.203,-80.500,-33.679,-25.565
1747600931.36,-0.004,-0.040,0.054,0.756,-0.147,0.259,-79.947,-30.035,-21.677
1747600931.38,-0.083,-0.049,0.037,0.820,0.039,0.316,-79.307,-26.203,-17.704
1747600931.40,-0.086,-0.012,0.010,0.867,0.019,0.284,-78.567,-22.438,-13.928
1747600931.42,-0.039,0.022,-0.026,0.851,0.108,0.186,-77.745,-19.543,-11.024
1747600931.43,0.039,-0.015,0.029,0.864,0.180,0.210,-76.884,-17.140,-9.098
1747600931.45,0.028,-0.046,0.020,0.885,0.144,0.351,-76.010,-14.490,-6.941
1747600931.47,-0.053,-0.008,0.002,0.849,0.103,0.353,-75.138,-11.937,-4.756
1747600931.49,-0.044,-0.011,0.034,0.939,0.156,0.325,-74.216,-9.690,-2.931
1747600931.51,0.039,-0.003,-0.043,0.914,0.143,0.313,-73.205,-7.759,-1.404
1747600931.53,0.018,-0.000,0.056,0.898,0.256,0.316,-72.231,-5.988,-0.138
1747600931.55,-0.024,-0.016,0.019,0.872,0.182,0.393,-71.248,-4.236,1.139
1747600931.57,-0.002,-0.037,-0.002,0.996,0.164,0.355,-70.220,-2.605,2.356
1747600931.59,0.043,-0.034,-0.022,1.024,0.165,0.317,-69.062,-1.292,3.292
1747600931.61,0.032,-0.023,0.022,0.886,0.142,0.263,-67.961,-0.236,3.981
1747600931.63,-0.082,-0.001,0.022,0.749,0.232,0.263,-67.039,0.676,4.485
1747600931.65,-0.051,0.008,0.049,0.866,0.197,0.314,-66.142,1.675,5.057
1747600931.67,0.053,0.038,0.012,1.089,-0.028,0.244,-64.998,2.426,5.527
1747600931.69,0.085,0.069,-0.014,1.093,-0.001,0.136,-63.710,2.686,5.653
1747600931.71,-0.020,0.028,0.050,1.019,0.068,0.079,-62.524,2.841,5.555
1747600931.73,-0.067,-0.070,-0.045,0.819,0.135,0.223,-61.446,3.172,5.600
1747600931.75,0.063,-0.105,0.018,0.751,0.002,0.332,-60.542,3.737,5.939
1747600931.77,0.231,-0.047,0.051,0.895,-0.130,0.336,-59.604,4.237,6.433
1747600931.79,0.189,0.092,0.017,1.098,-0.189,0.248,-58.415,4.444,6.729
1747600931.81,-0.005,0.135,0.017,1.008,-0.175,0.162,-57.193,4.448,6.988
1747600931.83,-0.110,0.006,-0.006,0.841,-0.176,0.202,-56.125,4.433,7.194
1747600931.85,-0.013,-0.137,-0.033,0.759,-0.168,0.280,-55.204,4.544,7.561
1747600931.87,0.101,-0.130,0.032,0.867,-0.257,0.268,-54.270,4.637,7.984
1747600931.89,0.071,0.055,0.069,1.011,-0.199,0.191,-53.171,4.611,8.290
1747600931.91,-0.068,0.169,0.063,0.970,0.028,0.102,-52.007,4.610,8.394
1747600931.93,-0.142,0.103,0.006,0.797,-0.037,0.141,-50.999,4.682,8.461
1747600931.95,-0.058,-0.032,-0.017,0.735,-0.060,0.214,-50.124,4.774,8.671
1747600931.97,0.037,-0.041,0.047,0.834,-0.117,0.171,-49.230,4.861,8.920
1747600931.99,0.016,0.099,0.054,1.024,-0.092,0.028,-48.157,4.754,8.953
1747600932.01,0.008,0.141,0.033,1.012,0.152,-0.007,-46.957,4.703,8.817
1747600932.03,-0.047,0.013,0.013,0.865,0.134,0.071,-45.898,4.821,8.717
1747600932.05,0.053,-0.151,-0.008,0.845,0.137,0.199,-44.927,5.063,8.839
1747600932.07,0.061,-0.140,0.023,0.948,-0.059,0.094,-43.899,5.206,8.968
1747600932.09,0.006,-0.007,0.032,1.052,-0.086,-0.008,-42.751,5.059,8.875
1747600932.11,0.061,0.067,0.053,1.034,-0.101,0.031,-41.555,4.868,8.734
1747600932.13,0.137,0.052,-0.016,0.899,-0.197,0.188,-40.418,4.713,8.771
1747600932.15,0.153,0.005,-0.015,0.840,-0.282,0.356,-39.428,4.629,9.062
1747600932.17,0.001,-0.038,0.016,0.849,-0.161,0.422,-38.431,4.672,9.556
1747600932.19,-0.057,0.009,0.077,0.963,0.039,0.300,-37.367,4.881,9.981
1747600932.21,-0.071,0.046,0.010,0.976,0.002,0.197,-36.224,5.043,10.201
1747600932.23,-0.017,0.031,-0.029,0.862,-0.152,0.161,-35.152,5.055,10.324
1747600932.25,0.026,0.017,-0.053,0.782,-0.249,0.233,-34.220,4.901,10.506
1747600932.27,-0.054,0.004,0.014,0.895,-0.192,0.161,-33.246,4.760,10.693
1747600932.29,-0.113,0.005,-0.014,0.952,-0.089,0.014,-32.190,4.580,10.709
1747600932.31,-0.025,-0.019,0.052,1.043,-0.003,-0.047,-31.055,4.491,10.554
1747600932.33,0.100,-0.038,-0.040,0.908,-0.074,0.052,-29.926,4.401,10.452
1747600932.35,0.095,-0.063,-0.066,0.751,-0.099,0.215,-28.983,4.318,10.618
1747600932.37,-0.053,-0.040,0.016,0.767,0.061,0.266,-28.103,4.415,10.954
1747600932.39,-0.069,0.078,0.050,0.878,0.186,0.142,-27.148,4.655,11.139
1747600932.41,0.056,0.093,0.019,0.918,0.026,0.077,-26.099,4.803,11.169
1747600932.43,0.054,0.041,0.002,0.841,-0.135,0.121,-25.079,4.738,11.189
1747600932.45,0.055,0.024,-0.011,0.829,-0.131,0.222,-24.132,4.635,11.429
1747600932.47,0.065,0.086,0.006,0.836,-0.018,0.257,-23.155,4.627,11.883
1747600932.49,-0.079,0.053,0.081,0.917,0.079,0.154,-22.138,4.740,12.257
1747600932.51,-0.140,-0.076,-0.033,0.961,0.146,0.068,-21.060,4.875,12.524
1747600932.53,0.018,-0.061,-0.010,0.901,0.043,0.015,-19.985,4.988,12.709
1747600932.55,-0.016,0.032,0.006,0.883,-0.109,0.071,-18.978,4.932,12.900
1747600932.57,0.005,0.045,-0.021,0.936,-0.099,0.105,-17.937,4.800,13.160
1747600932.59,-0.006,0.014,0.044,1.033,0.104,0.047,-16.822,4.799,13.418
1747600932.61,-0.097,-0.077,-0.021,1.025,0.223,0.047,-15.610,4.988,13.626
1747600932.63,0.019,-0.104,-0.004,0.908,0.136,0.055,-14.524,5.196,13.852
1747600932.65,0.099,-0.017,-0.007,0.888,-0.014,0.091,-13.490,5.255,14.074
1747600932.67,0.077,0.060,-0.013,0.851,0.032,0.069,-12.494,5.263,14.321
1747600932.69,-0.005,0.009,-0.052,0.822,-0.060,0.172,-11.531,5.251,14.621
1747600932.71,0.083,-0.102,-0.073,0.799,-0.026,0.072,-10.592,5.209,14.940
1747600932.73,0.122,-0.030,-0.032,0.774,0.066,0.170,-9.681,5.216,15.236
1747600932.75,0.013,0.026,-0.053,0.678,0.203,0.299,-8.819,5.419,15.657
1747600932.77,0.019,0.100,-0.057,0.572,0.160,0.365,-8.077,5.687,16.226
1747600932.79,0.144,0.127,-0.056,0.547,-0.115,0.366,-7.406,5.778,16.824
1747600932.81,0.157,0.031,-0.056,0.570,-0.297,0.296,-6.715,5.550,17.390
1747600932.83,-0.003,-0.056,-0.062,0.508,-0.162,0.234,-6.068,5.306,18.186
1747600932.85,-0.128,-0.032,-0.061,0.484,0.001,0.242,-5.491,5.240,18.697
1747600932.87,-0.126,0.100,-0.018,0.472,0.003,0.169,-4.924,5.274,19.163
1747600932.89,-0.032,0.100,0.014,0.481,-0.096,0.004,-4.374,5.227,19.504
1747600932.91,0.031,0.009,-0.095,0.471,-0.279,-0.108,-3.827,5.002,19.667
1747600932.93,-0.079,-0.077,-0.117,0.455,-0.153,-0.167,-3.327,4.699,19.730
1747600932.95,-0.112,-0.079,-0.002,0.438,0.057,-0.204,-2.830,4.646,19.728
1747600932.97,-0.056,0.012,-0.011,0.412,0.082,-0.186,-2.356,4.725,19.721
1747600932.99,0.067,0.026,-0.046,0.370,-0.027,-0.163,-1.931,4.763,19.729
1747600933.01,0.121,-0.014,-0.116,0.326,-0.155,-0.112,-1.552,4.638,19.762
1747600933.03,0.021,0.031,-0.040,0.319,-0.051,-0.036,-1.195,4.493,19.873
1747600933.05,-0.086,0.054,0.002,0.298,0.129,0.013,-0.841,4.551,20.049
1747600933.07,-0.100,0.003,-0.037,0.234,0.154,0.009,-0.528,4.732,20.271
1747600933.09,0.044,-0.012,-0.075,0.195,-0.001,-0.094,-0.286,4.831,20.413
1747600933.11,0.124,-0.070,-0.108,0.138,-0.228,-0.072,-0.104,4.683,20.506
1747600933.13,0.005,-0.031,-0.063,0.127,-0.126,-0.025,0.029,4.450,20.649
1747600933.15,-0.076,-0.022,0.005,0.100,0.078,0.018,0.161,4.429,20.866
1747600933.17,-0.023,-0.016,0.022,0.117,0.137,0.041,0.279,4.559,21.084
1747600933.19,0.027,-0.026,0.013,0.110,0.114,0.050,0.425,4.724,21.308
1747600933.21,0.068,-0.004,-0.063,0.085,0.051,0.057,0.548,4.820,21.539
1747600933.23,0.029,0.006,-0.065,0.067,-0.018,0.076,0.642,4.828,21.798
1747600933.25,0.012,0.046,-0.059,0.027,-0.021,0.074,0.708,4.799,22.075
1747600933.27,-0.020,0.044,-0.022,0.020,0.057,0.064,0.742,4.807,22.340
1747600933.29,-0.038,0.044,-0.050,-0.045,0.184,0.044,0.734,4.959,22.578
1747600933.31,-0.048,0.068,-0.104,-0.127,0.291,0.011,0.647,5.258,22.812
1747600933.33,-0.028,0.016,-0.206,-0.222,0.136,-0.027,0.440,5.512,23.013
1747600933.35,-0.000,0.032,-0.167,-0.323,0.008,-0.119,0.125,5.597,23.160
1747600933.37,-0.043,-0.028,-0.133,-0.492,-0.096,-0.117,-0.348,5.540,23.260
1747600933.39,0.102,-0.087,-0.192,-0.645,-0.140,-0.053,-1.004,5.386,23.396
1747600933.41,0.124,-0.062,-0.170,-0.826,-0.020,0.018,-1.843,5.301,23.633
1747600933.43,0.073,-0.061,-0.175,-0.966,-0.008,0.146,-2.864,5.304,24.009
1747600933.45,0.080,-0.051,-0.117,-1.019,-0.055,0.174,-3.987,5.281,24.478
1747600933.47,0.065,-0.037,-0.054,-1.022,-0.098,0.109,-5.139,5.216,24.919
1747600933.49,-0.048,-0.093,-0.076,-1.030,-0.032,0.018,-6.297,5.152,25.250
1747600933.51,-0.073,-0.092,-0.092,-0.975,0.080,-0.027,-7.429,5.176,25.516
1747600933.53,-0.038,-0.030,-0.070,-1.015,0.209,-0.090,-8.557,5.364,25.723
1747600933.55,-0.036,0.005,-0.009,-1.063,0.248,-0.108,-9.750,5.635,25.877
1747600933.57,-0.012,-0.006,-0.027,-1.159,0.155,-0.180,-11.023,5.863,25.974
1747600933.59,0.005,-0.074,-0.078,-1.205,0.125,-0.204,-12.390,6.005,26.018
1747600933.61,0.033,-0.077,-0.047,-1.232,0.066,-0.230,-13.813,6.096,26.039
1747600933.63,-0.020,-0.033,-0.009,-1.250,0.109,-0.253,-15.246,6.145,26.016
1747600933.65,0.022,-0.039,-0.007,-1.306,0.240,-0.200,-16.715,6.331,25.985
1747600933.67,0.041,-0.079,-0.033,-1.340,0.233,-0.110,-18.243,6.595,26.053
1747600933.69,0.035,-0.073,-0.029,-1.364,0.210,-0.164,-19.793,6.878,26.152
1747600933.71,-0.064,-0.052,-0.010,-1.365,0.174,-0.269,-21.363,7.059,26.109
1747600933.73,-0.075,-0.038,-0.034,-1.436,0.022,-0.274,-22.987,7.132,25.997
1747600933.75,-0.009,-0.031,-0.007,-1.426,0.026,-0.262,-24.649,7.117,25.926
1747600933.77,-0.004,-0.016,-0.023,-1.414,-0.087,-0.340,-26.305,7.009,25.723
1747600933.79,-0.013,-0.044,-0.030,-1.494,-0.058,-0.315,-27.987,6.830,25.470
1747600933.81,0.096,-0.094,-0.026,-1.575,-0.068,-0.140,-29.763,6.730,25.320
1747600933.83,0.157,-0.110,0.037,-1.567,-0.107,-0.015,-31.556,6.712,25.378
1747600933.85,0.084,-0.087,0.027,-1.553,-0.077,0.030,-33.318,6.740,25.551
1747600933.87,0.032,-0.059,0.020,-1.569,0.023,0.022,-35.088,6.882,25.761
1747600933.89,0.026,-0.053,-0.011,-1.569,-0.038,0.057,-36.862,7.079,25.967
1747600933.91,0.040,-0.040,-0.017,-1.540,-0.082,0.064,-38.614,7.227,26.244
1747600933.93,-0.016,-0.025,0.017,-1.523,-0.121,-0.109,-40.350,7.281,26.375
1747600933.95,-0.094,-0.063,-0.011,-1.558,-0.072,-0.120,-42.108,7.213,26.346
1747600933.97,-0.020,-0.126,-0.003,-1.605,0.139,-0.095,-43.908,7.358,26.362
1747600933.99,0.065,-0.165,0.004,-1.570,0.183,-0.120,-45.748,7.680,26.352
1747600934.01,0.077,-0.083,-0.034,-1.572,0.021,-0.034,-47.521,7.970,26.420
1747600934.03,0.039,0.032,-0.021,-1.578,-0.038,-0.080,-49.312,8.183,26.545
1747600934.05,0.024,0.107,0.052,-1.514,-0.022,-0.178,-51.092,8.289,26.531
1747600934.07,0.016,0.069,0.054,-1.398,-0.132,-0.271,-52.766,8.186,26.299
1747600934.09,-0.001,-0.008,0.017,-1.397,-0.212,-0.303,-54.390,7.830,25.905
1747600934.11,0.013,-0.053,0.044,-1.389,-0.184,-0.286,-56.016,7.407,25.456
1747600934.13,0.051,-0.054,0.011,-1.420,-0.163,-0.251,-57.641,7.066,25.052
1747600934.15,0.102,-0.026,0.001,-1.449,-0.211,-0.231,-59.308,6.736,24.655
1747600934.17,0.052,0.014,0.056,-1.414,-0.212,-0.212,-60.956,6.365,24.272
1747600934.19,-0.008,0.030,0.055,-1.325,-0.153,-0.287,-62.538,5.972,23.808
1747600934.21,-0.047,-0.003,0.056,-1.283,-0.077,-0.353,-64.052,5.425,23.057
1747600934.23,-0.016,-0.055,-0.007,-1.318,-0.166,-0.417,-65.576,4.601,21.997
1747600934.25,0.036,-0.067,0.018,-1.335,-0.245,-0.332,-67.128,3.635,20.936
1747600934.27,0.061,-0.030,0.087,-1.277,-0.225,-0.312,-68.637,2.657,19.876
1747600934.29,0.002,0.041,0.032,-1.243,-0.097,-0.331,-70.087,1.666,18.752
1747600934.31,-0.084,0.026,0.017,-1.115,-0.055,-0.321,-71.458,0.538,17.345
1747600934.33,-0.088,-0.015,-0.024,-1.052,0.246,-0.370,-72.662,-0.548,15.814
1747600934.35,-0.073,-0.044,0.071,-1.241,0.408,-0.517,-73.973,-1.916,13.634
1747600934.37,-0.090,-0.042,-0.009,-1.232,0.174,-0.312,-75.368,-3.659,11.209
1747600934.39,0.066,-0.037,0.044,-1.115,0.213,-0.204,-76.706,-4.933,9.350
1747600934.41,0.134,0.023,0.028,-1.042,-0.021,-0.292,-77.884,-6.567,7.245
1747600934.43,0.069,0.047,-0.046,-0.948,-0.216,-0.328,-78.956,-9.325,4.322
1747600934.45,0.010,-0.021,0.037,-0.950,-0.088,-0.386,-79.945,-12.763,0.645
1747600934.47,-0.086,-0.052,-0.044,-0.837,-0.073,-0.384,-80.813,-16.904,-3.760
1747600934.49,-0.126,-0.026,0.023,-0.953,0.090,-0.336,-81.636,-21.504,-8.721
1747600934.51,-0.118,-0.025,0.013,-1.021,0.248,-0.326,-82.513,-27.203,-14.992
1747600934.53,-0.050,-0.031,0.013,-0.936,0.474,-0.242,-83.334,-33.436,-21.825
1747600934.55,-0.040,0.013,0.045,-0.799,0.300,-0.241,-83.961,-40.388,-29.254
1747600934.56,-0.081,-0.013,0.003,-0.822,0.375,-0.305,-84.399,-48.485,-37.759
1747600934.58,-0.017,-0.049,0.019,-0.838,0.659,-0.321,-84.684,-58.128,-48.048
1747600934.60,0.066,-0.022,-0.000,-0.731,0.551,-0.227,-84.813,-67.875,-58.529
1747600934.62,0.141,-0.003,-0.082,-0.606,0.358,-0.245,-84.801,-76.140,-67.361
1747600934.64,0.193,-0.017,-0.089,-0.523,0.045,-0.216,-84.639,-83.371,-74.864
1747600934.66,0.147,-0.003,-0.108,-0.400,-0.192,-0.160,-84.467,-89.114,-80.530
1747600934.68,0.023,0.051,-0.127,-0.222,-0.207,-0.134,-84.286,-92.976,-84.154
1747600934.70,-0.087,0.041,-0.115,-0.220,0.052,-0.089,-84.150,-95.275,-86.368
1747600934.72,-0.094,-0.003,-0.052,-0.305,0.360,-0.100,-84.011,-97.805,-89.138
1747600934.74,-0.033,-0.019,-0.000,-0.322,0.482,-0.084,-83.845,-100.547,-92.400
1747600934.76,-0.005,-0.046,0.016,-0.235,0.417,-0.048,-83.712,-102.764,-95.165
1747600934.78,0.035,-0.016,0.010,-0.124,0.271,-0.080,-83.585,-104.029,-96.822
1747600934.80,0.028,0.041,-0.009,-0.014,0.072,-0.091,-83.480,-104.254,-97.242
1747600934.82,-0.010,-0.002,-0.018,0.027,0.066,-0.099,-83.372,-103.862,-96.895
1747600934.84,-0.008,-0.018,0.014,0.085,0.065,-0.045,-83.302,-103.139,-96.262
1747600934.86,-0.024,0.042,0.004,0.086,0.038,-0.011,-83.292,-102.157,-95.340
1747600934.88,-0.055,0.005,0.060,0.126,-0.059,0.025,-83.330,-101.213,-94.361
1747600934.90,-0.087,-0.031,0.070,0.084,0.115,0.007,-83.371,-100.095,-93.251
1747600934.92,-0.049,-0.025,0.067,0.011,0.256,0.021,-83.388,-99.478,-92.857
1747600934.94,-0.001,-0.004,0.061,-0.000,0.087,0.017,-83.406,-99.322,-92.925
1747600934.96,0.033,-0.017,0.013,-0.007,-0.056,-0.025,-83.368,-99.668,-93.262
1747600934.98,0.054,0.007,0.024,0.014,-0.018,-0.055,-83.280,-99.953,-93.498
1747600935.00,0.015,0.035,-0.006,0.067,-0.026,-0.038,-83.205,-99.711,-93.236
1747600935.02,-0.028,0.014,-0.038,0.071,-0.107,0.016,-83.202,-99.298,-92.736
1747600935.04,-0.041,-0.027,-0.011,0.015,-0.095,0.014,-83.236,-99.114,-92.418
1747600935.06,0.021,-0.040,0.005,0.009,0.051,-0.025,-83.253,-99.222,-92.497
1747600935.08,0.025,0.010,0.013,0.095,0.108,-0.040,-83.237,-98.697,-92.071
1747600935.10,-0.005,0.040,-0.022,0.176,0.085,-0.003,-83.224,-96.937,-90.417
1747600935.12,-0.021,0.018,-0.044,0.234,0.046,0.082,-83.267,-94.811,-88.342
1747600935.14,-0.064,-0.009,-0.009,0.170,0.127,0.090,-83.388,-92.859,-86.453
1747600935.16,-0.074,-0.026,0.044,0.072,0.354,0.070,-83.498,-91.600,-85.462
1747600935.18,-0.048,-0.019,0.055,0.067,0.347,0.080,-83.587,-90.613,-84.897
1747600935.20,0.003,-0.028,0.006,0.088,0.186,0.051,-83.656,-89.291,-83.879
1747600935.22,0.058,-0.014,0.011,0.158,0.009,0.031,-83.669,-87.978,-82.679
1747600935.24,0.050,0.026,-0.005,0.271,-0.213,0.057,-83.687,-85.864,-80.426
1747600935.26,0.007,0.020,0.005,0.212,-0.276,0.054,-83.713,-83.793,-78.032
1747600935.28,0.012,-0.040,0.037,0.270,-0.176,0.068,-83.746,-81.556,-75.527
1747600935.30,-0.011,-0.046,-0.001,0.408,-0.227,0.099,-83.773,-78.175,-71.901
1747600935.32,-0.012,0.007,-0.076,0.519,-0.256,0.132,-83.769,-73.417,-66.818
1747600935.34,-0.015,0.060,-0.035,0.594,-0.199,0.163,-83.716,-67.712,-60.818
1747600935.36,-0.055,0.041,-0.028,0.662,-0.063,0.180,-83.580,-61.233,-54.136
1747600935.38,-0.062,-0.010,0.032,0.631,0.137,0.192,-83.376,-54.718,-47.628
1747600935.40,-0.053,-0.051,0.045,0.727,0.212,0.178,-83.066,-48.368,-41.445
1747600935.42,-0.004,-0.039,0.024,0.896,0.121,0.215,-82.561,-41.674,-34.904
1747600935.44,0.017,0.021,0.001,0.877,-0.104,0.302,-81.930,-35.221,-28.425
1747600935.46,-0.040,0.027,-0.012,0.777,-0.238,0.295,-81.336,-29.979,-22.869
1747600935.48,-0.042,-0.041,0.096,0.728,0.104,0.228,-80.720,-25.901,-18.653
1747600935.50,0.016,-0.049,0.132,0.845,0.044,0.184,-79.992,-22.308,-15.172
1747600935.52,-0.014,0.023,-0.001,0.832,-0.433,0.148,-79.159,-19.716,-12.698
1747600935.54,0.019,0.022,-0.014,0.877,-0.342,0.209,-78.302,-17.736,-10.536
1747600935.56,0.052,0.018,0.029,0.885,-0.100,0.217,-77.407,-15.465,-8.309
1747600935.58,-0.103,0.009,0.051,0.910,-0.037,0.102,-76.471,-13.702,-6.767
1747600935.60,-0.136,-0.047,-0.001,1.042,0.137,0.152,-75.408,-12.119,-5.509
1747600935.62,-0.075,-0.015,-0.033,0.879,0.159,0.232,-74.358,-10.340,-4.159
1747600935.64,-0.035,0.009,0.041,0.796,0.416,0.292,-73.477,-8.448,-2.859
1747600935.66,-0.021,-0.019,0.023,0.717,0.386,0.354,-72.663,-6.413,-1.547
1747600935.68,0.069,-0.020,0.026,0.794,0.206,0.431,-71.876,-4.375,-0.075
1747600935.70,0.148,-0.006,-0.019,1.111,-0.093,0.259,-70.797,-2.924,1.121
1747600935.72,0.091,0.031,-0.017,0.962,0.003,0.126,-69.602,-2.219,1.602
1747600935.74,-0.074,-0.003,-0.022,0.842,-0.054,0.165,-68.577,-1.824,1.847
1747600935.76,-0.104,-0.066,0.041,0.700,0.295,0.269,-67.711,-0.940,2.376
1747600935.78,-0.013,-0.072,0.056,0.809,0.174,0.367,-66.893,0.208,3.107
1747600935.80,0.147,-0.024,-0.004,1.270,-0.057,0.238,-65.689,1.085,3.759
1747600935.82,0.096,0.060,-0.012,1.047,-0.061,0.132,-64.314,1.341,3.915
1747600935.84,-0.081,0.048,0.012,0.842,0.106,0.197,-63.218,1.668,4.027
1747600935.86,-0.114,-0.041,0.059,0.611,0.116,0.395,-62.410,2.371,4.453
1747600935.88,0.125,-0.089,0.136,0.828,-0.022,0.498,-61.593,3.420,5.351
1747600935.90,0.260,0.069,0.018,1.157,-0.505,0.285,-60.431,3.778,5.934
1747600935.92,0.114,0.131,-0.036,1.096,-0.378,0.141,-59.068,3.481,6.092
1747600935.94,-0.113,0.064,0.066,0.856,-0.271,0.054,-57.956,3.168,6.030
1747600935.96,-0.116,-0.101,-0.010,0.684,-0.121,0.297,-57.083,3.140,6.288
1747600935.98,0.053,-0.135,0.071,0.834,-0.219,0.416,-56.219,3.563,6.983
1747600936.00,0.024,0.014,-0.028,1.027,-0.362,0.299,-55.108,3.732,7.625
1747600936.02,-0.077,0.128,-0.047,0.945,0.027,0.077,-53.950,3.699,7.858
1747600936.04,-0.130,0.080,-0.003,0.787,0.147,0.113,-52.966,3.831,7.869
1747600936.06,0.041,-0.066,0.030,0.743,0.027,0.350,-52.091,4.222,8.219
1747600936.08,0.174,-0.083,0.076,0.891,-0.172,0.333,-51.154,4.569,8.750
1747600936.10,0.062,-0.022,-0.073,1.075,-0.206,0.197,-49.985,4.565,9.101
1747600936.12,-0.077,0.027,-0.036,1.021,0.045,-0.022,-48.758,4.504,9.109
1747600936.14,-0.211,-0.013,-0.068,0.783,0.138,-0.039,-47.738,4.432,8.892
1747600936.16,-0.074,-0.087,0.061,0.765,0.224,0.171,-46.864,4.669,8.894
1747600936.18,0.101,0.043,0.057,0.907,0.009,0.138,-45.917,4.932,9.051
1747600936.20,0.121,0.192,0.079,1.108,-0.121,0.068,-44.757,4.879,9.091
1747600936.22,-0.006,0.177,0.022,1.042,-0.204,-0.034,-43.511,4.615,8.967
1747600936.24,-0.066,0.003,-0.086,0.916,-0.179,0.012,-42.404,4.244,8.807
1747600936.26,0.026,-0.139,0.027,0.942,0.003,0.099,-41.343,4.155,8.799
1747600936.28,0.011,-0.113,0.041,0.973,0.010,0.108,-40.244,4.201,8.846
1747600936.30,0.066,-0.032,0.076,0.977,0.004,0.114,-39.124,4.250,8.917
1747600936.32,0.143,-0.010,-0.001,0.933,-0.051,0.057,-38.009,4.233,8.929
1747600936.34,0.053,-0.041,-0.059,0.815,-0.161,0.160,-37.008,4.141,8.978
1747600936.36,0.006,-0.093,-0.014,0.785,0.013,0.309,-36.091,4.211,9.250
1747600936.38,0.016,0.027,0.030,0.840,0.006,0.278,-35.145,4.434,9.586
1747600936.40,0.017,0.115,0.084,0.951,-0.067,0.229,-34.100,4.552,9.843
1747600936.42,0.028,0.097,-0.004,0.930,-0.189,0.176,-33.007,4.507,10.010
1747600936.44,-0.001,-0.062,-0.087,0.861,-0.156,0.217,-31.982,4.397,10.183
1747600936.46,-0.052,-0.130,-0.009,0.767,-0.081,0.293,-31.042,4.405,10.435
1747600936.48,-0.027,0.023,0.048,0.829,-0.026,0.277,-30.123,4.506,10.744
1747600936.50,0.021,0.140,0.088,0.949,-0.120,0.170,-29.084,4.525,10.947
1747600936.52,0.005,0.109,0.061,0.950,-0.099,0.045,-27.964,4.408,10.999
1747600936.54,-0.061,-0.018,-0.090,0.802,0.048,0.017,-26.962,4.369,10.929
1747600936.56,-0.104,-0.112,-0.078,0.677,0.026,0.211,-26.122,4.444,11.003
1747600936.58,0.128,-0.026,0.011,0.841,-0.017,0.193,-25.276,4.550,11.329
1747600936.60,0.185,0.125,0.056,1.204,-0.204,0.178,-24.068,4.476,11.700
1747600936.62,0.025,0.076,0.085,1.109,-0.047,0.210,-22.710,4.343,12.077
1747600936.64,-0.052,-0.081,-0.021,0.909,0.191,0.264,-21.536,4.518,12.533
1747600936.66,-0.073,-0.099,-0.108,0.777,0.240,0.329,-20.562,4.879,13.099
1747600936.68,0.097,0.029,0.022,0.838,0.121,0.228,-19.634,5.204,13.655
1747600936.70,0.097,0.164,0.108,0.953,-0.144,0.086,-18.592,5.214,14.000
1747600936.72,-0.048,0.002,0.027,0.944,-0.040,0.039,-17.477,5.045,14.233
1747600936.74,-0.055,-0.114,-0.108,0.860,0.194,0.052,-16.456,5.138,14.448
1747600936.76,-0.115,0.058,-0.110,0.763,0.184,0.093,-15.527,5.387,14.758
1747600936.78,0.014,0.150,-0.049,0.785,0.030,0.049,-14.652,5.521,15.069
1747600936.80,0.117,0.041,0.057,0.875,-0.162,0.033,-13.706,5.427,15.275
1747600936.82,0.009,0.034,0.111,0.928,-0.090,-0.005,-12.664,5.233,15.458
1747600936.84,-0.015,0.041,-0.047,0.782,0.096,0.084,-11.700,5.240,15.678
1747600936.86,-0.023,0.031,-0.121,0.662,0.108,0.106,-10.870,5.395,16.005
1747600936.88,-0.068,0.018,-0.120,0.657,-0.038,0.063,-10.130,5.434,16.343
1747600936.90,0.088,-0.073,-0.040,0.733,-0.183,0.005,-9.327,5.301,16.575
1747600936.92,0.032,-0.036,0.042,0.765,-0.252,-0.103,-8.468,5.011,16.689
1747600936.94,-0.047,-0.048,-0.076,0.668,-0.036,-0.065,-7.667,4.808,16.795
1747600936.96,0.000,-0.043,-0.066,0.630,0.124,-0.029,-6.928,4.859,16.954
1747600936.98,0.091,0.005,-0.028,0.543,0.067,0.052,-6.261,4.968,17.173
1747600937.00,0.140,0.012,-0.011,0.517,0.009,0.143,-5.658,5.032,17.488
1747600937.02,0.034,0.096,0.000,0.493,0.015,0.204,-5.072,5.039,17.902
1747600937.04,-0.041,0.136,-0.024,0.488,0.110,0.167,-4.478,5.132,18.329
1747600937.06,-0.062,-0.009,-0.135,0.425,0.076,0.107,-3.942,5.253,18.700
1747600937.08,0.007,-0.095,-0.172,0.364,-0.008,0.030,-3.493,5.298,19.001
1747600937.10,-0.055,-0.046,-0.075,0.327,0.003,-0.005,-3.103,5.278,19.238
1747600937.12,-0.044,0.075,0.025,0.311,-0.016,0.007,-2.718,5.284,19.460
1747600937.14,-0.040,0.051,-0.051,0.278,0.020,0.005,-2.394,5.257,19.691
1747600937.16,0.033,-0.043,-0.078,0.256,0.079,-0.020,-2.087,5.337,19.906
1747600937.18,0.028,-0.027,-0.092,0.206,0.019,-0.017,-1.828,5.383,20.097
1747600937.20,0.044,-0.027,-0.025,0.177,-0.067,0.000,-1.607,5.362,20.316
1747600937.22,0.092,0.048,0.003,0.209,-0.123,0.044,-1.385,5.241,20.548
1747600937.24,-0.002,0.045,0.028,0.192,-0.037,0.073,-1.153,5.147,20.831
1747600937.26,-0.021,-0.015,-0.059,0.177,0.047,0.084,-0.933,5.157,21.115
1747600937.28,-0.021,-0.036,-0.009,0.209,0.069,0.066,-0.694,5.252,21.392
1747600937.30,0.005,0.013,0.008,0.231,-0.040,0.042,-0.460,5.304,21.633
1747600937.32,0.009,0.027,0.008,0.256,-0.052,0.004,-0.220,5.247,21.845
1747600937.34,-0.033,0.014,0.005,0.230,0.025,-0.013,0.048,5.226,22.010
1747600937.36,-0.024,-0.014,-0.038,0.215,0.034,0.039,0.313,5.253,22.215
1747600937.38,0.027,0.031,-0.033,0.189,0.011,0.073,0.531,5.275,22.457
1747600937.40,0.049,-0.025,-0.030,0.130,0.051,0.094,0.681,5.317,22.735
1747600937.42,0.019,-0.032,-0.100,0.075,0.126,0.130,0.776,5.398,23.044
1747600937.44,0.005,-0.022,-0.052,-0.013,0.172,0.107,0.815,5.571,23.370
1747600937.46,0.062,-0.033,-0.090,-0.071,0.065,0.067,0.778,5.702,23.653
1747600937.48,0.009,-0.027,-0.152,-0.171,0.001,0.044,0.654,5.729,23.939
1747600937.50,-0.090,-0.040,-0.220,-0.355,0.153,-0.013,0.360,5.820,24.196
1747600937.52,-0.066,-0.034,-0.200,-0.529,0.092,0.012,-0.146,5.970,24.451
1747600937.54,0.101,-0.029,-0.202,-0.655,0.002,0.078,-0.816,6.020,24.800
1747600937.55,0.067,-0.033,-0.158,-0.766,0.074,0.120,-1.606,6.052,25.212
1747600937.58,0.003,-0.025,-0.159,-0.874,0.159,0.076,-2.525,6.203,25.623
1747600937.59,0.077,-0.062,-0.164,-1.002,0.024,0.077,-3.572,6.337,26.030
1747600937.61,0.095,-0.064,-0.209,-1.125,-0.128,0.046,-4.772,6.264,26.439
1747600937.63,-0.005,-0.034,-0.106,-1.188,-0.037,-0.031,-6.089,6.177,26.772
1747600937.65,-0.098,-0.010,-0.093,-1.220,0.129,-0.089,-7.456,6.233,27.017
1747600937.67,-0.101,0.008,-0.129,-1.307,0.154,-0.192,-8.902,6.404,27.158
1747600937.69,-0.034,-0.034,-0.090,-1.410,0.111,-0.232,-10.476,6.548,27.229
1747600937.71,0.029,-0.084,-0.050,-1.426,0.064,-0.255,-12.121,6.622,27.303
1747600937.73,0.058,-0.094,-0.005,-1.420,0.127,-0.293,-13.783,6.691,27.313
1747600937.75,0.003,-0.105,-0.037,-1.481,0.154,-0.286,-15.450,6.816,27.284
1747600937.77,-0.012,-0.132,0.009,-1.478,0.279,-0.223,-17.170,7.035,27.267
1747600937.79,0.008,-0.115,0.022,-1.480,0.363,-0.295,-18.877,7.396,27.247
1747600937.81,0.003,-0.091,-0.014,-1.485,0.255,-0.310,-20.604,7.702,27.140
1747600937.83,0.039,-0.096,0.028,-1.542,0.123,-0.230,-22.359,7.906,27.100
1747600937.85,0.065,-0.083,-0.007,-1.550,0.097,-0.120,-24.143,8.023,27.187
1747600937.87,0.107,-0.046,0.041,-1.512,0.158,-0.133,-25.889,8.230,27.313
1747600937.89,0.024,-0.045,0.022,-1.565,0.128,-0.161,-27.637,8.451,27.390
1747600937.91,0.041,-0.093,0.020,-1.630,0.045,-0.036,-29.470,8.610,27.538
1747600937.93,0.166,-0.103,0.052,-1.582,0.002,-0.025,-31.287,8.814,27.805
1747600937.95,0.039,-0.033,-0.005,-1.571,-0.129,-0.142,-33.083,8.841,27.987
1747600937.97,-0.078,0.007,-0.015,-1.544,-0.138,-0.204,-34.863,8.740,28.019
1747600937.99,-0.069,-0.012,0.003,-1.603,-0.168,-0.179,-36.672,8.583,28.025
1747600938.01,0.044,-0.061,0.045,-1.570,-0.120,-0.093,-38.499,8.521,28.129
1747600938.03,0.070,-0.073,0.003,-1.531,-0.085,-0.088,-40.269,8.541,28.287
1747600938.05,0.004,-0.056,-0.086,-1.595,-0.019,-0.214,-42.039,8.547,28.334
1747600938.07,-0.067,-0.113,-0.010,-1.637,0.133,-0.239,-43.931,8.645,28.230
1747600938.09,-0.058,-0.109,0.003,-1.643,0.006,-0.175,-45.805,8.780,28.203
1747600938.11,0.042,-0.074,-0.006,-1.692,0.016,-0.159,-47.721,8.872,28.206
1747600938.13,0.112,0.001,0.019,-1.579,-0.046,-0.183,-49.606,8.996,28.206
1747600938.15,0.026,0.053,0.033,-1.521,-0.007,-0.260,-51.383,8.961,28.075
1747600938.17,-0.027,0.056,0.050,-1.523,0.020,-0.304,-53.168,8.904,27.788
1747600938.19,-0.065,0.011,0.035,-1.512,0.047,-0.338,-54.913,8.831,27.431
1747600938.21,0.001,-0.046,-0.031,-1.582,-0.057,-0.324,-56.713,8.680,26.796
1747600938.23,0.055,-0.068,0.022,-1.550,-0.065,-0.392,-58.567,8.403,26.294
1747600938.25,0.085,-0.011,0.051,-1.484,-0.109,-0.424,-60.336,7.941,25.609
1747600938.27,0.068,0.013,0.018,-1.609,-0.137,-0.438,-62.165,7.325,24.784
1747600938.29,0.042,-0.020,0.050,-1.513,-0.197,-0.362,-64.007,6.676,24.005
1747600938.31,0.051,-0.031,-0.036,-1.377,-0.266,-0.385,-65.680,5.870,23.132
1747600938.33,0.042,-0.043,-0.031,-1.454,-0.235,-0.456,-67.327,4.851,22.038
1747600938.35,-0.013,-0.067,-0.042,-1.393,-0.244,-0.418,-68.995,3.606,20.716
1747600938.37,0.006,-0.068,-0.001,-1.333,-0.153,-0.380,-70.560,2.394,19.375
1747600938.39,0.041,-0.016,0.057,-1.418,-0.046,-0.421,-72.149,1.074,17.796
1747600938.41,-0.014,-0.001,0.018,-1.390,-0.214,-0.381,-73.766,-0.611,15.917
1747600938.43,-0.011,-0.072,0.006,-1.197,-0.092,-0.357,-75.229,-2.462,13.895
1747600938.45,-0.033,-0.070,-0.015,-1.166,-0.043,-0.420,-76.550,-4.518,11.524
1747600938.47,-0.100,-0.011,-0.090,-1.105,0.038,-0.459,-77.772,-7.325,8.372
1747600938.49,-0.090,0.011,0.047,-1.270,0.209,-0.482,-79.037,-10.850,4.314
1747600938.51,-0.046,-0.014,0.050,-1.051,0.139,-0.397,-80.230,-14.924,-0.368
1747600938.53,0.013,-0.052,-0.025,-0.944,0.172,-0.314,-81.207,-19.177,-4.828
1747600938.55,0.046,-0.050,-0.052,-0.804,0.255,-0.304,-81.996,-23.536,-9.487
1747600938.57,-0.041,0.032,-0.060,-0.848,0.344,-0.385,-82.667,-28.922,-15.264
1747600938.59,-0.066,0.059,-0.026,-0.861,0.533,-0.410,-83.249,-35.607,-22.528
1747600938.61,-0.045,-0.032,0.031,-0.826,0.455,-0.352,-83.706,-43.473,-31.021
1747600938.63,0.098,-0.119,-0.018,-0.759,0.467,-0.280,-84.070,-51.348,-39.433
1747600938.65,0.177,-0.024,-0.015,-0.721,0.367,-0.310,-84.267,-59.694,-48.333
1747600938.67,0.095,0.038,-0.050,-0.562,0.213,-0.213,-84.336,-67.212,-56.205
1747600938.69,-0.007,0.011,-0.030,-0.523,0.192,-0.173,-84.324,-73.554,-62.800
1747600938.71,-0.109,-0.026,-0.028,-0.534,0.143,-0.205,-84.270,-79.659,-69.139
1747600938.73,-0.147,-0.018,-0.040,-0.546,0.139,-0.290,-84.051,-85.961,-75.635
1747600938.75,-0.082,-0.037,-0.008,-0.461,0.215,-0.224,-83.773,-91.235,-81.133
1747600938.77,-0.001,-0.026,-0.021,-0.306,0.301,-0.176,-83.524,-94.750,-84.966
1747600938.79,0.053,0.045,-0.046,-0.220,0.285,-0.132,-83.304,-96.714,-87.319
1747600938.81,0.014,0.060,-0.019,-0.276,0.086,-0.039,-83.184,-98.699,-89.507
1747600938.83,-0.050,-0.011,0.024,-0.310,0.167,-0.095,-83.053,-101.236,-92.203
1747600938.85,-0.073,-0.041,0.020,-0.228,0.194,-0.108,-82.870,-103.277,-94.471
1747600938.87,-0.021,-0.029,0.000,-0.197,0.255,-0.090,-82.692,-104.562,-96.047
1747600938.89,0.003,-0.006,0.046,-0.177,-0.072,-0.033,-82.571,-105.862,-97.469
1747600938.91,0.002,-0.013,0.048,-0.182,-0.225,-0.141,-82.445,-107.417,-98.848
1747600938.93,0.032,-0.011,0.010,-0.090,-0.199,-0.046,-82.281,-108.831,-100.005
1747600938.95,0.029,0.029,0.007,0.030,0.086,-0.055,-82.222,-108.786,-99.909
1747600938.97,0.014,0.056,0.012,-0.021,-0.030,0.028,-82.202,-108.720,-99.908
1747600938.99,0.003,-0.014,-0.025,-0.054,-0.296,0.032,-82.230,-109.487,-100.477
1747600939.01,0.040,-0.030,0.060,0.002,-0.317,0.023,-82.233,-110.274,-100.897
1747600939.03,0.046,0.031,0.098,0.135,-0.215,0.016,-82.293,-110.207,-100.526
1747600939.05,-0.078,0.048,0.051,0.206,-0.173,0.053,-82.411,-109.072,-99.146
1747600939.07,-0.156,-0.022,-0.002,0.028,-0.004,-0.007,-82.488,-108.191,-98.142
1747600939.09,-0.105,-0.073,0.020,-0.077,0.264,-0.018,-82.456,-108.373,-98.483
1747600939.11,0.001,-0.008,0.049,-0.016,0.355,0.020,-82.439,-108.544,-99.031
1747600939.13,0.030,0.042,0.036,0.006,0.244,0.033,-82.465,-108.360,-99.210
1747600939.15,0.018,-0.019,-0.009,0.018,0.133,0.004,-82.472,-108.071,-99.125
1747600939.17,0.038,-0.021,-0.015,0.050,-0.020,0.010,-82.470,-107.775,-98.891
1747600939.19,0.026,0.026,-0.007,0.111,-0.129,0.005,-82.502,-107.262,-98.277
1747600939.21,0.003,-0.002,0.001,0.102,-0.102,0.007,-82.545,-106.603,-97.463
1747600939.23,-0.007,-0.011,-0.020,0.140,-0.006,0.014,-82.596,-105.719,-96.515
1747600939.25,-0.018,0.008,-0.046,0.148,0.002,0.036,-82.686,-104.433,-95.227
1747600939.27,-0.015,0.008,-0.029,0.105,-0.079,0.074,-82.809,-103.550,-94.288
1747600939.29,-0.011,-0.002,-0.001,0.090,-0.121,0.061,-82.912,-103.133,-93.746
1747600939.31,-0.004,-0.034,0.023,0.131,-0.073,0.041,-82.984,-102.238,-92.728
1747600939.33,0.011,-0.022,0.036,0.222,-0.126,0.045,-83.053,-100.309,-90.693
1747600939.35,0.004,0.013,-0.022,0.399,-0.252,0.048,-83.146,-97.391,-87.541
1747600939.37,-0.002,0.052,-0.051,0.490,-0.267,0.061,-83.241,-93.403,-83.226
1747600939.39,-0.011,0.030,-0.030,0.548,-0.383,0.108,-83.348,-88.889,-78.319
1747600939.41,-0.051,0.011,-0.003,0.568,-0.412,0.144,-83.453,-83.678,-72.592
1747600939.43,-0.046,-0.055,0.052,0.594,-0.209,0.163,-83.522,-78.118,-66.635
1747600939.45,-0.021,-0.072,0.048,0.706,-0.038,0.163,-83.516,-71.582,-59.916
1747600939.47,0.004,0.009,0.014,0.826,0.152,0.152,-83.337,-63.802,-52.172
1747600939.49,-0.028,0.041,0.041,0.832,0.070,0.267,-83.068,-55.799,-44.241
1747600939.51,-0.107,0.010,0.018,0.844,0.194,0.287,-82.721,-47.927,-36.453
1747600939.53,-0.132,-0.043,0.074,0.820,0.242,0.302,-82.283,-40.814,-29.538
1747600939.55,-0.023,-0.046,0.028,0.961,0.132,0.263,-81.688,-34.388,-23.273
1747600939.57,0.084,-0.007,-0.021,1.088,-0.196,0.217,-80.823,-28.875,-17.681
1747600939.59,0.059,-0.002,-0.038,1.115,-0.205,0.269,-79.818,-24.444,-13.266
1747600939.61,0.019,-0.056,0.059,1.041,-0.086,0.268,-78.783,-20.471,-9.477
1747600939.63,-0.101,-0.021,-0.035,0.915,0.028,0.269,-77.820,-17.441,-6.677
1747600939.65,-0.032,-0.045,0.089,0.863,0.295,0.329,-76.960,-14.525,-4.278
1747600939.67,0.080,-0.031,0.059,1.040,0.142,0.398,-76.005,-11.543,-1.849
1747600939.69,0.101,0.028,-0.018,1.004,0.018,0.376,-74.894,-8.980,0.409
1747600939.71,0.004,-0.004,-0.021,0.885,0.006,0.288,-73.906,-7.098,2.019
1747600939.73,-0.121,-0.030,-0.036,0.929,0.193,0.309,-72.922,-5.509,3.274
1747600939.75,-0.061,0.014,0.081,1.066,0.471,0.248,-71.800,-3.749,4.368
1747600939.77,0.025,0.057,0.034,0.981,0.371,0.154,-70.643,-2.464,4.917
1747600939.79,0.067,-0.007,0.061,0.982,0.389,0.338,-69.520,-1.204,5.491
1747600939.81,0.071,-0.020,0.058,0.868,0.198,0.380,-68.468,0.268,6.394
1747600939.83,0.058,-0.016,0.006,0.929,0.019,0.343,-67.451,1.381,7.209
1747600939.85,0.051,0.018,-0.007,1.064,-0.240,0.201,-66.301,1.938,7.683
1747600939.87,0.011,0.056,-0.035,1.196,-0.106,0.018,-64.986,1.941,7.686
1747600939.89,-0.045,0.077,0.066,1.080,0.010,-0.062,-63.671,1.671,7.196
1747600939.91,-0.155,0.022,0.071,0.783,0.062,0.124,-62.616,1.752,6.980
1747600939.93,-0.105,-0.092,-0.027,0.722,0.204,0.349,-61.763,2.326,7.303
1747600939.95,0.169,-0.115,0.062,1.014,0.160,0.273,-60.774,3.243,7.825
1747600939.97,0.145,0.032,-0.050,1.138,-0.035,0.130,-59.514,3.541,7.947
1747600939.99,0.008,0.128,-0.013,0.992,-0.011,-0.038,-58.282,3.480,7.888
1747600940.01,-0.019,0.011,-0.019,0.898,-0.086,0.080,-57.213,3.329,7.779
1747600940.03,0.094,-0.159,-0.005,0.852,-0.187,0.204,-56.211,3.359,7.992
1747600940.05,0.082,-0.180,-0.025,0.811,-0.259,0.259,-55.248,3.398,8.370
1747600940.07,0.023,0.003,0.048,0.950,-0.109,0.246,-54.247,3.513,8.773
1747600940.09,0.005,0.159,0.088,0.990,-0.049,0.213,-53.102,3.703,9.098
1747600940.11,-0.057,0.099,-0.020,0.775,-0.282,0.284,-52.064,3.763,9.413
1747600940.13,0.048,-0.098,-0.046,0.742,-0.267,0.401,-51.201,3.849,9.967
1747600940.15,0.087,-0.136,0.033,0.864,-0.286,0.400,-50.251,4.041,10.602
1747600940.17,-0.015,0.045,-0.032,0.897,-0.105,0.208,-49.221,4.117,11.048
1747600940.19,-0.099,0.143,0.015,0.872,0.021,0.139,-48.187,4.210,11.191
1747600940.21,-0.071,0.045,-0.008,0.799,0.080,0.267,-47.223,4.455,11.429
1747600940.23,0.082,-0.074,-0.012,0.806,0.069,0.298,-46.281,4.826,11.816
1747600940.25,0.052,-0.043,-0.004,0.824,-0.054,0.201,-45.322,5.043,12.114
1747600940.27,0.023,0.036,-0.027,0.858,-0.059,0.174,-44.352,5.100,12.277
1747600940.29,0.010,0.105,-0.004,0.838,-0.150,0.199,-43.374,5.090,12.457
1747600940.31,0.005,0.097,0.060,0.863,-0.115,0.171,-42.388,5.057,12.636
1747600940.33,-0.035,-0.000,0.032,0.919,-0.175,0.108,-41.352,4.957,12.728
1747600940.35,-0.046,-0.064,-0.045,0.932,-0.088,0.043,-40.294,4.788,12.736
1747600940.37,-0.036,-0.055,0.001,0.944,0.043,-0.034,-39.213,4.709,12.619
1747600940.39,-0.033,-0.015,0.005,0.837,0.048,0.015,-38.198,4.675,12.482
1747600940.41,0.039,0.020,0.040,0.835,-0.019,0.108,-37.252,4.682,12.472
1747600940.43,0.097,0.040,0.009,0.872,-0.150,0.139,-36.280,4.644,12.556
1747600940.45,0.029,0.049,0.014,0.900,-0.260,0.097,-35.254,4.448,12.632
1747600940.47,-0.007,0.037,-0.000,0.888,-0.118,0.056,-34.235,4.201,12.640
1747600940.49,0.019,0.028,0.038,0.883,-0.069,0.051,-33.206,4.111,12.605
1747600940.51,0.011,0.032,0.006,0.849,-0.168,0.136,-32.215,3.979,12.649
1747600940.53,0.006,-0.020,0.055,0.917,-0.153,0.130,-31.197,3.864,12.763
1747600940.55,-0.018,-0.024,0.020,0.919,-0.126,-0.028,-30.136,3.694,12.740
1747600940.57,0.007,-0.032,-0.011,0.865,-0.118,0.005,-29.123,3.512,12.655
1747600940.59,0.018,0.015,0.028,0.884,-0.130,0.060,-28.121,3.376,12.623
1747600940.61,0.030,0.049,0.015,0.928,-0.054,0.120,-27.088,3.291,12.669
1747600940.63,0.036,0.028,0.059,0.923,0.049,0.167,-26.021,3.332,12.905
1747600940.65,0.004,-0.017,0.011,0.952,0.040,0.208,-24.937,3.476,13.263
1747600940.66,0.046,-0.059,-0.082,0.974,0.026,0.233,-23.834,3.588,13.676
1747600940.68,0.070,-0.023,-0.021,0.949,-0.053,0.200,-22.711,3.649,14.063
1747600940.71,0.001,-0.022,0.012,0.894,-0.047,0.253,-21.650,3.647,14.473
1747600940.73,0.026,0.037,0.020,0.866,-0.054,0.247,-20.629,3.684,14.929
1747600940.75,0.043,0.116,0.005,0.854,-0.038,0.236,-19.618,3.711,15.401
1747600940.76,0.052,-0.005,-0.043,0.868,-0.023,0.220,-18.632,3.743,15.840
1747600940.78,0.002,-0.139,-0.084,0.887,0.019,0.252,-17.602,3.799,16.298
1747600940.80,-0.009,-0.072,0.003,0.905,0.094,0.224,-16.557,3.939,16.750
1747600940.82,-0.086,0.144,0.080,0.839,0.042,0.287,-15.539,4.084,17.234
1747600940.84,-0.075,0.255,0.070,0.884,-0.079,0.282,-14.545,4.135,17.808
1747600940.86,0.033,0.070,-0.070,0.897,-0.096,0.097,-13.493,4.073,18.200
1747600940.88,0.035,-0.188,-0.144,0.826,-0.110,-0.083,-12.494,3.935,18.375
1747600940.90,-0.113,-0.230,-0.072,0.784,0.063,-0.025,-11.595,3.860,18.542
1747600940.92,-0.111,0.110,0.091,0.815,0.225,0.063,-10.685,4.030,18.802
1747600940.94,-0.017,0.283,0.069,0.827,0.183,0.155,-9.744,4.306,19.123
1747600940.96,-0.030,0.174,-0.035,0.825,-0.021,0.152,-8.785,4.406,19.525
1747600940.98,0.127,-0.035,-0.093,0.830,-0.149,-0.058,-7.832,4.311,19.738
1747600941.00,0.052,-0.210,-0.065,0.794,-0.077,-0.065,-6.913,4.134,19.873
1747600941.02,-0.074,-0.033,0.023,0.778,0.162,0.014,-6.031,4.172,20.051
1747600941.04,-0.096,0.187,0.077,0.743,0.253,0.135,-5.139,4.447,20.341
1747600941.06,-0.004,0.096,-0.138,0.681,0.159,0.083,-4.316,4.694,20.674
1747600941.08,0.159,-0.128,-0.176,0.645,-0.091,-0.020,-3.548,4.742,20.901
1747600941.10,0.113,-0.135,-0.071,0.643,-0.197,-0.054,-2.836,4.538,21.042
1747600941.12,-0.096,0.053,0.076,0.621,0.088,-0.034,-2.111,4.439,21.181
1747600941.14,-0.168,0.066,-0.036,0.519,0.378,0.051,-1.461,4.733,21.361
1747600941.16,-0.035,-0.008,-0.173,0.413,0.295,0.047,-0.929,5.151,21.607
1747600941.18,0.113,0.026,-0.185,0.338,-0.093,0.003,-0.498,5.267,21.834
1747600941.20,0.101,-0.040,-0.093,0.317,-0.235,-0.062,-0.132,5.049,21.990
1747600941.22,-0.078,-0.077,-0.020,0.296,-0.011,-0.089,0.207,4.880,22.085
1747600941.24,-0.116,0.010,0.012,0.259,0.191,-0.061,0.518,4.999,22.208
1747600941.26,-0.034,-0.018,-0.065,0.165,0.144,-0.035,0.761,5.215,22.344
1747600941.28,0.130,-0.035,-0.130,0.103,-0.089,-0.039,0.892,5.246,22.513
1747600941.30,0.063,-0.035,-0.045,0.099,-0.107,-0.019,1.014,5.105,22.675
1747600941.32,-0.021,-0.008,0.018,0.091,-0.000,-0.001,1.114,5.048,22.868
1747600941.34,0.003,-0.052,0.040,0.114,0.086,0.033,1.238,5.106,23.090
1747600941.36,0.023,0.012,-0.017,0.137,0.071,0.057,1.389,5.206,23.328
1747600941.38,0.014,0.021,-0.045,0.111,0.091,0.044,1.540,5.310,23.571
1747600941.40,0.002,-0.001,-0.042,0.128,0.047,0.028,1.682,5.382,23.786
1747600941.42,0.009,-0.013,0.034,0.132,0.019,0.009,1.836,5.420,23.967
1747600941.44,-0.002,0.007,0.021,0.131,0.018,0.018,1.992,5.438,24.150
1747600941.46,-0.002,0.014,-0.015,0.130,0.100,0.006,2.105,5.499,24.344
1747600941.48,-0.021,-0.011,-0.025,0.139,0.174,-0.013,2.241,5.676,24.510
1747600941.50,0.002,-0.000,-0.071,0.121,0.211,-0.019,2.413,5.876,24.650
1747600941.52,0.019,0.009,-0.089,0.061,0.157,-0.044,2.504,6.118,24.767
1747600941.54,-0.013,0.021,-0.052,-0.027,0.077,-0.032,2.504,6.241,24.900
1747600941.56,0.064,0.025,-0.101,-0.136,-0.021,-0.035,2.422,6.258,25.030
1747600941.58,0.051,-0.044,-0.168,-0.269,0.095,-0.028,2.181,6.275,25.187
1747600941.60,-0.006,-0.032,-0.166,-0.411,0.124,-0.038,1.799,6.418,25.347
1747600941.62,0.052,-0.062,-0.145,-0.508,0.052,-0.000,1.277,6.544,25.560
1747600941.64,0.066,-0.059,-0.229,-0.678,-0.012,0.054,0.607,6.534,25.841
1747600941.66,0.016,-0.038,-0.161,-0.818,0.009,0.074,-0.234,6.540,26.162
1747600941.68,0.023,-0.014,-0.171,-0.933,0.041,0.062,-1.218,6.567,26.507
1747600941.70,-0.004,-0.040,-0.188,-1.022,-0.022,-0.024,-2.326,6.591,26.813
1747600941.72,-0.027,-0.084,-0.111,-1.103,-0.033,-0.079,-3.528,6.567,27.033
1747600941.74,0.070,-0.076,-0.129,-1.165,-0.140,-0.075,-4.833,6.471,27.223
1747600941.76,0.073,-0.065,-0.095,-1.202,-0.095,-0.089,-6.185,6.330,27.441
1747600941.78,0.011,-0.065,-0.048,-1.197,0.030,-0.099,-7.554,6.292,27.718
1747600941.80,-0.034,-0.062,-0.056,-1.297,0.041,-0.099,-8.988,6.352,27.856
1747600941.82,0.021,-0.085,-0.056,-1.315,0.092,-0.049,-10.488,6.434,28.046
1747600941.84,0.069,-0.056,0.010,-1.262,0.146,-0.069,-11.961,6.582,28.238
1747600941.86,0.047,-0.057,0.009,-1.312,0.191,-0.084,-13.426,6.817,28.406
1747600941.88,-0.003,-0.052,-0.045,-1.373,0.153,-0.109,-14.959,7.032,28.549
1747600941.90,-0.026,-0.054,-0.067,-1.428,0.122,-0.175,-16.569,7.193,28.659
1747600941.92,-0.034,-0.061,0.011,-1.490,0.048,-0.153,-18.236,7.301,28.717
1747600941.94,0.018,-0.054,-0.007,-1.467,0.026,-0.099,-19.951,7.336,28.833
1747600941.96,0.068,-0.038,0.041,-1.443,0.168,-0.112,-21.600,7.495,28.979
1747600941.98,-0.036,-0.043,-0.011,-1.466,0.267,-0.159,-23.257,7.785,29.073
1747600942.00,-0.066,-0.095,-0.039,-1.599,0.255,-0.085,-25.021,8.129,29.183
1747600942.02,0.062,-0.092,0.009,-1.590,0.208,-0.035,-26.839,8.494,29.412
1747600942.04,0.066,-0.001,0.052,-1.550,-0.008,-0.139,-28.619,8.718,29.608
1747600942.06,-0.008,0.042,0.034,-1.525,-0.081,-0.235,-30.382,8.682,29.645
1747600942.08,0.033,-0.026,-0.035,-1.577,-0.106,-0.227,-32.192,8.569,29.616
1747600942.10,0.057,-0.130,-0.057,-1.554,-0.052,-0.085,-33.979,8.529,29.673
1747600942.12,-0.018,-0.140,-0.014,-1.572,-0.020,-0.054,-35.759,8.619,29.848
1747600942.14,-0.069,-0.090,0.086,-1.564,0.159,-0.085,-37.542,8.843,30.015
1747600942.16,-0.011,-0.033,-0.016,-1.594,0.093,-0.176,-39.332,9.115,30.070
1747600942.18,0.085,-0.032,-0.001,-1.661,-0.074,-0.121,-41.204,9.247,30.136
1747600942.20,0.122,-0.033,0.015,-1.680,-0.027,-0.133,-43.114,9.320,30.248
1747600942.22,0.069,-0.051,-0.030,-1.607,-0.109,-0.158,-44.992,9.369,30.318
1747600942.24,-0.012,-0.041,0.022,-1.657,0.095,-0.244,-46.874,9.463,30.264
1747600942.26,-0.100,-0.040,0.057,-1.637,0.145,-0.255,-48.783,9.623,30.093
1747600942.28,-0.040,-0.003,-0.009,-1.626,0.107,-0.192,-50.658,9.891,30.013
1747600942.30,0.037,0.026,-0.044,-1.581,-0.085,-0.267,-52.500,9.977,29.882
1747600942.32,0.095,0.007,-0.014,-1.476,-0.297,-0.324,-54.280,9.717,29.589
1747600942.34,0.083,-0.040,-0.049,-1.506,-0.301,-0.365,-56.015,9.187,29.145
1747600942.36,0.061,-0.096,0.041,-1.487,-0.148,-0.393,-57.783,8.673,28.618
1747600942.38,0.035,-0.085,0.038,-1.532,-0.126,-0.377,-59.537,8.238,28.024
1747600942.40,-0.032,-0.024,0.028,-1.528,-0.180,-0.346,-61.344,7.770,27.415
1747600942.42,-0.016,0.010,0.008,-1.538,-0.124,-0.336,-63.126,7.306,26.838
1747600942.44,0.018,0.007,0.025,-1.413,-0.104,-0.481,-64.856,6.637,25.949
1747600942.46,0.014,-0.024,0.023,-1.368,-0.089,-0.498,-66.484,5.696,24.759
1747600942.48,-0.013,-0.017,-0.002,-1.373,0.027,-0.466,-68.088,4.684,23.453
1747600942.50,-0.015,-0.036,0.040,-1.399,0.027,-0.474,-69.715,3.616,21.999
1747600942.52,0.035,-0.041,-0.021,-1.326,0.083,-0.465,-71.275,2.456,20.404
1747600942.54,0.037,-0.019,0.001,-1.451,0.089,-0.419,-72.883,1.094,18.600
1747600942.56,-0.042,-0.019,0.025,-1.329,0.100,-0.393,-74.478,-0.288,16.721
1747600942.58,-0.044,-0.029,0.023,-1.244,0.210,-0.451,-75.949,-2.067,14.386
1747600942.60,0.018,-0.046,-0.029,-1.195,0.112,-0.501,-77.273,-4.458,11.382
1747600942.62,0.017,-0.038,-0.041,-1.082,-0.017,-0.500,-78.540,-7.759,7.640
1747600942.64,0.017,-0.009,-0.047,-0.998,0.106,-0.477,-79.593,-11.510,3.442
1747600942.66,-0.046,0.002,-0.013,-1.028,0.189,-0.481,-80.589,-15.989,-1.457
1747600942.68,-0.057,-0.033,-0.007,-1.048,0.280,-0.409,-81.551,-21.252,-7.042
1747600942.70,-0.051,-0.066,0.069,-1.031,0.296,-0.296,-82.484,-26.955,-13.151
1747600942.72,-0.033,-0.012,-0.005,-0.949,0.373,-0.318,-83.288,-33.508,-20.132
1747600942.74,-0.005,-0.010,-0.011,-0.810,0.380,-0.353,-83.845,-41.356,-28.464
1747600942.76,0.027,-0.051,-0.013,-0.680,0.261,-0.337,-84.173,-49.224,-36.784
1747600942.78,-0.029,0.012,-0.037,-0.626,0.028,-0.330,-84.310,-57.278,-45.013
1747600942.80,-0.020,0.049,0.004,-0.545,0.185,-0.280,-84.325,-64.825,-52.696
1747600942.82,-0.004,-0.023,0.004,-0.438,0.360,-0.210,-84.275,-70.638,-58.841
1747600942.84,0.015,-0.051,0.017,-0.499,0.410,-0.215,-84.202,-75.915,-64.613
1747600942.86,0.012,-0.033,0.014,-0.486,0.072,-0.169,-84.079,-81.545,-70.570
1747600942.88,-0.007,-0.014,-0.024,-0.398,-0.077,-0.183,-83.942,-86.570,-75.586
1747600942.90,0.029,0.029,-0.031,-0.293,-0.064,-0.177,-83.741,-90.319,-79.282
1747600942.92,0.054,0.039,-0.018,-0.236,0.054,-0.137,-83.556,-92.984,-81.947
1747600942.94,0.026,0.024,0.025,-0.223,0.105,-0.175,-83.366,-94.976,-84.069
1747600942.96,-0.059,-0.019,0.019,-0.250,-0.067,-0.168,-83.140,-97.049,-86.175
1747600942.98,-0.085,-0.026,-0.010,-0.244,-0.012,-0.124,-82.928,-99.212,-88.282
1747600943.00,-0.025,-0.031,0.007,-0.203,0.148,-0.033,-82.786,-101.020,-90.190
1747600943.02,0.010,-0.027,-0.015,-0.116,0.099,0.016,-82.751,-102.296,-91.643
1747600943.04,0.001,0.012,-0.057,0.032,0.003,-0.023,-82.743,-102.657,-92.048
1747600943.06,-0.000,0.022,-0.052,0.097,0.080,-0.071,-82.676,-101.783,-91.206
1747600943.08,0.001,0.022,-0.026,0.065,0.063,-0.004,-82.629,-100.870,-90.376
1747600943.10,-0.039,-0.007,0.002,0.017,-0.009,0.051,-82.677,-100.500,-90.025
1747600943.12,-0.067,-0.017,0.013,0.004,0.047,0.021,-82.730,-100.222,-89.767
1747600943.14,-0.032,-0.011,0.004,0.041,0.298,-0.018,-82.747,-99.303,-89.035
1747600943.16,0.020,-0.003,0.033,-0.005,0.368,-0.015,-82.741,-98.431,-88.565
1747600943.18,0.041,0.028,0.015,-0.058,0.132,0.028,-82.718,-98.441,-88.893
1747600943.20,0.029,0.019,-0.007,0.001,-0.102,-0.004,-82.695,-98.803,-89.249
1747600943.22,0.031,-0.022,0.036,-0.007,-0.018,-0.022,-82.654,-98.826,-89.177
1747600943.24,-0.003,-0.034,0.067,-0.027,0.033,-0.034,-82.616,-99.096,-89.479
1747600943.26,-0.051,-0.004,0.017,-0.006,-0.041,-0.043,-82.586,-99.215,-89.595
1747600943.28,-0.028,0.028,0.014,-0.015,-0.161,0.010,-82.580,-99.379,-89.646
1747600943.30,-0.005,0.013,-0.002,-0.041,-0.085,0.036,-82.625,-99.984,-90.092
1747600943.32,-0.042,-0.047,0.031,-0.032,0.057,0.022,-82.644,-100.782,-90.872
1747600943.34,-0.071,-0.031,0.071,0.000,0.097,0.006,-82.624,-100.944,-91.137
1747600943.36,-0.045,0.011,0.047,0.067,-0.006,0.018,-82.621,-100.664,-90.912
1747600943.38,0.009,-0.025,-0.006,0.071,-0.097,0.038,-82.663,-100.068,-90.248
1747600943.40,0.028,-0.015,-0.003,0.102,-0.171,0.045,-82.701,-99.728,-89.753
1747600943.42,-0.006,0.017,-0.026,0.125,-0.233,0.052,-82.723,-99.398,-89.168
1747600943.44,-0.016,-0.014,-0.009,0.191,-0.204,0.060,-82.774,-98.700,-88.192
1747600943.46,0.015,-0.033,0.009,0.302,-0.118,0.069,-82.879,-96.867,-86.169
1747600943.48,0.010,0.005,-0.011,0.476,-0.256,0.103,-83.026,-93.606,-82.694
1747600943.50,-0.045,0.062,-0.072,0.612,-0.418,0.156,-83.184,-88.764,-77.413
1747600943.52,-0.086,0.049,-0.047,0.629,-0.316,0.197,-83.342,-83.058,-71.209
1747600943.54,-0.086,-0.047,0.029,0.614,-0.050,0.201,-83.443,-76.900,-64.803
1747600943.56,-0.026,-0.079,0.064,0.671,0.120,0.212,-83.467,-70.202,-58.117
1747600943.58,0.029,-0.036,0.022,0.874,0.087,0.224,-83.336,-62.239,-50.242
1747600943.60,0.052,0.069,-0.032,0.959,-0.231,0.298,-83.010,-53.507,-41.368
1747600943.62,0.025,0.038,-0.023,0.874,-0.003,0.346,-82.614,-45.309,-32.913
1747600943.64,-0.001,-0.043,0.104,0.694,0.160,0.217,-82.175,-38.947,-26.627
1747600943.66,-0.015,-0.072,0.086,0.777,-0.016,0.198,-81.649,-34.114,-21.839
1747600943.68,0.020,-0.011,0.043,0.916,-0.204,0.243,-80.962,-29.537,-17.080
1747600943.70,0.034,0.056,0.005,1.051,-0.318,0.258,-80.095,-25.142,-12.700
1747600943.72,-0.035,0.077,-0.004,1.039,-0.600,0.225,-79.091,-21.718,-9.048
1747600943.74,-0.138,-0.020,-0.043,1.073,-0.297,0.232,-78.067,-18.994,-6.036
1747600943.76,-0.139,-0.086,-0.006,1.139,0.325,0.179,-76.924,-16.249,-3.542
1747600943.78,-0.066,-0.063,0.082,1.104,0.592,0.195,-75.746,-13.518,-1.652
1747600943.80,0.008,0.003,-0.014,0.897,0.339,0.386,-74.673,-10.859,0.223
1747600943.82,0.107,-0.015,0.054,0.781,0.209,0.558,-73.856,-8.057,2.527
1747600943.83,0.079,-0.034,0.004,0.901,-0.154,0.424,-72.952,-5.702,4.627
1747600943.86,0.075,-0.037,-0.021,1.073,-0.068,0.323,-71.909,-4.243,6.065
1747600943.88,0.177,-0.042,-0.020,1.332,-0.054,0.190,-70.512,-3.143,6.999
1747600943.89,0.033,0.011,-0.075,0.930,0.012,0.248,-69.197,-2.477,7.555
1747600943.91,0.026,-0.046,0.075,0.750,0.281,0.469,-68.280,-1.052,8.600
1747600943.93,-0.004,-0.058,0.009,0.698,0.045,0.477,-67.468,0.447,9.787
1747600943.95,0.132,-0.030,0.042,0.884,-0.195,0.434,-66.576,1.644,10.927
1747600943.97,0.062,0.085,-0.027,1.214,-0.313,0.092,-65.362,1.909,11.371
1747600943.99,-0.117,0.144,0.004,1.179,0.014,-0.078,-63.946,1.601,11.125
1747600944.01,-0.256,0.048,0.053,0.894,0.380,-0.003,-62.763,1.653,10.900
1747600944.03,-0.265,-0.087,0.062,0.664,0.470,0.168,-61.903,2.255,11.040
1747600944.05,-0.024,-0.114,0.055,0.807,0.398,0.202,-61.067,3.166,11.460
1747600944.07,0.122,0.033,-0.023,1.028,0.066,0.068,-60.025,3.570,11.644
1747600944.09,0.067,0.190,0.020,1.235,0.008,-0.106,-58.716,3.411,11.446
1747600944.11,-0.108,0.201,0.062,1.091,0.252,-0.188,-57.367,3.134,10.940
1747600944.13,-0.142,0.025,0.059,0.744,0.241,-0.012,-56.343,3.139,10.598
1747600944.15,0.055,-0.160,0.052,0.743,0.177,0.243,-55.501,3.489,10.748
1747600944.17,0.248,-0.147,0.061,0.841,0.029,0.324,-54.583,4.065,11.262
1747600944.19,0.143,0.077,-0.034,1.030,-0.140,0.174,-53.503,4.255,11.625
1747600944.21,0.013,0.222,-0.002,1.056,0.010,0.015,-52.277,4.191,11.644
1747600944.23,-0.085,0.106,0.057,0.923,-0.036,0.029,-51.152,4.096,11.521
1747600944.25,0.049,-0.112,0.000,0.904,0.008,0.229,-50.120,4.151,11.629
1747600944.27,0.156,-0.226,-0.000,0.896,-0.068,0.329,-49.068,4.444,12.030
1747600944.29,0.101,-0.113,-0.060,0.841,-0.174,0.299,-48.057,4.614,12.462
1747600944.31,0.079,0.037,0.028,0.907,-0.076,0.254,-47.038,4.727,12.803
1747600944.33,0.078,0.062,-0.006,0.858,-0.136,0.277,-45.987,4.832,13.105
1747600944.35,0.070,-0.033,-0.051,0.818,-0.156,0.379,-45.015,4.957,13.518
1747600944.37,0.036,-0.107,-0.019,0.779,-0.146,0.451,-44.063,5.179,14.085
1747600944.39,-0.008,-0.039,0.033,0.829,-0.058,0.396,-43.106,5.430,14.639
1747600944.41,-0.016,0.060,0.059,0.832,-0.007,0.352,-42.102,5.708,15.084
1747600944.43,0.007,0.066,-0.042,0.693,-0.068,0.388,-41.194,5.966,15.521
1747600944.45,0.071,-0.016,-0.023,0.659,-0.087,0.495,-40.394,6.240,16.079
1747600944.47,0.012,-0.001,0.080,0.791,-0.114,0.404,-39.521,6.518,16.657
1747600944.49,-0.110,0.092,-0.001,0.869,-0.193,0.276,-38.532,6.532,17.001
1747600944.51,-0.058,0.087,0.015,0.929,-0.163,0.159,-37.478,6.440,17.170
1747600944.53,-0.039,0.010,-0.038,0.881,-0.179,0.156,-36.411,6.279,17.235
1747600944.55,-0.043,-0.036,-0.023,0.821,-0.089,0.177,-35.445,6.182,17.347
1747600944.57,-0.061,-0.042,0.008,0.896,-0.119,0.155,-34.438,6.129,17.449
1747600944.59,-0.031,-0.019,0.024,0.969,-0.047,0.009,-33.363,6.021,17.438
1747600944.61,-0.014,0.001,0.017,0.954,-0.002,-0.091,-32.264,5.886,17.231
1747600944.63,-0.006,0.013,-0.011,0.934,-0.062,0.004,-31.197,5.742,17.022
1747600944.65,0.059,0.012,-0.023,0.876,-0.148,0.130,-30.174,5.609,16.994
1747600944.67,0.036,0.057,0.037,0.894,-0.165,0.186,-29.149,5.482,17.199
1747600944.69,0.002,0.032,0.001,0.887,-0.219,0.082,-28.120,5.302,17.429
1747600944.71,0.011,-0.053,0.008,0.987,-0.127,0.015,-27.055,5.089,17.535
1747600944.73,-0.039,-0.092,-0.008,0.950,-0.092,0.036,-25.931,4.917,17.615
1747600944.75,0.006,-0.025,0.012,0.910,0.021,0.144,-24.883,4.886,17.802
1747600944.77,0.026,0.068,0.072,0.943,0.071,0.197,-23.797,4.993,18.113
1747600944.79,-0.002,0.077,0.026,1.040,0.066,0.171,-22.660,5.113,18.416
1747600944.81,-0.018,-0.007,0.001,1.029,0.093,0.126,-21.449,5.233,18.686
1747600944.83,-0.001,-0.022,0.006,0.990,0.089,0.148,-20.304,5.367,18.924
1747600944.85,-0.005,0.052,0.054,0.929,-0.048,0.114,-19.196,5.431,19.183
1747600944.87,0.138,-0.048,0.016,1.044,-0.172,0.177,-18.056,5.295,19.367
1747600944.89,0.059,-0.018,-0.030,0.988,-0.056,0.196,-16.889,5.179,19.683
1747600944.91,-0.014,-0.068,0.002,0.903,0.219,0.206,-15.784,5.338,20.030
1747600944.93,-0.077,-0.069,-0.056,0.880,0.227,0.315,-14.758,5.639,20.461
1747600944.95,0.005,0.180,0.031,0.853,0.108,0.287,-13.743,5.914,20.969
1747600944.97,-0.012,0.160,-0.059,0.850,-0.064,0.209,-12.742,5.967,21.415
1747600944.99,0.036,-0.025,-0.060,0.870,-0.101,0.010,-11.742,5.885,21.702
1747600945.01,0.041,-0.140,-0.065,0.868,-0.055,-0.034,-10.764,5.756,21.788
1747600945.03,-0.035,-0.093,0.014,0.840,0.074,0.029,-9.792,5.763,21.880
1747600945.05,-0.115,0.148,-0.030,0.751,0.199,0.142,-8.876,5.916,22.132
1747600945.07,-0.114,0.237,-0.014,0.762,0.229,0.056,-8.012,6.169,22.382
1747600945.09,-0.026,-0.054,-0.097,0.788,0.008,-0.158,-7.150,6.306,22.450
1747600945.11,0.131,-0.140,-0.101,0.775,-0.162,-0.312,-6.280,6.162,22.253
1747600945.13,-0.013,-0.041,-0.075,0.715,-0.063,-0.223,-5.457,5.953,22.067
1747600945.15,-0.061,0.085,-0.036,0.650,0.093,-0.069,-4.707,5.979,22.030
1747600945.17,0.017,0.116,-0.015,0.606,0.073,-0.037,-3.998,6.069,22.131
1747600945.19,0.135,0.047,-0.037,0.556,-0.094,0.059,-3.325,6.069,22.268
1747600945.21,0.158,-0.006,-0.073,0.506,-0.150,-0.040,-2.726,5.910,22.378
1747600945.23,0.073,-0.086,-0.049,0.482,-0.039,-0.022,-2.155,5.794,22.491
1747600945.25,-0.058,-0.084,-0.096,0.436,0.127,0.051,-1.643,5.829,22.653
1747600945.27,-0.039,-0.013,-0.003,0.406,0.168,0.053,-1.157,6.028,22.881
1747600945.29,0.047,0.034,-0.024,0.355,-0.020,0.049,-0.719,6.124,23.086
1747600945.31,0.131,-0.009,-0.074,0.334,-0.153,-0.003,-0.325,5.998,23.272
1747600945.33,0.092,-0.096,-0.097,0.306,-0.147,0.048,0.049,5.815,23.434
1747600945.35,0.001,-0.039,-0.030,0.273,0.001,0.135,0.382,5.731,23.678
1747600945.37,0.009,0.011,-0.012,0.257,0.091,0.190,0.708,5.796,24.216
1747600945.39,0.010,0.022,-0.046,0.225,0.061,0.178,1.005,5.878,24.578
1747600945.41,0.003,0.039,-0.047,0.179,0.024,0.117,1.258,5.929,24.909
1747600945.43,0.013,0.025,-0.090,0.115,-0.082,0.076,1.436,5.898,25.175
1747600945.45,-0.013,0.019,-0.111,0.041,-0.077,0.003,1.528,5.794,25.387
1747600945.47,-0.124,0.023,-0.115,-0.028,-0.083,-0.123,1.533,5.704,25.486
1747600945.49,-0.079,-0.013,-0.083,-0.097,-0.077,-0.286,1.420,5.610,25.433
1747600945.51,-0.027,-0.006,-0.102,-0.154,-0.026,-0.359,1.250,5.570,25.242
1747600945.53,-0.039,-0.000,-0.179,-0.278,0.055,-0.317,0.962,5.597,25.036
1747600945.55,0.052,-0.030,-0.199,-0.402,0.047,-0.212,0.547,5.667,24.969
1747600945.57,0.169,-0.048,-0.170,-0.563,0.081,0.027,-0.015,5.730,25.064
1747600945.59,0.079,-0.067,-0.182,-0.739,0.120,0.174,-0.733,5.845,25.441
1747600945.61,0.133,-0.021,-0.198,-0.897,0.118,0.197,-1.641,6.014,25.919
1747600945.63,0.106,-0.052,-0.222,-1.064,0.025,0.184,-2.735,6.100,26.419
1747600945.65,0.018,-0.058,-0.171,-1.234,-0.019,0.170,-4.015,6.120,26.920
1747600945.67,-0.016,-0.043,-0.162,-1.334,0.006,0.194,-5.452,6.149,27.460
1747600945.69,0.018,-0.038,-0.156,-1.380,-0.091,0.050,-6.985,6.145,27.939
1747600945.71,-0.010,-0.057,-0.102,-1.413,-0.168,-0.078,-8.568,6.015,28.229
1747600945.73,-0.098,-0.082,-0.056,-1.516,-0.166,-0.041,-10.242,5.815,28.459
1747600945.75,-0.017,-0.090,-0.067,-1.576,-0.038,0.013,-12.013,5.732,28.769
1747600945.77,0.032,-0.060,0.012,-1.455,0.219,-0.097,-13.733,5.884,29.034
1747600945.79,-0.054,-0.093,0.006,-1.498,0.215,-0.196,-15.419,6.152,29.136
1747600945.81,0.003,-0.158,-0.011,-1.557,0.080,-0.153,-17.167,6.312,29.228
1747600945.83,0.137,-0.158,-0.053,-1.584,0.018,-0.110,-18.974,6.374,29.363
1747600945.85,0.076,-0.093,0.107,-1.525,0.132,-0.162,-20.756,6.471,29.467
1747600945.87,-0.038,-0.053,0.048,-1.514,0.207,-0.132,-22.499,6.678,29.540
1747600945.89,-0.048,-0.040,-0.011,-1.594,0.275,-0.062,-24.268,6.997,29.663
1747600945.91,0.026,-0.049,-0.016,-1.634,0.322,-0.041,-26.120,7.419,29.856
1747600945.93,0.029,-0.065,0.021,-1.606,0.336,-0.092,-27.955,7.897,30.050
1747600945.95,-0.015,-0.058,0.039,-1.609,0.254,-0.232,-29.793,8.290,30.113
1747600945.97,-0.031,-0.057,-0.019,-1.625,0.024,-0.278,-31.655,8.429,30.045
1747600945.99,0.013,-0.060,-0.036,-1.658,-0.102,-0.232,-33.556,8.376,29.988
1747600946.01,0.083,-0.056,0.016,-1.657,-0.144,-0.225,-35.468,8.237,29.952
1747600946.03,0.036,-0.044,0.048,-1.629,-0.199,-0.292,-37.376,8.020,29.868
1747600946.05,-0.037,-0.037,-0.035,-1.645,-0.125,-0.360,-39.259,7.731,29.625
1747600946.07,-0.009,-0.099,-0.034,-1.662,-0.031,-0.330,-41.180,7.520,29.314
1747600946.09,0.001,-0.121,0.007,-1.825,0.141,-0.251,-43.199,7.513,29.105
1747600946.11,0.018,-0.126,0.040,-1.749,0.135,-0.152,-45.277,7.738,29.063
1747600946.13,0.046,-0.006,0.023,-1.638,0.125,-0.200,-47.202,7.986,29.021
1747600946.15,0.015,0.053,0.009,-1.654,0.087,-0.268,-49.098,8.082,28.831
1747600946.17,0.009,0.008,0.023,-1.619,0.008,-0.269,-50.987,8.093,28.574
1747600946.19,0.039,-0.065,0.002,-1.692,0.072,-0.212,-52.893,8.111,28.352
1747600946.21,0.134,-0.074,0.024,-1.622,-0.036,-0.195,-54.817,8.240,28.250
1747600946.23,0.083,-0.003,0.016,-1.508,-0.196,-0.272,-56.606,8.071,27.995
1747600946.25,0.004,0.042,0.001,-1.512,-0.287,-0.352,-58.357,7.582,27.534
1747600946.27,-0.063,0.005,0.017,-1.498,-0.024,-0.485,-60.123,6.964,26.754
1747600946.29,-0.065,-0.075,0.041,-1.541,-0.021,-0.448,-61.900,6.308,25.723
1747600946.31,-0.010,-0.105,0.010,-1.678,-0.000,-0.333,-63.780,5.840,24.944
1747600946.33,0.085,-0.053,0.021,-1.563,-0.109,-0.364,-65.679,5.356,24.178
1747600946.35,0.139,0.033,0.006,-1.417,-0.154,-0.420,-67.408,4.514,23.137
1747600946.37,0.054,0.044,0.040,-1.372,-0.149,-0.469,-69.024,3.320,21.744
1747600946.39,-0.037,-0.043,-0.009,-1.359,-0.101,-0.442,-70.609,1.983,20.151
1747600946.41,-0.044,-0.104,-0.039,-1.327,-0.129,-0.419,-72.153,0.417,18.334
1747600946.43,0.030,-0.099,-0.001,-1.259,0.100,-0.388,-73.628,-1.064,16.506
1747600946.45,-0.001,-0.030,0.017,-1.195,0.113,-0.402,-75.014,-2.686,14.346
1747600946.47,-0.093,0.031,0.018,-1.345,0.225,-0.440,-76.415,-4.754,11.725
1747600946.49,-0.054,0.026,0.021,-1.204,0.190,-0.410,-77.828,-7.271,8.574
1747600946.51,0.006,-0.047,-0.024,-1.110,0.261,-0.487,-79.056,-10.511,4.702
1747600946.53,0.081,-0.072,-0.011,-1.084,0.387,-0.461,-80.163,-14.364,0.071
1747600946.55,0.029,0.011,-0.022,-1.063,0.172,-0.413,-81.190,-19.205,-5.503
1747600946.57,-0.005,0.017,-0.014,-1.012,0.227,-0.396,-82.115,-24.978,-11.895
1747600946.59,0.025,-0.053,0.035,-1.069,0.119,-0.381,-82.939,-31.962,-19.511
1747600946.61,0.016,-0.047,-0.001,-1.121,0.036,-0.377,-83.700,-41.249,-28.951
1747600946.63,0.008,-0.014,-0.011,-0.943,0.107,-0.385,-84.205,-52.197,-40.053
1747600946.65,-0.013,-0.013,-0.060,-0.762,0.126,-0.318,-84.376,-62.367,-50.392
1747600946.67,-0.047,-0.016,-0.027,-0.792,-0.027,-0.237,-84.427,-71.768,-59.921
1747600946.69,-0.149,-0.010,-0.041,-0.760,0.008,-0.259,-84.366,-81.427,-69.590
1747600946.71,-0.137,-0.055,-0.046,-0.680,0.340,-0.291,-84.109,-89.458,-77.861
1747600946.73,-0.029,-0.053,-0.009,-0.673,0.581,-0.287,-83.739,-96.130,-85.114
1747600946.75,0.101,0.052,-0.033,-0.555,0.540,-0.248,-83.336,-101.155,-90.847
1747600946.77,0.128,0.074,-0.039,-0.442,0.203,-0.153,-82.987,-105.038,-95.186
1747600946.79,0.079,0.002,-0.054,-0.287,-0.098,-0.153,-82.710,-107.722,-97.933
1747600946.81,0.012,-0.016,-0.057,-0.115,-0.275,-0.088,-82.490,-109.379,-99.385
1747600946.83,-0.054,0.005,-0.107,0.051,-0.292,-0.044,-82.420,-109.655,-99.329
1747600946.85,-0.116,-0.006,-0.025,0.054,-0.214,0.027,-82.435,-109.442,-98.808
1747600946.87,-0.102,-0.014,0.030,0.035,0.029,0.042,-82.493,-109.342,-98.588
1747600946.89,-0.053,0.020,0.056,0.054,0.337,0.026,-82.543,-108.862,-98.317
1747600946.91,0.005,0.034,0.067,0.001,0.353,0.049,-82.603,-108.184,-98.072
1747600946.93,-0.039,-0.036,0.091,-0.119,0.259,0.002,-82.611,-108.511,-98.737
1747600946.95,-0.018,-0.062,0.106,-0.006,0.379,-0.028,-82.564,-108.749,-99.327
1747600946.97,0.024,-0.000,0.085,0.046,0.498,-0.031,-82.541,-107.818,-98.929
1747600946.98,0.014,0.040,0.008,0.052,0.183,0.007,-82.548,-106.974,-98.491
1747600947.00,-0.020,-0.010,-0.006,-0.020,-0.059,-0.006,-82.559,-106.781,-98.338
1747600947.02,0.057,-0.050,0.064,-0.032,-0.163,-0.025,-82.533,-107.167,-98.599
1747600947.04,0.107,-0.007,0.050,0.008,-0.258,-0.051,-82.488,-107.449,-98.630
1747600947.07,0.050,0.010,-0.005,0.067,-0.249,-0.044,-82.447,-107.252,-98.121
1747600947.08,-0.029,0.020,-0.026,0.079,-0.231,-0.027,-82.431,-106.834,-97.437
1747600947.10,-0.092,0.001,-0.039,0.072,-0.132,-0.006,-82.440,-106.558,-96.926
1747600947.12,-0.060,-0.013,0.009,0.047,0.138,0.024,-82.484,-106.269,-96.630
1747600947.14,-0.054,0.013,0.017,0.061,0.271,0.037,-82.543,-105.655,-96.275
1747600947.16,-0.061,0.006,-0.019,0.040,0.129,0.024,-82.597,-105.020,-95.877
1747600947.18,-0.020,-0.020,-0.023,0.016,0.031,-0.011,-82.601,-104.620,-95.554
1747600947.20,0.075,-0.016,-0.011,-0.044,0.048,-0.021,-82.559,-104.623,-95.596
1747600947.22,0.111,0.017,0.014,-0.030,0.020,-0.014,-82.518,-104.931,-95.966
1747600947.24,0.042,0.008,-0.010,-0.003,-0.089,-0.035,-82.483,-105.025,-96.014
1747600947.26,0.013,-0.031,-0.016,-0.012,-0.133,-0.031,-82.434,-105.036,-95.898
1747600947.28,-0.009,-0.006,-0.008,-0.002,-0.327,0.004,-82.438,-105.361,-95.958
1747600947.30,-0.028,0.006,-0.035,0.003,-0.238,0.013,-82.468,-105.784,-96.034
1747600947.32,-0.010,-0.025,-0.020,0.089,0.007,0.024,-82.517,-105.732,-95.850
1747600947.34,-0.022,0.011,-0.002,0.265,0.107,0.035,-82.605,-104.174,-94.364
1747600947.36,-0.039,0.049,-0.030,0.355,-0.053,0.064,-82.735,-101.396,-91.624
1747600947.38,-0.066,0.017,-0.010,0.340,-0.243,0.143,-82.908,-98.426,-88.439
1747600947.40,-0.074,-0.027,0.063,0.329,-0.169,0.124,-83.095,-95.743,-85.477
1747600947.42,-0.067,-0.041,0.088,0.390,0.017,0.103,-83.253,-92.493,-82.121
1747600947.44,-0.075,-0.012,0.099,0.515,-0.021,0.097,-83.370,-88.095,-77.729
1747600947.46,-0.069,0.038,0.023,0.570,-0.140,0.100,-83.427,-82.667,-72.154
1747600947.48,-0.019,0.038,0.041,0.550,-0.210,0.137,-83.448,-77.175,-66.429
1747600947.50,-0.010,-0.018,0.059,0.581,-0.161,0.174,-83.450,-71.605,-60.592
1747600947.52,-0.014,-0.053,0.096,0.641,-0.178,0.170,-83.379,-65.548,-54.322
1747600947.54,-0.019,-0.030,0.010,0.693,-0.404,0.111,-83.170,-59.478,-47.890
1747600947.56,0.034,0.040,-0.016,0.806,-0.471,0.140,-82.807,-53.656,-41.503
1747600947.58,0.088,0.045,0.028,0.876,-0.467,0.226,-82.352,-47.325,-34.577
1747600947.60,0.025,-0.032,0.024,0.866,-0.430,0.211,-81.823,-41.592,-28.256
1747600947.62,-0.047,-0.045,0.001,0.939,-0.171,0.220,-81.173,-36.346,-22.564
1747600947.64,-0.053,-0.015,0.040,0.902,0.284,0.214,-80.419,-31.276,-17.865
1747600947.66,-0.042,-0.007,0.049,0.929,0.499,0.269,-79.651,-26.668,-13.996
1747600947.68,-0.045,-0.019,0.033,0.931,0.458,0.316,-78.808,-22.090,-10.278
1747600947.70,-0.087,-0.027,-0.009,0.895,0.292,0.307,-77.960,-18.318,-7.183
1747600947.72,0.043,-0.065,-0.045,0.971,0.370,0.292,-77.041,-15.094,-4.580
1747600947.74,0.202,-0.022,0.023,1.065,0.373,0.322,-75.992,-12.126,-2.322
1747600947.76,0.139,0.026,0.025,0.976,0.031,0.381,-74.909,-9.428,-0.108
1747600947.78,-0.046,-0.016,-0.025,0.914,0.068,0.386,-73.925,-7.370,1.706
1747600947.80,-0.007,-0.098,0.029,1.108,0.215,0.423,-72.855,-5.169,3.496
1747600947.82,0.056,-0.014,-0.088,1.305,0.093,0.269,-71.464,-3.422,4.865
1747600947.84,0.022,0.049,0.015,1.006,0.304,0.116,-70.148,-2.402,5.423
1747600947.86,-0.157,-0.020,0.002,0.791,0.401,0.224,-69.127,-1.460,5.711
1747600947.88,-0.160,-0.071,-0.017,0.747,0.444,0.430,-68.293,0.057,6.573
1747600947.90,0.058,-0.006,0.076,1.047,0.219,0.438,-67.268,1.696,7.651
1747600947.92,0.186,0.061,0.013,1.265,0.005,0.233,-65.932,2.584,8.246
1747600947.94,0.066,0.058,0.029,1.161,-0.147,0.177,-64.482,2.816,8.370
1747600947.96,-0.112,-0.006,0.108,0.886,-0.051,0.274,-63.332,3.135,8.695
1747600947.98,-0.102,-0.075,-0.063,0.684,-0.100,0.404,-62.411,3.623,9.394
1747600948.00,0.135,-0.074,0.123,0.945,-0.234,0.403,-61.486,4.318,10.315
1747600948.02,0.091,0.068,-0.074,1.248,-0.496,0.188,-60.194,4.284,10.816
1747600948.04,-0.028,0.161,-0.052,1.232,-0.194,0.026,-58.730,3.888,10.842
1747600948.06,-0.204,0.089,0.064,1.071,0.163,0.100,-57.448,3.832,10.758
1747600948.08,-0.117,-0.102,-0.022,0.859,0.179,0.348,-56.315,4.334,11.127
1747600948.10,0.081,-0.198,-0.014,0.926,0.112,0.309,-55.288,4.964,11.649
1747600948.12,0.086,-0.134,-0.026,1.003,-0.111,0.254,-54.165,5.290,12.052
1747600948.14,0.046,0.027,0.033,1.042,-0.015,0.145,-52.951,5.328,12.251
1747600948.16,-0.002,0.137,0.054,0.891,-0.052,0.109,-51.848,5.355,12.268
1747600948.18,0.019,0.077,-0.012,0.877,-0.192,0.312,-50.847,5.411,12.542
1747600948.20,0.119,0.005,0.030,1.111,-0.370,0.314,-49.681,5.414,12.956
1747600948.22,0.022,0.007,0.003,1.232,-0.196,0.164,-48.309,5.223,13.184
1747600948.24,-0.048,0.007,-0.003,1.017,0.106,0.061,-46.982,5.168,13.180
1747600948.26,-0.042,-0.044,0.003,0.738,0.214,0.234,-46.000,5.453,13.258
1747600948.28,0.112,-0.091,-0.010,0.770,0.070,0.447,-45.132,5.931,13.713
1747600948.30,0.095,-0.003,0.027,0.975,-0.155,0.319,-44.078,6.269,14.226
1747600948.32,-0.094,0.108,-0.027,1.034,-0.224,0.009,-42.922,6.057,14.298
1747600948.34,-0.054,0.073,0.097,1.112,-0.036,-0.099,-41.697,5.733,14.031
1747600948.36,0.028,-0.037,-0.074,0.894,-0.116,0.042,-40.537,5.526,13.802
1747600948.38,0.051,-0.100,-0.002,0.798,0.033,0.287,-39.577,5.549,13.949
1747600948.40,0.043,-0.011,0.070,0.856,0.014,0.297,-38.599,5.805,14.273
1747600948.42,0.019,0.151,0.002,0.930,-0.049,0.202,-37.566,5.912,14.507
1747600948.44,0.108,0.179,0.188,1.147,0.036,0.096,-36.384,5.929,14.570
1747600948.46,0.041,0.074,-0.013,0.959,-0.038,-0.012,-35.126,5.881,14.453
1747600948.48,-0.084,-0.146,-0.105,0.803,-0.021,0.285,-34.115,5.817,14.497
1747600948.50,0.038,-0.141,0.053,0.811,0.111,0.309,-33.180,6.087,14.835
1747600948.52,0.070,0.122,0.044,0.931,-0.108,0.234,-32.151,6.243,15.072
1747600948.54,0.093,0.191,0.092,1.052,-0.240,0.143,-31.004,6.078,15.196
1747600948.56,0.052,0.037,0.102,1.144,-0.245,0.038,-29.727,5.800,15.157
1747600948.58,-0.101,-0.133,-0.197,0.909,-0.193,0.144,-28.536,5.518,15.107
1747600948.60,-0.152,-0.203,-0.016,0.850,0.079,0.191,-27.542,5.524,15.259
1747600948.62,-0.039,0.010,0.060,0.919,0.049,0.093,-26.528,5.657,15.323
1747600948.64,0.052,0.112,0.061,1.057,-0.191,0.072,-25.392,5.552,15.302
1747600948.66,0.079,0.069,0.012,1.081,-0.168,0.022,-24.171,5.292,15.242
1747600948.68,-0.074,-0.036,-0.102,1.017,0.039,0.038,-22.961,5.155,15.146
1747600948.70,-0.123,-0.140,-0.098,0.947,0.197,0.142,-21.842,5.329,15.137
1747600948.72,0.027,-0.018,0.047,0.894,0.055,0.188,-20.782,5.531,15.373
1747600948.74,0.237,0.159,0.046,0.896,-0.170,0.262,-19.738,5.524,15.733
1747600948.76,0.093,0.090,0.003,0.917,-0.280,0.274,-18.688,5.304,16.167
1747600948.78,-0.017,-0.063,-0.039,0.893,-0.069,0.198,-17.615,5.150,16.565
1747600948.80,-0.059,-0.186,-0.064,0.940,0.069,0.099,-16.566,5.179,16.854
1747600948.82,-0.014,-0.187,-0.024,0.989,0.151,0.104,-15.444,5.306,17.095
1747600948.84,-0.012,0.067,0.080,0.944,0.181,0.241,-14.325,5.542,17.399
1747600948.86,-0.125,0.311,0.039,0.874,0.140,0.284,-13.275,5.787,17.834
1747600948.88,-0.015,0.094,-0.129,0.868,0.018,0.129,-12.263,5.923,18.236
1747600948.90,0.095,-0.119,-0.111,0.852,-0.172,-0.072,-11.285,5.801,18.387
1747600948.92,0.020,-0.137,0.024,0.849,-0.142,-0.047,-10.326,5.573,18.433
1747600948.94,-0.069,0.090,0.064,0.858,0.046,0.085,-9.353,5.502,18.577
1747600948.96,-0.175,0.260,0.070,0.794,0.191,0.150,-8.404,5.651,19.124
1747600948.98,-0.063,0.121,-0.093,0.788,0.091,0.057,-7.497,5.835,19.413
1747600949.00,0.178,-0.169,-0.138,0.869,-0.184,-0.166,-6.566,5.759,19.491
1747600949.02,0.124,-0.171,0.030,0.885,-0.063,-0.208,-5.576,5.543,19.407
1747600949.04,-0.096,-0.083,-0.060,0.840,0.257,-0.055,-4.609,5.621,19.408
1747600949.06,-0.008,0.153,-0.036,0.779,0.414,0.122,-3.691,6.047,19.583
1747600949.08,0.008,0.320,0.046,0.714,0.284,0.093,-2.833,6.454,19.862
1747600949.10,0.159,0.078,-0.096,0.726,-0.061,-0.001,-1.992,6.588,20.049
1747600949.12,0.121,-0.131,-0.098,0.720,-0.161,-0.124,-1.182,6.402,20.096
1747600949.14,-0.112,-0.078,-0.055,0.630,0.072,-0.082,-0.428,6.362,20.087
1747600949.16,-0.096,0.071,-0.080,0.528,0.098,-0.044,0.227,6.469,20.186
1747600949.18,-0.031,0.063,-0.087,0.460,0.042,-0.100,0.771,6.547,20.252
1747600949.20,0.058,-0.042,-0.151,0.411,-0.076,-0.170,1.246,6.534,20.230
1747600949.22,0.020,-0.046,-0.141,0.315,-0.072,-0.168,1.640,6.435,20.195
1747600949.24,-0.024,-0.001,-0.021,0.270,-0.042,-0.159,1.945,6.386,20.177
1747600949.26,0.039,-0.006,-0.022,0.222,-0.073,-0.105,2.207,6.315,20.214
1747600949.28,0.077,-0.013,-0.102,0.162,-0.067,-0.106,2.411,6.249,20.260
1747600949.30,0.048,-0.074,-0.103,0.122,-0.075,-0.053,2.556,6.168,20.337
1747600949.32,0.062,-0.026,-0.017,0.088,-0.061,0.002,2.666,6.091,20.485
1747600949.34,0.008,0.004,0.054,0.050,-0.030,0.047,2.749,6.041,20.697
1747600949.36,0.007,0.013,-0.003,0.059,-0.013,0.035,2.815,6.020,20.910
1747600949.38,0.028,-0.049,-0.066,0.066,-0.001,0.032,2.914,6.023,21.129
1747600949.40,0.007,-0.039,-0.045,0.054,-0.008,0.027,2.998,6.034,21.338
1747600949.42,-0.011,0.013,0.021,0.049,-0.049,0.032,3.060,6.009,21.534
1747600949.44,-0.006,0.020,-0.040,0.046,-0.027,0.005,3.113,5.951,21.736
1747600949.46,-0.032,0.003,-0.070,0.006,0.134,-0.044,3.155,6.023,21.888
1747600949.48,-0.020,-0.042,-0.126,-0.136,0.080,-0.015,3.107,6.169,22.028
1747600949.50,0.057,0.001,-0.105,-0.220,-0.018,0.059,2.903,6.201,22.249
1747600949.52,0.049,0.017,-0.118,-0.319,-0.005,0.047,2.598,6.164,22.524
1747600949.54,-0.011,-0.062,-0.127,-0.430,0.058,0.041,2.189,6.193,22.780
1747600949.56,0.061,-0.101,-0.205,-0.602,-0.061,0.054,1.615,6.199,23.090
1747600949.58,0.038,-0.050,-0.201,-0.780,-0.107,0.037,0.835,6.087,23.409
1747600949.60,0.059,-0.062,-0.175,-0.894,-0.037,0.029,-0.109,5.993,23.727
1747600949.62,0.019,-0.050,-0.157,-1.015,0.018,0.068,-1.185,5.998,24.073
1747600949.64,-0.028,-0.025,-0.167,-1.095,-0.025,0.031,-2.391,6.005,24.440
1747600949.66,0.027,-0.050,-0.133,-1.124,-0.111,-0.012,-3.649,5.928,24.739
1747600949.68,0.012,-0.069,-0.052,-1.136,-0.098,-0.050,-4.959,5.799,24.999
1747600949.70,-0.039,-0.042,-0.058,-1.173,0.022,-0.034,-6.272,5.767,25.238
1747600949.72,-0.071,0.009,-0.079,-1.209,0.146,-0.057,-7.618,5.867,25.454
1747600949.74,-0.051,0.007,-0.058,-1.289,0.164,-0.096,-9.048,6.072,25.641
1747600949.76,-0.020,-0.031,-0.025,-1.348,0.029,-0.130,-10.568,6.194,25.806
1747600949.78,0.026,-0.074,-0.035,-1.353,-0.053,-0.182,-12.118,6.175,25.907
1747600949.80,0.031,-0.079,-0.015,-1.347,-0.014,-0.143,-13.666,6.107,25.996
1747600949.82,0.001,-0.081,-0.003,-1.394,0.086,-0.063,-15.226,6.158,26.131
1747600949.84,-0.036,-0.099,0.015,-1.414,0.308,-0.022,-16.825,6.430,26.343
1747600949.86,-0.029,-0.086,-0.011,-1.416,0.294,-0.117,-18.439,6.822,26.521
1747600949.88,-0.022,-0.085,-0.050,-1.475,0.179,-0.170,-20.087,7.115,26.563
1747600949.90,0.004,-0.087,-0.019,-1.475,0.189,-0.125,-21.789,7.316,26.616
1747600949.92,-0.032,-0.037,0.054,-1.441,0.333,-0.160,-23.465,7.626,26.677
1747600949.94,-0.068,0.008,0.016,-1.489,0.411,-0.154,-25.132,8.085,26.692
1747600949.96,0.023,-0.041,-0.053,-1.536,0.451,-0.121,-26.869,8.629,26.776
1747600949.98,0.046,-0.061,0.005,-1.515,0.408,-0.129,-28.622,9.203,26.860
1747600950.00,-0.049,-0.080,0.017,-1.495,0.262,-0.180,-30.343,9.650,26.918
1747600950.02,0.022,-0.058,-0.003,-1.536,0.074,-0.098,-32.077,9.920,26.984
1747600950.04,0.192,-0.103,0.050,-1.528,-0.058,0.033,-33.826,10.107,27.217
1747600950.06,0.175,-0.066,0.037,-1.559,-0.085,0.023,-35.556,10.277,27.547
1747600950.08,0.022,-0.039,-0.019,-1.524,-0.106,-0.024,-37.306,10.392,27.822
1747600950.10,-0.044,-0.064,-0.107,-1.552,-0.023,-0.100,-39.035,10.497,28.027
1747600950.12,-0.040,-0.153,-0.003,-1.613,0.064,-0.122,-40.829,10.712,28.189
1747600950.14,-0.027,-0.139,-0.011,-1.680,-0.037,-0.082,-42.689,10.921,28.361
1747600950.16,0.062,-0.059,0.054,-1.726,-0.056,-0.030,-44.632,11.189,28.683
1747600950.17,0.032,0.063,0.065,-1.604,-0.152,-0.097,-46.511,11.374,28.992
1747600950.19,-0.036,0.111,-0.049,-1.590,-0.201,-0.203,-48.326,11.353,29.123
1747600950.21,-0.015,0.046,0.002,-1.530,-0.087,-0.316,-50.137,11.274,29.043
1747600950.23,0.031,-0.018,0.059,-1.586,-0.098,-0.254,-51.926,11.194,28.903
1747600950.25,0.126,-0.052,0.036,-1.608,-0.264,-0.198,-53.790,11.140,28.876
1747600950.27,0.142,-0.058,-0.000,-1.564,-0.387,-0.239,-55.603,10.909,28.867
1747600950.29,0.053,-0.049,0.017,-1.527,-0.468,-0.341,-57.419,10.456,28.689
1747600950.31,-0.059,-0.025,-0.016,-1.365,-0.321,-0.413,-59.105,9.726,28.189
1747600950.33,-0.082,-0.026,-0.030,-1.329,-0.138,-0.455,-60.704,9.062,27.449
1747600950.35,-0.052,-0.046,-0.009,-1.377,-0.075,-0.400,-62.296,8.490,26.673
1747600950.37,0.037,-0.052,0.024,-1.370,-0.089,-0.379,-63.929,7.992,25.962
1747600950.39,0.075,-0.018,0.050,-1.333,-0.070,-0.371,-65.507,7.448,25.191
1747600950.41,0.030,0.006,0.065,-1.350,-0.111,-0.320,-67.072,6.893,24.436
1747600950.43,0.020,0.020,0.101,-1.301,0.081,-0.358,-68.630,6.352,23.578
1747600950.45,-0.047,0.017,0.034,-1.370,-0.013,-0.425,-70.174,5.632,22.458
1747600950.47,-0.043,-0.005,0.055,-1.384,-0.077,-0.386,-71.801,4.600,21.134
1747600950.49,0.105,-0.002,0.054,-1.263,-0.142,-0.372,-73.337,3.436,19.734
1747600950.51,0.061,0.026,-0.019,-1.185,-0.373,-0.388,-74.739,1.879,18.129
1747600950.53,-0.115,0.019,-0.061,-1.266,-0.224,-0.452,-76.138,-0.311,15.984
1747600950.55,-0.124,-0.073,0.019,-1.245,0.366,-0.444,-77.567,-2.558,13.295
1747600950.57,-0.034,-0.097,-0.007,-1.255,0.603,-0.390,-78.962,-4.680,10.197
1747600950.59,-0.038,-0.026,-0.020,-1.194,0.360,-0.327,-80.314,-7.188,6.767
1747600950.61,0.018,-0.008,0.001,-1.120,0.346,-0.257,-81.594,-10.028,3.197
1747600950.63,0.049,-0.014,-0.025,-0.955,0.382,-0.363,-82.681,-13.824,-1.384
1747600950.65,-0.028,-0.016,-0.046,-0.797,0.259,-0.378,-83.501,-19.221,-7.323
1747600950.67,-0.066,-0.026,0.004,-0.794,0.213,-0.384,-84.172,-25.941,-14.365
1747600950.69,-0.037,-0.031,-0.010,-0.720,0.315,-0.332,-84.712,-33.644,-22.360
1747600950.71,0.054,-0.037,0.042,-0.734,0.461,-0.319,-85.148,-42.445,-31.679
1747600950.73,0.066,-0.038,0.032,-0.677,0.219,-0.241,-85.463,-51.625,-41.305
1747600950.75,0.021,0.001,-0.012,-0.677,0.044,-0.284,-85.643,-62.048,-51.857
1747600950.77,0.028,0.007,-0.023,-0.659,0.072,-0.305,-85.624,-72.851,-62.783
1747600950.79,0.003,0.013,-0.033,-0.618,-0.042,-0.241,-85.476,-83.019,-72.975
1747600950.81,0.022,-0.029,-0.046,-0.478,0.148,-0.273,-85.225,-90.948,-80.964
1747600950.83,0.026,0.017,-0.014,-0.435,0.229,-0.238,-84.886,-96.279,-86.578
1747600950.85,-0.052,0.028,-0.011,-0.410,-0.137,-0.150,-84.605,-101.190,-91.546
1747600950.87,-0.080,-0.061,-0.012,-0.383,-0.086,-0.173,-84.322,-105.341,-95.563
1747600950.89,-0.057,-0.044,0.037,-0.365,0.046,-0.134,-84.017,-108.908,-99.121
1747600950.91,-0.064,0.055,-0.021,-0.197,0.208,-0.248,-83.735,-110.990,-101.372
1747600950.93,0.001,0.077,-0.061,-0.177,0.113,-0.068,-83.499,-112.301,-102.874
1747600950.95,0.044,0.001,-0.071,-0.075,0.099,-0.063,-83.368,-112.970,-103.683
1747600950.97,0.063,-0.000,-0.087,0.019,0.019,0.012,-83.324,-113.074,-103.863
1747600950.99,0.013,0.038,-0.071,0.057,-0.043,0.098,-83.409,-112.916,-103.680
1747600951.01,-0.012,-0.010,-0.027,0.109,0.080,0.056,-83.534,-112.495,-103.266
1747600951.03,-0.018,-0.048,0.028,0.134,0.276,0.027,-83.651,-111.069,-102.034
1747600951.05,0.002,0.014,0.049,0.253,0.277,0.081,-83.819,-108.618,-99.918
1747600951.07,-0.048,0.028,0.061,0.143,0.128,0.063,-84.005,-106.222,-97.741
1747600951.09,-0.066,-0.044,0.056,0.010,0.178,-0.037,-84.034,-105.274,-96.942
1747600951.11,0.049,-0.030,0.088,0.004,0.228,-0.051,-83.971,-105.018,-96.937
1747600951.13,0.095,0.032,0.083,0.044,0.071,-0.034,-83.924,-104.651,-96.746
1747600951.15,0.021,0.008,0.075,-0.034,-0.177,-0.049,-83.871,-104.637,-96.666
1747600951.17,-0.026,-0.032,0.032,-0.096,-0.187,-0.091,-83.737,-105.634,-97.441
1747600951.19,0.029,-0.005,0.022,-0.048,-0.171,-0.088,-83.612,-106.613,-98.223
1747600951.21,0.028,0.015,0.014,-0.001,-0.178,-0.086,-83.525,-107.189,-98.591
1747600951.23,-0.013,0.018,-0.048,0.026,-0.098,-0.091,-83.438,-107.231,-98.477
1747600951.25,-0.046,0.004,-0.058,-0.008,-0.082,-0.029,-83.362,-107.130,-98.269
1747600951.27,-0.040,-0.024,-0.051,-0.115,0.069,-0.025,-83.318,-107.785,-98.909
1747600951.29,-0.005,-0.018,-0.016,-0.107,0.177,-0.009,-83.267,-108.776,-100.057
1747600951.31,0.027,-0.011,-0.015,-0.015,0.112,0.031,-83.264,-108.965,-100.433
1747600951.33,0.024,0.001,-0.043,0.076,-0.012,0.023,-83.302,-108.054,-99.583
1747600951.35,-0.017,0.016,-0.049,0.121,-0.096,-0.009,-83.327,-106.557,-98.012
1747600951.37,-0.036,0.023,-0.024,0.123,-0.127,-0.026,-83.333,-105.221,-96.546
1747600951.39,-0.039,-0.008,-0.009,0.097,-0.148,-0.024,-83.359,-104.232,-95.389
1747600951.41,-0.013,-0.043,0.033,0.096,-0.121,0.010,-83.417,-103.217,-94.213
1747600951.43,-0.007,-0.023,0.054,0.093,-0.124,0.015,-83.459,-101.999,-92.853
1747600951.45,-0.019,0.012,0.050,0.151,-0.194,0.047,-83.502,-100.858,-91.540
1747600951.47,-0.058,0.038,0.002,0.224,-0.297,0.058,-83.576,-99.222,-89.602
1747600951.49,-0.058,0.006,0.017,0.214,-0.192,0.069,-83.662,-97.657,-87.716
1747600951.51,-0.021,-0.029,0.062,0.254,-0.008,0.082,-83.760,-96.127,-86.073
1747600951.53,-0.047,-0.015,0.078,0.283,-0.004,0.105,-83.868,-94.136,-84.068
1747600951.55,-0.069,-0.014,0.065,0.287,-0.099,0.109,-83.958,-91.484,-81.339
1747600951.57,-0.048,-0.010,0.050,0.358,-0.167,0.114,-84.039,-88.400,-78.086
1747600951.59,0.000,-0.000,0.024,0.506,-0.198,0.152,-84.163,-83.740,-73.178
1747600951.61,0.053,0.027,0.027,0.600,-0.179,0.168,-84.234,-77.467,-66.655
1747600951.63,0.060,0.007,0.036,0.632,-0.232,0.201,-84.247,-70.386,-59.324
1747600951.65,-0.023,0.009,-0.015,0.716,-0.462,0.206,-84.158,-62.927,-51.409
1747600951.67,-0.072,-0.001,0.033,0.780,-0.129,0.185,-83.905,-55.171,-43.228
1747600951.69,-0.046,-0.024,0.117,0.781,0.165,0.230,-83.525,-47.459,-35.521
1747600951.71,-0.031,-0.021,0.071,0.841,0.062,0.251,-83.058,-40.162,-28.327
1747600951.73,-0.036,-0.002,0.013,0.941,0.008,0.234,-82.408,-33.596,-21.748
1747600951.75,-0.059,-0.004,-0.007,1.012,-0.120,0.282,-81.593,-27.803,-15.807
1747600951.77,-0.071,-0.019,0.027,0.846,0.213,0.261,-80.752,-22.931,-10.908
1747600951.79,-0.031,-0.061,0.143,0.825,0.467,0.250,-79.989,-18.999,-7.709
1747600951.81,0.003,-0.035,0.086,1.022,0.400,0.281,-79.084,-15.231,-4.748
1747600951.83,0.011,0.095,0.015,1.136,0.269,0.239,-77.926,-11.983,-2.149
1747600951.85,0.013,0.075,0.029,1.011,0.413,0.181,-76.762,-9.526,-0.341
1747600951.87,0.007,-0.079,0.098,0.892,0.370,0.195,-75.717,-7.605,0.808
1747600951.89,0.058,-0.155,-0.040,0.838,0.201,0.375,-74.790,-5.654,2.189
1747600951.91,0.182,-0.035,-0.037,1.003,0.029,0.427,-73.797,-3.510,3.970
1747600951.93,0.150,0.124,-0.029,1.141,0.116,0.292,-72.589,-1.894,5.280
1747600951.95,0.008,0.030,-0.011,1.139,0.038,0.230,-71.276,-0.807,5.997
1747600951.97,-0.154,-0.088,-0.067,0.934,0.142,0.319,-70.084,0.131,6.653
1747600951.99,-0.139,-0.143,0.017,0.844,0.321,0.424,-69.074,1.523,7.561
1747600952.01,0.024,-0.082,-0.001,0.886,0.381,0.440,-68.093,3.130,8.569
1747600952.03,0.150,0.023,-0.002,0.995,0.181,0.414,-66.977,4.498,9.428
1747600952.05,0.129,0.076,0.025,1.123,-0.222,0.372,-65.722,5.220,10.008
1747600952.07,-0.003,0.028,-0.002,1.060,-0.278,0.366,-64.432,5.593,10.521
1747600952.09,-0.053,-0.021,0.011,0.964,-0.162,0.337,-63.263,5.880,10.927
1747600952.11,-0.015,-0.038,0.013,1.066,-0.312,0.330,-62.063,6.155,11.322
1747600952.13,0.045,0.013,0.016,1.085,-0.192,0.289,-60.812,6.254,11.710
1747600952.15,0.035,0.024,0.014,1.156,-0.219,0.289,-59.478,6.348,12.080
1747600952.17,-0.073,0.017,-0.026,1.129,-0.014,0.238,-58.150,6.441,12.381
1747600952.19,-0.094,-0.026,-0.008,0.996,-0.035,0.212,-56.908,6.605,12.572
1747600952.21,-0.031,-0.045,-0.011,0.929,-0.011,0.245,-55.814,6.795,12.825
1747600952.23,0.088,-0.001,0.058,1.058,-0.110,0.253,-54.622,6.925,13.076
1747600952.25,0.064,0.053,0.005,1.065,-0.203,0.180,-53.403,6.903,13.253
1747600952.27,-0.034,0.047,0.012,1.097,-0.124,0.164,-52.152,6.723,13.304
1747600952.29,-0.003,0.017,0.079,1.072,0.005,0.121,-50.889,6.733,13.365
1747600952.31,-0.010,0.015,-0.003,0.975,-0.030,0.146,-49.717,6.722,13.363
1747600952.33,-0.002,-0.011,-0.024,0.974,-0.106,0.224,-48.598,6.720,13.493
1747600952.35,-0.015,-0.014,0.028,1.052,-0.110,0.134,-47.426,6.682,13.608
1747600952.37,-0.074,0.003,0.011,1.044,-0.075,0.072,-46.212,6.547,13.572
1747600952.39,-0.049,-0.025,0.002,1.027,-0.006,0.101,-45.026,6.417,13.499
1747600952.41,0.096,-0.067,0.008,0.972,0.106,0.157,-43.869,6.526,13.533
1747600952.43,0.092,-0.016,-0.018,0.852,-0.057,0.234,-42.820,6.642,13.651
1747600952.45,0.076,0.041,0.030,0.855,-0.120,0.336,-41.824,6.736,13.949
1747600952.47,0.067,0.060,0.090,0.912,-0.140,0.319,-40.777,6.819,14.303
1747600952.49,0.037,0.058,0.029,0.939,-0.124,0.209,-39.689,6.797,14.519
1747600952.51,-0.014,-0.006,-0.095,0.840,-0.166,0.251,-38.639,6.734,14.684
1747600952.53,0.024,-0.036,-0.072,0.790,-0.053,0.295,-37.683,6.773,14.952
1747600952.55,0.004,0.029,0.037,0.779,-0.129,0.280,-36.756,6.857,15.222
1747600952.57,-0.018,0.081,0.054,0.796,-0.143,0.274,-35.830,6.836,15.485
1747600952.59,0.029,0.048,-0.003,0.831,-0.055,0.212,-34.879,6.870,15.702
1747600952.62,-0.085,-0.016,-0.055,0.803,-0.102,0.118,-33.920,6.817,15.790
1747600952.63,-0.132,-0.020,-0.027,0.847,-0.029,0.001,-32.989,6.729,15.746
1747600952.65,-0.157,0.030,0.014,0.894,-0.014,-0.123,-31.994,6.596,15.522
1747600952.67,-0.013,0.023,0.032,0.900,-0.043,-0.154,-31.007,6.412,15.199
1747600952.69,0.165,0.002,0.033,0.917,-0.082,-0.053,-29.985,6.203,14.916
1747600952.71,0.179,-0.034,0.058,0.925,-0.014,0.122,-28.933,6.093,14.842
1747600952.73,0.049,-0.031,-0.019,0.878,-0.006,0.206,-27.880,6.121,14.920
1747600952.75,-0.030,-0.027,0.009,0.877,0.089,0.235,-26.864,6.255,15.090
1747600952.77,0.076,0.007,0.026,0.901,0.023,0.232,-25.831,6.401,15.262
1747600952.79,0.131,0.046,0.004,0.921,-0.122,0.180,-24.755,6.399,15.389
1747600952.81,-0.002,0.005,-0.012,0.906,-0.109,0.194,-23.698,6.277,15.487
1747600952.83,-0.045,-0.078,0.026,1.022,0.042,0.178,-22.592,6.304,15.593
1747600952.85,-0.039,-0.045,-0.025,1.064,-0.041,0.152,-21.376,6.333,15.774
1747600952.87,-0.024,-0.010,-0.019,0.968,-0.001,0.092,-20.192,6.291,16.033
1747600952.89,-0.095,-0.053,-0.133,0.891,0.013,-0.014,-19.123,6.283,16.210
1747600952.91,-0.005,-0.058,-0.048,0.735,0.044,-0.013,-18.215,6.284,16.344
1747600952.93,0.107,0.079,0.076,0.746,-0.080,0.004,-17.369,6.237,16.504
1747600952.95,0.125,0.124,0.068,0.791,-0.210,-0.064,-16.497,6.044,16.584
1747600954.34,0.035,0.031,-0.017,0.892,-0.229,0.107,-15.560,5.722,16.739
1747600954.35,-0.064,-0.003,-0.007,0.950,0.096,0.165,-14.471,5.670,17.042
1747600954.35,-0.091,-0.094,-0.083,0.869,0.232,0.161,-13.413,5.890,17.373
1747600954.36,0.022,-0.055,-0.016,0.817,0.183,0.114,-12.446,6.165,17.688
1747600954.37,0.005,0.121,0.070,0.835,0.027,0.066,-11.498,6.278,17.960
1747600954.37,0.033,0.100,0.013,0.887,-0.105,0.089,-10.517,6.211,18.157
1747600954.38,0.040,-0.016,-0.082,0.877,-0.032,-0.019,-9.503,6.106,18.329
1747600954.39,-0.056,-0.150,-0.086,0.764,0.129,0.016,-8.565,6.136,18.466
1747600954.39,0.068,-0.012,0.037,0.705,0.148,0.133,-7.734,6.310,18.708
1747600954.39,0.110,0.230,0.137,0.758,-0.052,0.141,-6.883,6.371,18.973
1747600954.40,0.036,0.047,-0.064,0.789,-0.129,0.171,-5.972,6.261,19.290
1747600954.40,0.071,-0.136,-0.193,0.720,-0.074,0.102,-5.085,6.154,19.602
1747600954.41,-0.063,-0.110,-0.160,0.608,0.017,0.076,-4.328,6.117,19.872
1747600954.41,-0.020,0.027,0.043,0.588,0.054,0.011,-3.658,6.171,20.087
1747600954.41,0.033,0.055,0.014,0.523,-0.020,-0.023,-3.033,6.188,20.243
1747600954.41,-0.042,0.116,-0.118,0.491,0.026,-0.049,-2.453,6.165,20.388
1747600954.42,-0.189,0.058,-0.237,0.439,0.229,-0.088,-1.922,6.305,20.497
1747600954.42,0.011,0.005,-0.180,0.351,0.129,-0.187,-1.494,6.546,20.542
1747600954.42,0.011,0.018,-0.075,0.286,-0.130,-0.292,-1.165,6.523,20.479
1747600954.43,0.024,0.020,-0.080,0.207,-0.151,-0.296,-0.919,6.343,20.323
1747600954.43,0.010,0.048,-0.142,0.144,-0.093,-0.198,-0.756,6.190,20.219
1747600954.43,0.031,0.020,-0.091,0.057,-0.031,-0.108,-0.659,6.130,20.264
1747600954.44,0.066,-0.043,0.021,0.044,-0.082,-0.076,-0.621,6.072,20.376
1747600954.44,0.061,-0.027,0.009,0.048,-0.142,-0.058,-0.581,5.940,20.482
1747600954.45,0.054,-0.011,0.004,0.065,-0.079,-0.011,-0.520,5.806,20.650
1747600954.45,0.018,0.009,0.011,0.067,-0.047,0.051,-0.449,5.741,20.856
1747600964.04,0.018,-0.009,0.046,0.071,-0.046,0.094,-0.352,5.709,21.119
1747600964.05,0.042,-0.031,0.045,0.107,-0.048,0.100,-0.238,5.661,21.401
1747600964.05,0.009,-0.036,0.051,0.148,0.013,0.090,-0.087,5.652,21.674
1747600964.05,-0.015,-0.028,0.021,0.185,0.070,0.112,0.098,5.719,21.934
1747600964.05,-0.012,-0.000,0.016,0.226,0.071,0.151,0.342,5.821,22.233
1747600964.05,0.017,0.033,0.026,0.269,0.050,0.149,0.653,5.918,22.554
1747600964.06,-0.029,0.026,0.005,0.288,0.026,0.106,0.994,5.972,22.827
1747600964.07,-0.027,0.002,-0.023,0.308,0.053,0.079,1.359,6.005,23.060
1747600964.07,-0.052,0.021,-0.017,0.297,0.077,0.053,1.696,6.068,23.257
1747600964.07,-0.006,0.062,-0.055,0.258,0.052,0.039,2.000,6.153,23.427
1747600964.08,-0.005,0.053,-0.084,0.257,0.035,0.019,2.297,6.196,23.604
1747600964.09,-0.036,0.000,-0.096,0.201,0.024,-0.017,2.556,6.240,23.757
1747600964.09,0.001,-0.009,-0.106,0.117,0.053,-0.073,2.731,6.278,23.861
1747600964.10,-0.014,-0.052,-0.094,-0.024,0.077,-0.073,2.766,6.378,23.923
1747600964.11,0.107,-0.065,-0.187,-0.166,0.026,-0.038,2.642,6.437,24.049
1747600964.12,0.088,-0.056,-0.186,-0.317,-0.033,0.030,2.368,6.406,24.241
1747600964.12,0.033,-0.015,-0.215,-0.491,0.030,0.102,1.910,6.410,24.553
1747600964.13,0.037,-0.032,-0.253,-0.639,0.062,0.106,1.279,6.460,24.916
1747600964.13,0.018,-0.031,-0.213,-0.792,0.015,0.058,0.480,6.505,25.272
1747600964.14,0.015,-0.040,-0.220,-0.968,-0.062,-0.001,-0.518,6.482,25.570
1747600964.14,0.016,-0.022,-0.193,-1.064,-0.100,0.004,-1.668,6.388,25.870
1747600964.15,-0.058,0.023,-0.150,-1.169,-0.051,-0.033,-2.936,6.301,26.179
1747600964.15,-0.064,0.008,-0.149,-1.255,0.011,-0.128,-4.327,6.282,26.392
1747600964.15,0.002,-0.012,-0.098,-1.332,-0.001,-0.212,-5.815,6.287,26.493
1747600964.16,-0.020,-0.019,-0.106,-1.409,-0.009,-0.197,-7.408,6.267,26.573
1747600964.17,-0.002,-0.013,-0.046,-1.453,0.100,-0.188,-9.061,6.314,26.665
1747600964.18,0.043,-0.055,-0.052,-1.530,0.056,-0.178,-10.776,6.410,26.766
1747600964.18,0.089,-0.084,-0.058,-1.594,-0.024,-0.070,-12.563,6.440,26.964
1747600964.19,0.001,-0.066,0.071,-1.578,0.043,-0.140,-14.386,6.453,27.167
1747600964.21,-0.058,-0.099,0.006,-1.506,0.211,-0.282,-16.156,6.588,27.202
1747600964.23,-0.052,-0.102,-0.038,-1.548,0.121,-0.305,-17.924,6.770,27.128
1747600964.24,-0.014,-0.097,0.010,-1.639,0.101,-0.244,-19.774,6.843,27.081
1747600964.25,-0.041,-0.098,0.052,-1.593,0.287,-0.259,-21.650,7.024,27.077
1747600964.26,-0.059,-0.096,0.012,-1.594,0.410,-0.321,-23.484,7.406,26.998
1747600964.27,0.007,-0.065,0.027,-1.663,0.406,-0.301,-25.367,7.825,26.856
1747600964.28,0.111,-0.035,0.008,-1.699,0.240,-0.139,-27.314,8.194,26.797
1747600964.29,0.166,-0.002,0.043,-1.632,0.215,-0.106,-29.216,8.560,26.892
1747600964.30,0.041,-0.004,0.040,-1.609,0.073,-0.249,-31.071,8.748,26.877
1747600964.31,-0.050,-0.120,-0.046,-1.637,-0.038,-0.280,-32.958,8.773,26.736
1747600964.32,0.024,-0.147,0.025,-1.694,-0.134,-0.190,-34.880,8.650,26.642
1747600964.34,0.062,-0.105,0.027,-1.653,-0.039,-0.143,-36.791,8.648,26.647
1747600964.35,0.038,-0.043,0.007,-1.699,0.014,-0.129,-38.699,8.715,26.677
1747600964.36,0.001,0.004,0.075,-1.762,0.094,-0.124,-40.670,8.938,26.748
1747600964.37,0.005,-0.020,0.025,-1.806,0.036,-0.021,-42.694,9.217,26.894
1747600964.39,0.070,-0.031,-0.027,-1.761,-0.069,-0.066,-44.727,9.510,27.140
1747600964.40,0.058,-0.053,-0.016,-1.703,-0.064,-0.175,-46.701,9.625,27.226
1747600964.41,-0.014,-0.082,-0.062,-1.682,-0.127,-0.328,-48.652,9.546,27.043
1747600964.42,-0.030,-0.098,0.035,-1.699,-0.003,-0.318,-50.617,9.395,26.727
1747600964.43,-0.010,-0.039,0.047,-1.651,0.023,-0.296,-52.577,9.387,26.418
1747600964.44,0.033,0.011,0.056,-1.659,-0.102,-0.252,-54.490,9.326,26.131
1747600964.45,0.081,0.027,0.002,-1.582,-0.216,-0.286,-56.372,9.165,25.898
1747600964.46,0.084,0.025,0.041,-1.508,-0.247,-0.432,-58.169,8.693,25.375
1747600964.47,0.036,-0.012,0.043,-1.504,-0.269,-0.457,-59.946,7.949,24.594
1747600964.48,0.033,-0.039,0.044,-1.497,-0.203,-0.409,-61.704,7.219,23.773
1747600964.49,0.009,-0.016,0.084,-1.533,-0.194,-0.349,-63.476,6.549,22.973
1747600964.50,-0.020,0.033,0.063,-1.521,-0.236,-0.366,-65.250,5.878,22.220
1747600964.51,-0.033,0.014,0.010,-1.480,-0.251,-0.421,-67.017,4.975,21.250
1747600964.52,-0.056,-0.055,-0.030,-1.314,-0.207,-0.495,-68.649,3.701,19.854
1747600964.54,0.001,-0.086,-0.031,-1.292,-0.092,-0.466,-70.144,2.280,18.188
1747600964.55,0.041,-0.066,0.045,-1.351,0.085,-0.452,-71.676,0.883,16.374
1747600964.55,0.020,0.003,0.026,-1.306,0.010,-0.363,-73.204,-0.498,14.546
1747600964.57,0.006,-0.003,0.053,-1.207,0.113,-0.337,-74.630,-1.918,12.678
