Time,AccX,AccY,AccZ,GyroX,GyroY,GyroZ,Pitch,Roll,Yaw
1747601130.08,-0.028,0.019,-0.003,0.015,0.021,-0.052,-88.099,-9.251,-41.601
1747601130.09,-0.030,0.008,-0.004,0.020,0.059,-0.058,-88.073,-11.259,-43.658
1747601130.11,-0.009,-0.006,0.001,-0.010,0.068,-0.041,-88.077,-12.884,-45.360
1747601130.14,0.025,-0.010,0.006,-0.019,0.047,0.004,-88.091,-13.361,-45.902
1747601130.15,0.044,-0.015,0.015,-0.012,0.031,0.018,-88.113,-13.225,-45.817
1747601130.17,0.026,0.004,-0.004,0.001,-0.026,0.017,-88.115,-12.997,-45.588
1747601130.19,0.010,0.010,-0.007,0.017,-0.049,0.015,-88.107,-12.710,-45.256
1747601130.21,0.011,0.001,0.004,-0.010,-0.067,-0.030,-88.108,-12.479,-44.959
1747601130.23,0.016,-0.010,0.008,-0.007,-0.095,-0.007,-88.130,-12.819,-45.206
1747601130.25,-0.006,0.003,0.017,0.017,-0.081,-0.025,-88.127,-12.843,-45.129
1747601130.27,-0.023,0.001,0.010,0.038,-0.022,-0.039,-88.080,-13.466,-45.688
1747601130.29,-0.021,-0.001,0.009,0.023,-0.007,-0.031,-88.036,-14.237,-46.447
1747601130.31,0.001,-0.006,0.014,-0.004,0.006,-0.009,-88.032,-14.674,-46.886
1747601130.34,0.018,-0.011,0.029,0.005,0.006,-0.013,-88.054,-14.882,-47.102
1747601130.35,0.003,-0.004,0.019,-0.004,0.011,-0.019,-88.053,-15.822,-48.057
1747601130.37,-0.003,-0.003,-0.011,0.011,-0.033,0.006,-88.050,-16.631,-48.853
1747601130.39,0.028,-0.012,-0.024,0.027,-0.051,0.038,-88.047,-15.901,-48.079
1747601130.41,0.047,-0.008,-0.058,0.045,-0.049,0.061,-88.044,-13.888,-46.001
1747601130.43,0.055,0.022,-0.075,0.090,-0.000,0.031,-87.990,-11.874,-43.956
1747601130.45,0.031,0.037,-0.075,0.139,0.029,-0.007,-87.855,-10.974,-43.082
1747601130.47,0.039,-0.014,-0.047,0.106,0.002,0.051,-87.717,-9.300,-41.421
1747601130.49,-0.013,-0.020,-0.011,0.108,0.011,0.022,-87.597,-7.647,-39.772
1747601130.51,-0.024,-0.029,-0.003,0.102,-0.002,0.009,-87.459,-6.443,-38.578
1747601130.53,-0.017,0.025,0.011,0.119,0.008,-0.002,-87.304,-5.815,-37.953
1747601130.55,-0.047,0.025,0.031,0.103,0.007,0.008,-87.156,-5.165,-37.305
1747601130.57,-0.081,-0.014,0.045,0.036,0.021,-0.045,-87.076,-5.445,-37.605
1747601130.59,-0.040,-0.009,0.049,0.041,0.023,-0.039,-87.032,-6.289,-38.475
1747601130.61,-0.016,0.011,0.055,0.019,0.015,-0.032,-86.992,-7.043,-39.255
1747601130.63,-0.009,-0.012,0.072,0.023,-0.015,-0.013,-86.991,-7.741,-39.950
1747601130.65,-0.012,-0.009,0.041,0.066,-0.068,-0.014,-86.962,-8.632,-40.795
1747601130.67,-0.017,0.022,0.028,0.098,-0.059,-0.037,-86.893,-9.570,-41.647
1747601130.69,-0.025,0.007,0.022,0.142,-0.079,-0.028,-86.793,-10.285,-42.290
1747601130.71,-0.044,-0.010,0.011,0.160,-0.050,0.012,-86.675,-10.271,-42.190
1747601130.73,-0.028,-0.023,0.026,0.219,0.017,0.042,-86.512,-9.401,-41.306
1747601130.75,-0.007,-0.010,-0.001,0.249,-0.008,0.077,-86.273,-7.778,-39.691
1747601130.77,0.024,0.015,-0.012,0.272,0.042,0.075,-86.006,-6.122,-38.051
1747601130.79,0.047,0.014,0.003,0.348,-0.035,0.082,-85.671,-4.615,-36.545
1747601130.81,0.032,0.001,0.004,0.462,-0.098,0.076,-85.238,-3.252,-35.101
1747601130.83,-0.006,-0.004,-0.021,0.613,-0.113,0.053,-84.634,-2.265,-33.982
1747601130.85,-0.034,-0.005,-0.035,0.690,-0.029,0.055,-83.884,-1.553,-33.166
1747601130.87,-0.031,-0.006,0.011,0.722,0.078,0.117,-83.090,-0.501,-32.153
1747601130.89,-0.060,0.003,-0.030,0.778,0.179,0.147,-82.218,0.784,-31.001
1747601130.91,-0.032,-0.024,0.048,0.754,0.325,0.199,-81.347,2.279,-29.788
1747601130.93,0.008,-0.024,0.052,0.823,0.262,0.204,-80.433,3.804,-28.607
1747601130.95,-0.022,0.012,0.040,0.843,0.126,0.210,-79.466,4.919,-27.680
1747601130.97,-0.033,-0.008,0.104,0.922,0.185,0.169,-78.434,5.783,-27.000
1747601130.99,-0.075,0.045,0.077,0.913,0.103,0.095,-77.379,6.081,-26.835
1747601131.01,-0.095,0.060,0.126,0.877,0.260,0.130,-76.360,6.330,-26.779
1747601131.03,-0.054,0.027,0.105,0.922,0.284,0.202,-75.300,6.911,-26.493
1747601131.05,-0.054,0.024,0.105,0.745,0.236,0.217,-74.337,7.693,-25.969
1747601131.07,-0.076,0.009,0.109,0.868,0.092,0.181,-73.402,8.202,-25.616
1747601131.09,-0.008,-0.013,0.010,0.909,0.073,0.218,-72.363,8.532,-25.336
1747601131.11,0.050,-0.002,0.006,0.974,0.056,0.179,-71.250,8.798,-25.078
1747601131.13,0.019,0.055,0.097,0.805,0.284,0.133,-70.229,9.026,-25.040
1747601131.15,-0.012,-0.023,0.022,0.920,0.293,0.186,-69.231,9.447,-24.939
1747601131.17,-0.024,-0.075,-0.055,0.922,0.240,0.197,-68.167,9.854,-24.800
1747601131.19,0.012,-0.074,-0.107,1.052,0.180,0.180,-67.011,10.141,-24.723
1747601131.21,0.065,-0.009,-0.026,1.065,0.359,0.163,-65.751,10.336,-24.809
1747601131.23,0.055,0.003,0.051,0.831,0.282,0.242,-64.665,10.803,-24.706
1747601131.25,0.015,-0.039,-0.017,0.755,0.103,0.352,-63.722,11.332,-24.323
1747601131.27,0.181,-0.086,0.039,0.964,-0.041,0.337,-62.696,11.811,-23.822
1747601131.29,0.136,-0.014,-0.084,1.190,-0.221,0.205,-61.392,11.730,-23.689
1747601131.31,-0.028,0.065,-0.069,1.119,-0.059,0.092,-60.051,11.329,-23.858
1747601131.33,-0.161,0.015,0.027,0.957,0.157,0.123,-58.872,11.185,-24.057
1747601131.35,-0.080,-0.100,0.036,0.725,0.192,0.334,-57.888,11.508,-23.869
1747601131.37,0.108,-0.109,0.039,0.752,0.063,0.394,-56.995,12.070,-23.339
1747601131.39,0.164,0.053,0.016,0.895,-0.146,0.356,-55.995,12.361,-22.861
1747601131.41,0.046,0.150,0.007,1.147,-0.227,0.234,-54.775,12.238,-22.719
1747601131.43,-0.098,0.117,0.046,0.984,-0.168,0.153,-53.528,11.928,-22.808
1747601131.45,-0.146,-0.057,-0.068,0.753,-0.137,0.215,-52.522,11.724,-22.834
1747601131.47,-0.094,-0.101,0.060,0.771,-0.025,0.277,-51.641,11.806,-22.635
1747601131.49,-0.038,0.046,0.025,0.788,-0.099,0.266,-50.680,11.880,-22.449
1747601131.51,-0.027,0.143,0.010,0.844,-0.179,0.247,-49.726,11.819,-22.306
1747601131.53,0.052,0.095,0.051,1.002,-0.058,0.232,-48.623,11.745,-22.224
1747601131.55,0.010,-0.003,0.003,0.906,-0.128,0.177,-47.494,11.669,-22.209
1747601131.57,-0.126,-0.114,-0.096,0.717,-0.068,0.229,-46.564,11.528,-22.164
1747601131.59,-0.059,-0.142,0.042,0.776,-0.000,0.237,-45.683,11.612,-22.024
1747601131.61,-0.024,0.001,0.016,0.860,-0.009,0.214,-44.732,11.680,-21.925
1747601131.63,0.077,0.064,0.093,0.920,-0.003,0.245,-43.655,11.704,-21.866
1747601131.65,0.125,0.007,-0.031,0.720,-0.085,0.266,-42.667,11.768,-21.736
1747601131.67,0.103,-0.041,-0.027,0.573,-0.124,0.422,-41.890,11.818,-21.419
1747601131.69,0.127,-0.043,0.042,0.648,-0.232,0.495,-41.090,11.974,-20.914
1747601131.71,0.060,0.003,-0.042,0.768,-0.369,0.465,-40.198,11.954,-20.402
1747601131.73,0.054,-0.014,0.023,0.882,-0.354,0.331,-39.172,11.715,-20.085
1747601131.75,0.048,-0.099,-0.018,0.798,-0.215,0.318,-38.144,11.536,-19.885
1747601131.77,-0.013,-0.142,-0.077,0.723,-0.099,0.381,-37.224,11.518,-19.605
1747601131.79,-0.016,-0.067,-0.012,0.724,-0.104,0.315,-36.341,11.606,-19.307
1747601131.81,-0.050,0.078,-0.026,0.780,-0.234,0.213,-35.445,11.492,-19.157
1747601131.83,-0.037,0.132,0.007,0.837,-0.257,0.088,-34.493,11.199,-19.171
1747601131.85,-0.124,0.138,-0.005,0.771,-0.190,0.009,-33.573,10.855,-19.320
1747601131.87,-0.165,0.110,-0.035,0.685,-0.042,0.017,-32.755,10.608,-19.509
1747601131.89,-0.080,0.055,-0.027,0.647,0.082,0.029,-32.005,10.564,-19.635
1747601131.91,0.042,0.049,0.019,0.699,-0.024,-0.023,-31.246,10.542,-19.792
1747601131.93,0.064,0.103,0.007,0.688,-0.172,-0.042,-30.476,10.287,-20.011
1747601131.95,0.055,0.085,0.023,0.708,-0.124,-0.025,-29.687,10.002,-20.218
1747601131.97,-0.030,0.019,-0.077,0.560,-0.088,-0.014,-28.983,9.804,-20.391
1747601131.99,-0.061,-0.028,-0.092,0.437,-0.043,0.092,-28.417,9.698,-20.454
1747601132.01,0.079,0.011,0.001,0.449,-0.094,0.082,-27.907,9.650,-20.433
1747601132.03,0.166,0.046,-0.006,0.524,-0.298,0.132,-27.348,9.443,-20.413
1747601132.05,0.149,-0.005,0.021,0.455,-0.317,0.206,-26.736,9.112,-20.292
1747601132.07,0.092,-0.060,-0.034,0.389,-0.189,0.242,-26.222,8.920,-20.097
1747601132.09,-0.009,-0.109,-0.038,0.343,-0.147,0.251,-25.772,8.846,-19.854
1747601132.11,-0.009,-0.063,0.004,0.371,-0.094,0.213,-25.343,8.824,-19.623
1747601132.13,0.010,-0.015,0.026,0.480,-0.114,0.183,-24.832,8.769,-19.466
1747601132.15,0.001,-0.039,0.000,0.459,-0.050,0.159,-24.264,8.713,-19.339
1747601132.17,-0.032,0.003,-0.086,0.457,-0.042,0.149,-23.723,8.717,-19.238
1747601132.19,-0.079,0.014,-0.078,0.405,-0.134,0.166,-23.205,8.669,-19.126
1747601132.21,0.070,0.012,-0.009,0.461,-0.169,0.195,-22.685,8.527,-18.987
1747601132.23,0.126,-0.005,0.020,0.451,-0.046,0.236,-22.138,8.462,-18.814
1747601132.25,0.010,0.043,0.042,0.400,0.087,0.357,-21.612,8.607,-18.531
1747601132.27,0.080,0.085,0.045,0.397,-0.003,0.369,-21.099,8.816,-17.725
1747601132.29,0.151,0.097,-0.005,0.406,-0.216,0.308,-20.569,8.805,-17.393
1747601132.31,-0.094,0.122,-0.033,0.371,-0.108,0.231,-20.089,8.673,-17.144
1747601132.33,-0.287,-0.003,-0.022,0.325,0.100,0.114,-19.669,8.735,-16.579
1747601132.35,-0.168,-0.092,-0.046,0.289,0.087,0.004,-19.313,8.866,-16.370
1747601132.37,0.102,-0.083,-0.085,0.185,-0.054,0.045,-19.026,8.885,-16.392
1747601132.39,0.169,0.056,-0.144,0.221,-0.115,0.146,-18.794,8.790,-16.326
1747601132.41,-0.018,0.073,-0.045,0.170,-0.014,0.179,-18.555,8.769,-16.158
1747601132.43,-0.018,-0.015,-0.054,0.076,0.026,0.148,-18.377,8.851,-15.974
1747601132.45,-0.024,-0.055,-0.121,-0.022,0.054,0.099,-18.325,8.929,-15.832
1747601132.47,-0.056,0.030,-0.074,-0.146,0.119,0.036,-18.414,9.062,-15.744
1747601132.49,-0.125,0.037,-0.148,-0.341,0.076,0.062,-18.669,9.230,-15.635
1747601132.51,-0.069,0.082,-0.207,-0.417,-0.023,-0.081,-19.120,9.268,-15.555
1747601132.53,-0.015,0.001,-0.083,-0.340,-0.027,-0.188,-19.567,9.201,-15.660
1747601132.55,0.033,-0.042,-0.118,-0.401,-0.070,-0.193,-20.016,9.093,-15.821
1747601132.57,0.005,0.010,-0.114,-0.533,0.020,-0.145,-20.570,9.024,-15.933
1747601132.59,0.037,0.070,-0.023,-0.567,0.007,-0.152,-21.220,9.011,-16.009
1747601132.61,0.088,0.012,-0.036,-0.599,-0.016,-0.142,-21.920,8.979,-16.072
1747601132.63,0.032,-0.048,-0.045,-0.589,0.124,-0.149,-22.605,9.008,-16.137
1747601132.65,-0.016,-0.065,-0.050,-0.685,0.210,-0.142,-23.345,9.179,-16.197
1747601132.67,0.087,-0.084,-0.080,-0.788,0.166,-0.112,-24.194,9.397,-16.205
1747601132.69,0.113,-0.051,-0.056,-0.883,0.141,-0.134,-25.162,9.592,-16.176
1747601132.71,0.004,-0.012,-0.008,-0.905,0.150,-0.165,-26.202,9.761,-16.168
1747601132.73,-0.034,-0.016,-0.027,-0.947,0.152,-0.186,-27.274,9.922,-16.191
1747601132.75,0.033,-0.033,-0.025,-0.960,0.140,-0.177,-28.377,10.086,-16.208
1747601132.77,0.044,-0.051,-0.060,-1.040,0.064,-0.192,-29.543,10.201,-16.220
1747601132.79,0.031,-0.069,-0.055,-1.108,0.099,-0.189,-30.787,10.279,-16.208
1747601132.81,0.001,-0.061,0.029,-1.096,0.175,-0.252,-32.076,10.436,-16.229
1747601132.83,-0.036,-0.048,-0.023,-1.108,0.219,-0.279,-33.372,10.606,-15.997
1747601132.85,-0.017,-0.056,-0.008,-1.170,0.270,-0.253,-34.699,10.858,-15.935
1747601132.87,0.030,-0.074,-0.053,-1.233,0.320,-0.159,-36.091,11.214,-15.743
1747601132.89,0.085,-0.064,-0.005,-1.241,0.291,-0.121,-37.505,11.678,-15.474
1747601132.91,0.101,-0.033,-0.045,-1.229,0.175,-0.142,-38.918,12.060,-15.042
1747601132.93,0.087,-0.017,-0.016,-1.204,0.119,-0.180,-40.311,12.309,-14.670
1747601132.95,0.103,-0.046,-0.029,-1.212,0.062,-0.145,-41.700,12.512,-14.310
1747601132.97,0.125,-0.082,-0.033,-1.265,-0.021,-0.035,-43.100,12.726,-13.821
1747601132.99,0.091,-0.057,-0.043,-1.321,-0.070,-0.028,-44.550,12.937,-13.192
1747601133.01,0.013,-0.046,-0.034,-1.307,-0.059,-0.087,-46.026,13.137,-12.610
1747601133.03,-0.063,-0.046,-0.043,-1.325,0.035,-0.174,-47.517,13.338,-12.143
1747601133.04,-0.098,-0.029,-0.022,-1.396,0.151,-0.235,-49.090,13.589,-11.809
1747601133.06,-0.089,-0.019,-0.016,-1.438,0.134,-0.198,-50.716,13.930,-11.475
1747601133.08,-0.015,-0.003,-0.027,-1.496,0.101,-0.168,-52.401,14.334,-11.007
1747601133.10,0.068,0.035,0.025,-1.421,0.017,-0.283,-54.075,14.661,-10.617
1747601133.12,0.046,0.083,0.006,-1.437,-0.118,-0.373,-55.756,14.648,-10.448
1747601133.14,-0.024,0.071,0.031,-1.371,-0.146,-0.458,-57.425,14.408,-10.502
1747601133.16,-0.080,0.031,-0.021,-1.403,-0.119,-0.494,-59.089,14.022,-10.725
1747601133.18,-0.073,-0.024,-0.034,-1.435,-0.118,-0.495,-60.804,13.603,-11.020
1747601133.20,0.004,-0.052,-0.031,-1.453,-0.047,-0.462,-62.534,13.236,-11.310
1747601133.22,0.042,-0.039,0.002,-1.469,-0.116,-0.458,-64.278,12.879,-11.597
1747601133.24,0.035,-0.009,0.043,-1.462,-0.162,-0.466,-66.031,12.378,-11.946
1747601133.26,0.061,-0.042,0.074,-1.398,-0.054,-0.430,-67.737,11.904,-12.337
1747601133.28,0.062,-0.099,-0.035,-1.320,-0.219,-0.391,-69.346,11.368,-12.742
1747601133.30,0.046,-0.097,-0.098,-1.403,-0.268,-0.383,-70.955,10.717,-13.129
1747601133.32,0.015,-0.038,-0.076,-1.340,-0.267,-0.413,-72.598,9.897,-13.674
1747601133.34,-0.016,0.015,-0.038,-1.204,-0.152,-0.411,-74.085,8.865,-14.481
1747601133.36,-0.074,-0.014,0.030,-1.144,0.017,-0.402,-75.488,7.812,-15.497
1747601133.38,-0.136,-0.104,-0.072,-1.176,0.276,-0.379,-76.835,6.855,-16.651
1747601133.40,-0.085,-0.108,0.001,-1.281,0.403,-0.362,-78.288,6.031,-17.902
1747601133.42,0.026,-0.046,0.009,-1.319,0.492,-0.310,-79.807,5.359,-19.126
1747601133.44,0.087,0.042,0.073,-1.125,0.256,-0.295,-81.258,4.465,-20.474
1747601133.46,0.109,0.046,-0.012,-0.938,0.042,-0.330,-82.435,2.697,-22.417
1747601133.48,0.060,-0.018,-0.039,-0.883,-0.044,-0.366,-83.475,-0.406,-25.550
1747601133.50,-0.021,-0.007,-0.086,-0.836,-0.008,-0.381,-84.434,-4.887,-29.998
1747601133.52,-0.070,0.054,0.006,-0.956,0.194,-0.416,-85.374,-11.417,-36.685
1747601133.54,-0.104,0.001,0.115,-0.883,0.163,-0.320,-86.282,-21.045,-46.518
1747601133.56,-0.027,-0.101,0.068,-0.860,0.402,-0.225,-87.027,-32.959,-58.766
1747601133.58,0.017,-0.100,0.075,-0.834,0.589,-0.189,-87.616,-50.191,-76.593
1747601133.60,0.007,0.013,0.014,-0.699,0.426,-0.215,-87.847,-71.716,-98.751
1747601133.62,-0.029,0.107,-0.033,-0.592,0.242,-0.228,-87.704,-91.381,-118.797
1747601133.64,-0.078,0.043,0.000,-0.402,0.222,-0.258,-87.352,-103.184,-130.850
1747601133.66,-0.066,-0.055,0.102,-0.444,0.217,-0.241,-86.943,-110.096,-138.053
1747601133.68,-0.007,-0.055,0.078,-0.439,0.123,-0.202,-86.498,-116.650,-144.812
1747601133.70,0.053,-0.019,0.025,-0.290,0.011,-0.159,-86.120,-120.686,-148.945
1747601133.72,0.032,0.033,0.022,-0.142,-0.026,-0.120,-85.852,-122.550,-150.779
1747601133.74,-0.020,0.055,0.011,0.042,0.038,-0.062,-85.725,-122.353,-150.591
1747601133.76,-0.095,0.057,-0.061,0.171,-0.070,0.032,-85.790,-120.755,-148.979
1747601133.78,-0.155,0.016,-0.047,0.211,0.052,0.055,-85.936,-118.449,-146.630
1747601133.80,-0.093,-0.071,0.068,0.191,0.346,0.109,-86.133,-115.703,-144.107
1747601133.82,-0.021,-0.050,0.099,0.095,0.320,0.138,-86.328,-114.109,-142.904
1747601133.84,-0.009,0.032,0.070,0.086,0.386,0.129,-86.519,-113.158,-142.346
1747601133.86,0.010,0.002,0.124,0.008,0.355,0.041,-86.630,-112.589,-142.217
1747601133.88,0.071,-0.060,0.101,-0.007,0.118,0.013,-86.650,-112.551,-142.460
1747601133.90,0.101,-0.023,0.054,0.058,-0.116,0.001,-86.664,-112.298,-142.209
1747601133.92,0.036,0.033,0.039,0.193,-0.344,-0.009,-86.716,-110.143,-139.781
1747601133.94,-0.025,0.045,-0.023,0.180,-0.325,-0.035,-86.762,-106.706,-135.938
1747601133.96,-0.055,-0.016,-0.027,0.115,-0.299,-0.032,-86.766,-104.019,-132.882
1747601133.98,-0.059,-0.019,0.002,0.064,-0.140,0.002,-86.769,-102.482,-131.089
1747601134.00,-0.018,-0.009,0.009,-0.009,0.039,0.048,-86.812,-102.053,-130.604
1747601134.02,0.029,-0.007,0.001,0.016,0.082,0.041,-86.859,-102.330,-130.970
1747601134.04,0.035,0.004,-0.048,0.048,0.121,0.048,-86.907,-101.455,-130.201
1747601134.06,0.005,0.016,-0.046,0.026,0.186,0.036,-86.954,-100.483,-129.400
1747601134.08,-0.014,-0.011,-0.040,-0.035,0.172,0.035,-86.974,-100.641,-129.775
1747601134.10,0.010,-0.044,-0.022,-0.012,0.054,0.021,-87.006,-101.443,-130.707
1747601134.12,0.029,-0.016,-0.023,0.046,-0.035,0.014,-87.049,-100.597,-129.867
1747601134.14,0.007,0.026,-0.015,0.125,-0.054,0.001,-87.088,-97.806,-127.028
1747601134.16,-0.020,0.017,-0.028,0.097,-0.045,0.002,-87.095,-93.660,-122.812
1747601134.18,0.009,-0.031,-0.011,0.054,-0.070,0.007,-87.100,-91.497,-120.596
1747601134.20,0.053,-0.017,-0.039,0.062,-0.093,0.022,-87.144,-89.892,-118.885
1747601134.22,0.042,0.012,-0.010,0.062,-0.092,0.061,-87.202,-88.318,-117.197
1747601134.24,0.001,-0.009,-0.015,0.106,-0.070,0.023,-87.232,-86.187,-114.973
1747601134.26,-0.019,0.023,-0.032,0.190,-0.060,0.004,-87.225,-82.314,-111.022
1747601134.28,-0.025,0.030,-0.021,0.141,-0.079,0.015,-87.217,-77.834,-106.461
1747601134.30,-0.001,-0.013,0.012,0.094,-0.081,0.019,-87.239,-75.032,-103.561
1747601134.32,0.024,-0.011,0.021,0.144,-0.078,0.018,-87.223,-72.345,-100.782
1747601134.34,0.030,0.023,0.049,0.235,-0.054,0.045,-87.168,-67.776,-96.131
1747601134.36,-0.018,0.011,0.049,0.262,-0.102,0.045,-87.066,-62.038,-90.299
1747601134.38,-0.055,-0.011,0.033,0.258,-0.118,0.058,-86.970,-57.061,-85.192
1747601134.40,-0.102,0.002,0.041,0.251,-0.136,0.046,-86.872,-52.457,-80.413
1747601134.42,-0.080,-0.015,0.075,0.267,0.028,0.051,-86.740,-48.103,-75.997
1747601134.44,-0.022,-0.021,0.078,0.334,-0.000,0.103,-86.576,-43.082,-70.996
1747601134.46,0.019,0.018,0.039,0.316,-0.076,0.170,-86.398,-37.555,-65.408
1747601134.48,0.009,0.040,0.024,0.480,-0.261,0.128,-86.132,-31.627,-59.293
1747601134.50,-0.055,0.025,0.044,0.514,-0.291,0.074,-85.685,-26.682,-53.992
1747601134.52,-0.069,-0.026,0.061,0.469,-0.160,0.093,-85.203,-22.918,-49.941
1747601134.54,-0.066,-0.031,0.079,0.482,0.003,0.123,-84.754,-19.492,-46.429
1747601134.56,-0.042,-0.026,0.050,0.509,0.045,0.167,-84.261,-16.014,-42.969
1747601134.58,0.025,0.003,0.031,0.505,-0.058,0.197,-83.750,-12.650,-39.581
1747601134.60,0.046,0.019,0.040,0.548,-0.020,0.142,-83.207,-9.985,-36.845
1747601134.62,0.028,-0.007,0.060,0.605,-0.143,0.119,-82.575,-8.098,-34.868
1747601134.64,0.001,-0.020,-0.013,0.706,-0.182,0.124,-81.859,-6.589,-33.142
1747601134.66,0.018,0.021,-0.069,0.864,-0.129,0.109,-80.985,-5.295,-31.644
1747601134.68,0.033,0.052,-0.018,0.913,0.018,0.096,-79.965,-4.166,-30.430
1747601134.70,-0.040,0.000,0.040,0.835,0.135,0.178,-78.977,-2.952,-29.296
1747601134.72,-0.087,-0.114,-0.010,0.684,0.208,0.251,-78.126,-1.363,-27.859
1747601134.74,-0.010,-0.099,0.039,0.782,0.331,0.305,-77.323,0.445,-26.341
1747601134.76,0.078,0.042,0.015,0.896,0.191,0.306,-76.329,2.233,-24.930
1747601134.78,0.031,0.128,-0.048,0.946,-0.060,0.145,-75.275,3.089,-24.174
1747601134.80,-0.033,0.047,0.017,0.840,0.233,0.141,-74.227,3.527,-23.904
1747601134.82,-0.104,-0.091,0.037,0.792,0.235,0.217,-73.301,4.243,-23.511
1747601134.84,-0.030,-0.114,0.038,0.874,0.441,0.314,-72.332,5.369,-22.789
1747601134.86,0.038,-0.018,0.025,0.838,0.373,0.296,-71.304,6.618,-22.079
1747601134.88,0.058,0.061,0.010,0.750,0.321,0.340,-70.356,7.688,-21.396
1747601134.90,0.070,0.022,0.075,0.766,0.268,0.328,-69.453,8.731,-20.720
1747601134.92,0.036,-0.033,0.017,0.824,0.158,0.263,-68.530,9.499,-20.214
1747601134.94,-0.017,-0.021,-0.023,0.972,-0.077,0.176,-67.467,9.727,-20.084
1747601134.96,-0.028,0.018,-0.031,0.965,0.024,0.066,-66.338,9.518,-20.275
1747601134.98,-0.002,0.045,0.025,0.752,0.343,0.039,-65.360,9.513,-20.600
1747601135.00,-0.066,-0.001,0.015,0.621,0.348,0.205,-64.582,9.932,-20.646
1747601135.02,0.024,-0.039,0.017,0.671,0.245,0.372,-63.808,10.696,-20.212
1747601135.04,0.171,-0.029,0.009,0.847,-0.075,0.322,-62.898,11.307,-19.676
1747601135.06,0.109,0.022,-0.069,0.997,-0.256,0.209,-61.781,11.244,-19.498
1747601135.08,0.001,0.026,-0.061,0.898,0.031,0.137,-60.661,11.061,-19.531
1747601135.10,-0.133,-0.020,-0.064,0.838,-0.031,0.104,-59.678,10.962,-19.674
1747601135.12,-0.119,-0.074,-0.032,0.816,0.097,0.203,-58.732,11.010,-19.665
1747601135.14,-0.036,-0.071,-0.014,0.971,0.083,0.186,-57.682,11.136,-19.626
1747601135.16,0.011,-0.006,-0.024,0.912,0.148,0.115,-56.576,11.183,-19.713
1747601135.18,0.042,0.023,0.008,0.723,0.275,0.176,-55.628,11.391,-19.771
1747601135.20,0.028,-0.001,0.049,0.547,0.084,0.293,-54.871,11.781,-19.568
1747601135.22,0.050,-0.051,0.063,0.555,-0.128,0.407,-54.195,12.142,-19.083
1747601135.24,0.123,0.019,0.016,0.764,-0.289,0.335,-53.378,12.275,-18.628
1747601135.26,0.034,0.139,-0.040,0.865,-0.395,0.177,-52.383,11.976,-18.474
1747601135.28,-0.087,0.166,0.038,0.793,-0.244,0.101,-51.415,11.548,-18.566
1747601135.30,-0.161,0.001,-0.036,0.571,-0.147,0.166,-50.615,11.305,-18.588
1747601135.32,-0.103,-0.175,0.014,0.521,0.031,0.247,-49.976,11.374,-18.403
1747601135.34,-0.059,-0.099,0.057,0.564,0.011,0.174,-49.322,11.572,-18.208
1747601135.36,-0.016,0.131,0.004,0.662,-0.008,0.092,-48.618,11.562,-18.200
1747601135.38,0.097,0.209,0.050,0.771,-0.041,0.063,-47.788,11.472,-18.330
1747601135.40,0.052,0.104,-0.024,0.742,-0.176,0.132,-46.904,11.247,-18.428
1747601135.42,0.025,-0.068,-0.016,0.729,-0.087,0.120,-46.057,11.081,-18.442
1747601135.44,-0.036,-0.141,0.034,0.741,-0.042,0.107,-45.210,10.980,-18.494
1747601135.46,-0.002,-0.087,0.010,0.762,0.008,0.108,-44.339,10.918,-18.549
1747601135.48,0.071,-0.031,-0.005,0.734,-0.011,0.106,-43.464,10.886,-18.612
1747601135.50,0.047,0.013,-0.009,0.664,-0.095,0.146,-42.655,10.820,-18.627
1747601135.52,0.022,0.040,0.042,0.667,-0.129,0.218,-41.875,10.743,-18.543
1747601135.54,0.064,0.076,0.005,0.714,-0.211,0.217,-41.057,10.650,-18.401
1747601135.56,0.040,0.125,0.024,0.823,-0.274,0.183,-40.146,10.404,-18.311
1747601135.58,-0.045,0.092,0.056,0.818,-0.181,0.073,-39.196,10.127,-18.342
1747601135.60,-0.107,-0.014,-0.036,0.748,-0.069,0.045,-38.294,9.894,-18.471
1747601135.62,-0.086,-0.095,0.013,0.692,-0.012,0.099,-37.473,9.803,-18.549
1747601135.64,0.007,-0.011,0.022,0.699,-0.067,0.092,-36.681,9.774,-18.577
1747601135.66,0.040,0.159,0.057,0.750,-0.212,0.090,-35.843,9.579,-18.625
1747601135.68,0.037,0.154,0.071,0.806,-0.211,0.065,-34.950,9.289,-18.701
1747601135.70,0.005,-0.001,-0.065,0.734,-0.153,0.120,-34.064,9.048,-18.750
1747601135.72,-0.011,-0.133,-0.053,0.693,-0.078,0.180,-33.243,8.955,-18.689
1747601135.74,0.004,-0.084,0.027,0.701,-0.078,0.143,-32.430,8.916,-18.611
1747601135.76,0.069,0.017,0.044,0.772,-0.224,0.133,-31.582,8.769,-18.487
1747601135.78,0.101,0.028,0.007,0.744,-0.204,0.168,-30.688,8.537,-18.246
1747601135.80,0.042,-0.003,-0.091,0.682,-0.123,0.235,-29.850,8.382,-17.939
1747601135.82,-0.077,-0.005,0.046,0.657,-0.000,0.271,-29.060,8.433,-17.518
1747601135.84,-0.011,0.005,0.063,0.753,0.007,0.213,-28.231,8.544,-17.135
1747601135.86,0.070,-0.015,0.007,0.844,-0.157,0.221,-27.276,8.504,-16.826
1747601135.88,0.076,-0.021,-0.036,0.759,-0.136,0.243,-26.331,8.391,-16.476
1747601135.90,-0.021,-0.039,-0.050,0.634,-0.021,0.285,-25.515,8.414,-16.063
1747601135.92,-0.064,-0.028,-0.101,0.576,-0.078,0.259,-24.783,8.444,-15.587
1747601135.94,-0.050,-0.005,-0.025,0.598,-0.107,0.210,-24.085,8.415,-15.166
1747601135.96,-0.055,0.012,-0.028,0.661,-0.126,0.136,-23.355,8.315,-14.821
1747601135.98,-0.049,0.014,0.031,0.669,-0.026,0.110,-22.564,8.235,-14.549
1747601136.00,-0.052,0.026,-0.021,0.634,-0.033,0.071,-21.807,8.206,-14.319
1747601136.02,0.003,0.026,-0.046,0.616,-0.038,0.053,-21.101,8.150,-14.109
1747601136.04,0.007,0.014,-0.077,0.600,-0.048,0.055,-20.401,8.075,-13.899
1747601136.06,-0.007,0.000,-0.057,0.560,0.081,0.116,-19.741,8.091,-13.652
1747601136.08,-0.028,0.060,-0.008,0.460,0.058,0.135,-19.126,8.202,-13.332
1747601136.09,0.024,0.090,-0.005,0.463,0.055,0.105,-18.597,8.279,-13.153
1747601136.12,0.047,0.057,-0.038,0.381,0.044,0.111,-18.102,8.358,-12.853
1747601136.13,-0.023,0.055,-0.118,0.246,0.128,0.200,-17.710,8.481,-12.474
1747601136.16,-0.017,0.124,-0.078,0.217,0.134,0.110,-17.440,8.698,-12.071
1747601136.18,-0.016,0.080,-0.055,0.193,0.001,0.015,-17.187,8.796,-11.768
1747601136.19,0.017,-0.020,-0.094,0.104,-0.003,-0.027,-17.009,8.782,-11.690
1747601136.21,0.006,0.011,-0.192,-0.080,-0.001,0.026,-16.991,8.755,-11.454
1747601136.24,0.047,0.076,-0.120,-0.191,0.014,-0.009,-17.154,8.794,-11.167
1747601136.26,0.074,0.021,-0.069,-0.301,-0.017,-0.046,-17.438,8.798,-10.911
1747601136.27,0.077,-0.017,-0.122,-0.410,-0.057,-0.022,-17.841,8.751,-10.665
1747601136.29,0.069,0.039,-0.149,-0.509,-0.010,0.014,-18.365,8.730,-10.370
1747601136.31,0.077,0.059,-0.066,-0.534,0.031,0.017,-18.952,8.784,-10.036
1747601136.33,0.035,0.002,-0.071,-0.576,0.008,-0.018,-19.577,8.840,-9.703
1747601136.35,0.022,-0.055,-0.096,-0.674,-0.009,-0.068,-20.290,8.856,-9.432
1747601136.37,0.053,-0.032,-0.107,-0.728,-0.030,-0.118,-21.101,8.845,-9.202
1747601136.39,0.016,-0.038,-0.036,-0.712,0.026,-0.122,-21.940,8.822,-9.018
1747601136.41,0.006,-0.090,-0.046,-0.639,0.153,-0.139,-22.719,8.916,-8.872
1747601136.43,-0.019,-0.103,-0.049,-0.745,0.232,-0.138,-23.519,9.126,-8.730
1747601136.45,0.027,-0.083,-0.067,-0.857,0.240,-0.122,-24.451,9.403,-8.549
1747601136.47,0.075,-0.026,-0.036,-0.928,0.111,-0.130,-25.479,9.630,-8.365
1747601136.49,0.103,0.020,-0.010,-0.947,0.000,-0.141,-26.568,9.698,-8.195
1747601136.51,0.051,0.017,-0.014,-0.982,-0.058,-0.157,-27.676,9.669,-8.067
1747601136.53,-0.026,-0.050,-0.076,-1.092,-0.015,-0.118,-28.880,9.639,-7.892
1747601136.55,-0.026,-0.101,-0.047,-1.193,0.094,-0.116,-30.182,9.750,-7.694
1747601136.57,-0.049,-0.085,-0.021,-1.301,0.036,-0.128,-31.618,9.883,-7.501
1747601136.59,0.015,-0.055,-0.017,-1.278,0.015,-0.133,-33.098,9.993,-7.287
1747601136.61,0.045,-0.038,-0.022,-1.253,-0.035,-0.195,-34.550,10.035,-7.160
1747601136.63,-0.023,-0.068,-0.048,-1.236,-0.092,-0.210,-35.987,9.957,-7.107
1747601136.65,0.002,-0.119,-0.080,-1.280,-0.059,-0.105,-37.426,9.908,-6.982
1747601136.67,0.082,-0.101,-0.003,-1.263,0.017,-0.098,-38.889,10.005,-6.783
1747601136.69,0.054,-0.045,0.008,-1.275,-0.011,-0.097,-40.339,10.120,-6.598
1747601136.71,-0.005,-0.007,-0.006,-1.266,0.014,-0.061,-41.778,10.264,-6.385
1747601136.73,-0.027,0.036,-0.021,-1.345,0.072,-0.100,-43.255,10.477,-6.148
1747601136.75,-0.078,0.042,0.053,-1.375,0.143,-0.148,-44.818,10.751,-5.964
1747601136.77,-0.089,0.046,0.048,-1.351,0.152,-0.174,-46.390,11.036,-5.845
1747601136.79,-0.030,0.058,0.002,-1.370,0.143,-0.186,-47.950,11.314,-5.746
1747601136.81,0.001,0.044,0.021,-1.355,0.156,-0.220,-49.519,11.576,-5.691
1747601136.83,0.009,0.039,0.012,-1.315,0.148,-0.244,-51.074,11.815,-5.683
1747601136.85,-0.025,0.029,-0.021,-1.317,0.078,-0.263,-52.594,11.975,-5.705
1747601136.87,-0.024,-0.006,-0.005,-1.361,0.094,-0.316,-54.165,12.077,-5.775
1747601136.89,-0.019,-0.048,0.024,-1.359,0.072,-0.334,-55.763,12.105,-5.915
1747601136.91,0.067,-0.068,0.005,-1.356,0.046,-0.314,-57.353,12.131,-6.058
1747601136.93,0.122,-0.040,-0.038,-1.347,-0.107,-0.341,-58.939,12.039,-6.217
1747601136.95,0.086,-0.003,0.014,-1.264,-0.203,-0.376,-60.489,11.695,-6.501
1747601136.97,0.041,0.017,-0.003,-1.253,-0.246,-0.340,-61.959,11.203,-6.863
1747601136.99,0.052,-0.030,0.021,-1.294,-0.226,-0.313,-63.475,10.786,-7.178
1747601137.01,0.063,-0.106,-0.013,-1.274,-0.256,-0.283,-64.988,10.363,-7.472
1747601137.03,0.071,-0.123,-0.025,-1.201,-0.251,-0.247,-66.427,9.968,-7.712
1747601137.05,0.021,-0.060,-0.024,-1.204,-0.272,-0.260,-67.820,9.566,-7.986
1747601137.07,-0.049,0.004,-0.046,-1.195,-0.214,-0.294,-69.232,9.039,-8.367
1747601137.09,-0.046,0.023,-0.010,-1.122,-0.107,-0.372,-70.603,8.407,-9.010
1747601137.11,-0.088,-0.013,0.017,-1.078,-0.065,-0.327,-71.900,7.577,-9.914
1747601137.13,-0.075,-0.074,0.025,-1.107,0.077,-0.243,-73.173,7.096,-10.576
1747601137.15,-0.051,-0.063,0.007,-1.159,0.272,-0.212,-74.486,6.967,-10.976
1747601137.17,-0.035,0.030,0.028,-1.170,0.195,-0.265,-75.855,6.881,-11.373
1747601137.19,-0.032,0.064,-0.037,-1.097,0.103,-0.360,-77.167,6.144,-12.281
1747601137.21,0.026,-0.024,-0.010,-1.153,0.116,-0.386,-78.495,4.844,-13.752
1747601137.23,0.024,-0.065,-0.053,-1.145,0.005,-0.355,-79.820,3.138,-15.538
1747601137.25,0.036,-0.039,0.027,-1.216,0.089,-0.300,-81.205,1.316,-17.440
1747601137.27,0.053,-0.006,0.007,-1.050,0.162,-0.284,-82.495,-0.803,-19.723
1747601137.29,0.070,0.011,0.026,-1.062,0.021,-0.262,-83.673,-3.666,-22.734
1747601137.31,-0.002,-0.005,0.011,-1.107,-0.084,-0.294,-84.888,-8.013,-27.077
1747601137.33,-0.048,-0.027,-0.085,-0.894,-0.107,-0.364,-85.929,-15.687,-34.651
1747601137.35,-0.006,-0.047,-0.027,-0.809,-0.151,-0.328,-86.697,-27.083,-45.934
1747601137.37,-0.018,-0.011,-0.079,-0.686,-0.023,-0.353,-87.170,-42.152,-60.900
1747601137.39,-0.040,0.022,0.008,-0.645,0.023,-0.245,-87.387,-59.399,-78.179
1747601137.41,-0.069,0.010,-0.029,-0.486,0.106,-0.165,-87.431,-74.449,-93.302
1747601137.43,-0.082,-0.006,0.006,-0.470,0.352,-0.150,-87.342,-86.473,-105.607
1747601137.45,-0.049,-0.033,0.037,-0.406,0.489,-0.121,-87.169,-96.519,-116.150
1747601137.47,0.005,-0.027,0.012,-0.342,0.388,-0.073,-86.983,-103.839,-124.030
1747601137.49,0.067,0.001,-0.053,-0.181,0.134,-0.044,-86.839,-108.619,-129.101
1747601137.51,0.115,0.053,-0.012,-0.065,-0.086,-0.067,-86.738,-110.319,-130.847
1747601137.53,-0.007,0.040,0.037,-0.102,-0.253,-0.094,-86.621,-111.736,-132.038
1747601137.55,-0.133,-0.023,0.073,0.021,-0.151,-0.153,-86.463,-111.886,-131.949
1747601137.57,-0.105,-0.035,0.066,0.060,-0.057,-0.090,-86.347,-110.205,-130.149
1747601137.59,-0.011,0.018,0.050,0.057,-0.203,0.020,-86.335,-109.160,-128.982
1747601137.61,-0.023,0.011,0.065,-0.078,-0.143,0.014,-86.357,-109.748,-129.320
1747601137.63,0.017,-0.052,0.104,-0.040,0.083,0.019,-86.324,-111.278,-130.845
1747601137.65,0.005,-0.003,0.046,0.009,0.127,-0.002,-86.323,-111.304,-131.001
1747601137.67,-0.035,0.064,-0.008,-0.007,0.139,-0.021,-86.296,-111.219,-131.052
1747601137.69,-0.027,-0.000,-0.012,-0.055,0.103,0.023,-86.273,-111.725,-131.703
1747601137.71,0.010,-0.052,-0.001,-0.044,0.042,0.016,-86.253,-113.468,-133.530
1747601137.73,0.046,-0.007,0.004,0.012,-0.050,-0.029,-86.230,-114.309,-134.376
1747601137.75,0.015,0.027,-0.017,0.101,-0.097,0.015,-86.231,-113.344,-133.302
1747601137.77,0.022,0.005,-0.006,0.077,-0.012,0.075,-86.315,-111.963,-131.875
1747601137.79,-0.015,-0.026,0.017,0.060,-0.097,0.041,-86.408,-111.409,-131.251
1747601137.81,-0.025,-0.003,0.052,0.107,-0.091,0.031,-86.495,-110.278,-130.003
1747601137.83,0.004,0.019,0.096,0.024,-0.009,0.058,-86.583,-109.666,-129.337
1747601137.85,0.010,-0.027,0.050,0.042,0.001,0.027,-86.652,-109.303,-128.970
1747601137.87,0.012,-0.023,0.023,0.075,-0.054,0.021,-86.688,-108.573,-128.217
1747601137.89,-0.003,0.030,-0.001,0.093,-0.152,0.010,-86.710,-107.707,-127.213
1747601137.91,-0.002,0.025,0.018,0.062,-0.057,0.037,-86.737,-107.646,-127.039
1747601137.93,-0.019,-0.004,-0.008,0.046,-0.071,0.019,-86.776,-107.870,-127.178
1747601137.95,-0.017,-0.028,0.034,0.014,0.003,0.052,-86.814,-108.103,-127.363
1747601137.97,-0.009,-0.015,0.057,0.032,0.005,0.081,-86.895,-108.130,-127.411
1747601137.99,-0.012,-0.023,0.017,0.075,-0.023,0.079,-86.997,-107.826,-127.092
1747601138.01,0.018,-0.014,-0.014,0.157,-0.044,0.069,-87.091,-106.003,-125.227
1747601138.03,0.052,0.033,-0.024,0.228,-0.187,0.095,-87.205,-102.562,-121.655
1747601138.05,0.073,0.059,-0.022,0.224,-0.218,0.120,-87.358,-99.115,-117.964
1747601138.07,0.063,-0.018,-0.001,0.247,-0.260,0.098,-87.505,-94.164,-112.725
1747601138.09,0.043,-0.057,0.030,0.280,-0.247,0.095,-87.614,-87.441,-105.703
1747601138.11,-0.011,0.013,0.020,0.286,-0.271,0.070,-87.696,-79.381,-97.344
1747601138.13,-0.105,0.029,0.045,0.262,-0.216,0.078,-87.699,-71.451,-89.100
1747601138.15,-0.088,-0.018,0.028,0.220,-0.070,0.089,-87.687,-64.316,-81.815
1747601138.17,-0.050,-0.001,0.019,0.257,0.065,0.079,-87.647,-57.552,-75.035
1747601138.19,-0.003,0.024,0.017,0.364,-0.004,0.090,-87.506,-49.403,-66.926
1747601138.21,0.000,0.026,-0.017,0.367,0.036,0.144,-87.293,-40.601,-58.115
1747601138.23,-0.017,-0.032,0.004,0.310,0.146,0.158,-87.095,-32.828,-50.455
1747601138.25,-0.046,-0.013,0.006,0.313,0.092,0.175,-86.880,-26.327,-44.088
1747601138.27,0.011,0.027,-0.003,0.418,-0.073,0.214,-86.584,-19.898,-37.654
1747601138.29,0.125,0.004,-0.042,0.472,-0.264,0.168,-86.156,-14.267,-31.831
1747601138.31,0.105,-0.009,-0.004,0.563,-0.276,0.144,-85.657,-10.595,-27.813
1747601138.33,-0.062,-0.002,0.025,0.813,-0.178,0.105,-84.850,-7.477,-24.434
1747601138.35,-0.219,0.023,0.044,0.626,0.136,0.061,-84.068,-5.687,-22.557
1747601138.37,-0.212,-0.033,0.005,0.717,0.483,0.094,-83.295,-3.962,-21.250
1747601138.39,-0.162,0.017,0.067,0.646,0.288,0.232,-82.524,-1.744,-19.455
1747601138.41,-0.054,0.037,0.050,0.555,0.242,0.285,-81.850,0.806,-17.174
1747601138.43,0.052,-0.118,0.070,0.568,0.214,0.305,-81.201,3.215,-15.020
1747601138.45,0.070,-0.050,-0.022,0.649,0.021,0.242,-80.490,5.006,-13.347
1747601138.47,0.075,0.088,-0.051,0.688,-0.256,0.140,-79.709,5.678,-12.517
1747601138.49,0.111,0.038,-0.007,0.693,-0.106,0.231,-78.900,6.005,-11.934
1747601138.51,0.150,-0.064,-0.004,0.707,0.078,0.304,-78.069,7.184,-10.751
1747601138.53,-0.015,-0.077,-0.047,0.811,0.043,0.304,-77.177,8.253,-9.854
1747601138.55,-0.013,-0.040,-0.063,0.945,-0.044,0.302,-76.131,9.107,-9.111
1747601138.57,0.009,0.033,-0.089,1.001,0.230,0.214,-74.968,9.573,-8.813
1747601138.59,-0.030,0.045,0.022,0.913,0.356,0.096,-73.837,9.865,-9.045
1747601138.61,-0.187,-0.036,0.086,0.842,0.329,0.244,-72.851,10.280,-9.152
1747601138.63,-0.124,-0.079,-0.010,0.961,0.448,0.323,-71.783,11.161,-8.818
1747601138.65,-0.012,-0.006,-0.048,1.139,0.400,0.211,-70.539,11.882,-8.668
1747601138.67,0.007,0.075,-0.050,1.215,0.574,0.033,-69.201,11.987,-9.236
1747601138.69,-0.027,-0.012,-0.005,1.177,0.777,0.110,-67.807,12.196,-9.986
1747601138.71,-0.116,-0.088,0.001,0.928,0.635,0.301,-66.594,12.879,-10.187
1747601138.73,-0.020,-0.083,0.112,0.858,0.709,0.388,-65.551,14.098,-9.858
1747601138.75,0.090,0.044,0.005,1.116,0.320,0.252,-64.339,14.828,-9.785
1747601138.77,0.122,0.088,-0.007,1.092,0.082,0.182,-63.053,14.852,-10.040
1747601138.79,-0.025,0.048,-0.059,0.993,-0.039,0.083,-61.839,14.550,-10.397
1747601138.81,-0.083,-0.011,0.034,0.791,0.219,0.134,-60.831,14.402,-10.686
1747601138.83,-0.023,-0.032,0.075,0.642,-0.016,0.208,-59.996,14.508,-10.723
1747601138.85,0.130,-0.003,0.046,0.633,-0.176,0.299,-59.230,14.580,-10.513
1747601138.87,0.132,-0.004,0.013,0.768,-0.369,0.308,-58.359,14.464,-10.238
1747601138.89,0.042,0.011,-0.026,0.764,-0.245,0.191,-57.442,14.227,-10.111
1747601138.91,-0.043,0.028,-0.021,0.679,-0.219,0.139,-56.580,13.904,-10.169
1747601138.93,-0.096,0.049,0.043,0.742,-0.125,0.163,-55.776,13.654,-10.237
1747601138.95,-0.140,0.019,0.014,0.726,-0.018,0.175,-54.910,13.557,-10.244
1747601138.97,-0.086,0.015,-0.014,0.680,0.122,0.189,-54.087,13.632,-10.235
1747601138.99,0.025,0.010,0.008,0.674,0.111,0.213,-53.281,13.830,-10.165
1747601139.01,0.127,0.002,0.053,0.755,0.112,0.221,-52.435,14.008,-10.092
1747601139.03,0.167,0.000,0.061,0.762,0.029,0.244,-51.511,14.163,-10.027
1747601139.05,0.121,-0.010,-0.007,0.665,-0.147,0.264,-50.665,14.191,-9.897
1747601139.07,0.110,-0.029,-0.027,0.648,-0.259,0.271,-49.866,14.097,-9.709
1747601139.09,0.050,-0.008,-0.012,0.660,-0.318,0.234,-49.075,13.867,-9.553
1747601139.11,-0.012,0.024,-0.034,0.670,-0.231,0.153,-48.282,13.594,-9.505
1747601139.13,-0.036,0.014,0.017,0.650,-0.154,0.212,-47.503,13.393,-9.485
1747601139.15,0.022,-0.001,-0.011,0.541,-0.099,0.248,-46.781,13.362,-9.327
1747601139.17,-0.029,0.001,-0.020,0.535,-0.190,0.242,-46.120,13.350,-9.135
1747601139.19,-0.058,0.004,-0.042,0.599,-0.165,0.179,-45.435,13.234,-8.997
1747601139.21,-0.050,0.015,-0.012,0.636,-0.159,0.081,-44.707,13.027,-9.029
1747601139.23,-0.026,0.024,-0.012,0.624,-0.198,0.067,-43.982,12.737,-9.152
1747601139.25,0.026,0.027,-0.027,0.604,-0.228,0.131,-43.280,12.455,-9.220
1747601139.27,-0.000,0.004,-0.069,0.573,-0.174,0.135,-42.599,12.225,-9.200
1747601139.29,-0.094,-0.067,0.003,0.622,-0.050,0.141,-41.890,12.103,-9.184
1747601139.31,-0.032,-0.105,-0.025,0.592,-0.023,0.087,-41.186,12.064,-9.208
1747601139.33,0.083,-0.035,0.023,0.595,-0.185,0.071,-40.504,11.909,-9.282
1747601139.34,0.116,0.051,0.013,0.582,-0.277,0.133,-39.817,11.614,-9.320
1747601139.36,0.026,0.047,-0.074,0.500,-0.267,0.194,-39.183,11.327,-9.241
1747601139.39,-0.084,-0.029,-0.003,0.515,-0.139,0.218,-38.569,11.194,-9.074
1747601139.41,-0.053,-0.021,0.060,0.571,-0.066,0.160,-37.926,11.177,-8.955
1747601139.42,0.026,0.016,0.047,0.624,-0.157,0.162,-37.220,11.085,-8.905
1747601139.44,0.068,-0.003,-0.032,0.636,-0.147,0.125,-36.470,10.924,-8.859
1747601139.46,-0.033,-0.034,-0.051,0.596,-0.107,0.096,-35.757,10.750,-8.887
1747601139.48,-0.107,-0.046,-0.015,0.568,0.013,0.050,-35.098,10.680,-8.925
1747601139.50,-0.054,0.004,-0.033,0.580,-0.125,0.055,-34.441,10.582,-8.914
1747601139.52,0.075,0.036,-0.014,0.587,-0.279,0.042,-33.757,10.272,-8.833
1747601139.54,0.105,0.013,0.015,0.585,-0.161,0.059,-33.096,9.982,-8.748
1747601139.56,0.061,-0.057,-0.043,0.489,-0.162,0.194,-32.453,9.816,-8.522
1747601139.58,0.097,-0.010,-0.060,0.453,-0.102,0.238,-31.904,9.778,-8.160
1747601139.60,0.074,-0.002,-0.002,0.454,-0.127,0.260,-31.340,9.759,-7.750
1747601139.62,0.051,-0.027,0.018,0.460,-0.084,0.253,-30.776,9.762,-7.330
1747601139.64,-0.011,0.013,0.005,0.510,-0.058,0.243,-30.185,9.791,-6.921
1747601139.66,-0.033,0.046,-0.030,0.509,-0.049,0.123,-29.565,9.802,-6.585
1747601139.68,-0.076,0.034,-0.050,0.437,-0.025,0.028,-29.012,9.758,-6.385
1747601139.70,-0.100,0.025,-0.084,0.362,0.025,0.001,-28.564,9.718,-6.257
1747601139.72,-0.043,0.072,-0.039,0.322,0.034,0.001,-28.181,9.708,-6.120
1747601139.74,-0.010,0.145,0.005,0.306,-0.018,-0.011,-27.826,9.675,-6.004
1747601139.76,-0.026,0.086,0.005,0.302,0.008,-0.042,-27.491,9.626,-5.912
1747601139.78,-0.011,0.018,-0.070,0.182,0.094,-0.117,-27.233,9.603,-5.871
1747601139.80,-0.047,-0.003,-0.107,0.077,0.119,-0.107,-27.104,9.640,-5.889
1747601139.82,0.012,0.030,-0.040,0.019,0.056,-0.154,-27.090,9.678,-5.866
1747601139.84,0.083,0.091,-0.020,0.018,-0.032,-0.170,-27.089,9.590,-5.926
1747601139.86,-0.009,0.026,-0.027,0.003,0.043,-0.180,-27.100,9.466,-6.059
1747601139.88,0.047,0.008,-0.106,-0.066,0.120,-0.163,-27.153,9.485,-6.124
1747601139.90,0.087,0.041,-0.099,-0.179,-0.019,-0.080,-27.316,9.498,-6.240
1747601139.92,0.170,0.088,-0.095,-0.240,-0.121,-0.076,-27.572,9.385,-6.225
1747601139.94,0.049,-0.012,-0.075,-0.346,-0.125,-0.054,-27.910,9.215,-6.092
1747601139.96,0.005,-0.067,-0.024,-0.441,-0.036,-0.013,-28.359,9.155,-5.895
1747601139.98,0.066,-0.017,-0.072,-0.495,-0.029,0.002,-28.881,9.169,-5.636
1747601140.00,0.096,-0.009,-0.122,-0.583,0.025,-0.030,-29.486,9.211,-5.380
1747601140.02,0.002,-0.083,-0.086,-0.656,0.016,-0.005,-30.188,9.282,-5.193
1747601140.04,0.012,-0.092,-0.025,-0.671,0.044,-0.062,-30.946,9.396,-4.930
1747601140.06,0.011,-0.037,-0.053,-0.681,-0.070,-0.071,-31.721,9.397,-4.743
1747601140.08,0.021,-0.007,-0.077,-0.702,-0.064,-0.057,-32.513,9.356,-4.534
1747601140.10,-0.032,0.010,-0.059,-0.737,-0.005,-0.077,-33.339,9.343,-4.378
1747601140.12,-0.012,-0.026,-0.011,-0.822,0.063,-0.110,-34.230,9.418,-4.238
1747601140.14,-0.008,-0.067,-0.044,-0.881,0.140,-0.103,-35.213,9.549,-4.112
1747601140.16,-0.010,-0.075,-0.068,-0.954,0.112,-0.074,-36.260,9.748,-3.945
1747601140.18,0.013,-0.060,-0.045,-0.971,0.134,-0.091,-37.365,9.966,-3.751
1747601140.20,0.025,-0.020,-0.031,-1.016,0.095,-0.115,-38.499,10.167,-3.566
1747601140.22,-0.023,-0.011,-0.035,-1.044,0.039,-0.098,-39.676,10.308,-3.411
1747601140.24,-0.009,-0.030,-0.061,-1.096,0.021,-0.051,-40.894,10.452,-3.198
1747601140.26,0.058,-0.047,-0.036,-1.076,0.044,-0.030,-42.125,10.655,-2.898
1747601140.28,0.052,-0.053,-0.067,-1.097,0.019,-0.069,-43.358,10.840,-2.629
1747601140.30,0.008,-0.082,-0.039,-1.156,0.044,-0.095,-44.639,11.038,-2.390
1747601140.32,-0.062,-0.078,-0.006,-1.195,0.058,-0.088,-45.981,11.239,-2.161
1747601140.34,-0.026,-0.052,-0.036,-1.254,0.032,-0.051,-47.367,11.497,-1.856
1747601140.36,0.041,-0.011,-0.024,-1.269,0.111,-0.102,-48.796,11.825,-1.531
1747601140.38,0.037,0.030,-0.013,-1.248,0.046,-0.141,-50.231,12.102,-1.312
1747601140.40,-0.003,0.020,-0.014,-1.303,0.054,-0.133,-51.691,12.347,-1.098
1747601140.42,-0.017,0.006,-0.025,-1.312,0.053,-0.181,-53.183,12.614,-0.900
1747601140.44,-0.015,0.004,-0.006,-1.355,0.015,-0.193,-54.719,12.822,-0.728
1747601140.46,-0.009,0.005,-0.019,-1.345,-0.011,-0.228,-56.269,12.994,-0.575
1747601140.48,-0.026,0.021,-0.016,-1.295,0.087,-0.334,-57.808,13.080,-0.585
1747601140.50,-0.041,0.005,-0.018,-1.344,0.049,-0.391,-59.370,13.039,-0.802
1747601140.52,-0.032,-0.037,-0.014,-1.381,0.064,-0.412,-60.994,12.921,-1.065
1747601140.54,0.000,-0.055,0.030,-1.334,0.164,-0.422,-62.615,12.831,-1.441
1747601140.56,0.033,-0.028,0.027,-1.383,0.101,-0.411,-64.223,12.740,-1.847
1747601140.58,0.075,0.000,-0.004,-1.369,-0.031,-0.383,-65.874,12.566,-2.229
1747601140.60,0.141,-0.003,-0.017,-1.332,-0.078,-0.385,-67.464,12.296,-2.609
1747601140.62,0.141,-0.036,-0.008,-1.283,-0.226,-0.392,-69.023,11.821,-3.076
1747601140.64,0.080,-0.062,-0.025,-1.237,-0.271,-0.357,-70.517,11.140,-3.615
1747601140.66,0.072,-0.085,-0.017,-1.262,-0.170,-0.326,-71.980,10.562,-4.125
1747601140.68,0.041,-0.080,-0.015,-1.196,-0.318,-0.335,-73.447,9.918,-4.680
1747601140.70,-0.014,-0.054,-0.042,-1.129,-0.356,-0.309,-74.812,9.022,-5.344
1747601140.72,-0.053,-0.022,-0.044,-1.059,-0.198,-0.352,-76.098,7.976,-6.133
1747601140.74,-0.113,-0.013,-0.042,-1.104,0.135,-0.419,-77.363,6.746,-7.374
1747601140.76,-0.177,-0.006,0.021,-1.112,0.156,-0.388,-78.691,5.373,-8.960
1747601140.78,-0.094,-0.031,0.000,-1.141,0.369,-0.322,-79.985,4.046,-10.584
1747601140.80,0.092,-0.063,0.056,-1.212,0.298,-0.255,-81.357,3.068,-12.054
1747601140.82,0.098,0.010,-0.041,-1.182,0.044,-0.276,-82.748,1.493,-13.767
1747601140.84,0.081,0.069,0.077,-0.931,0.111,-0.353,-83.971,-1.577,-16.964
1747601140.86,0.057,-0.006,-0.015,-0.794,0.054,-0.350,-84.899,-6.239,-21.748
1747601140.88,-0.021,-0.042,-0.062,-0.849,-0.124,-0.334,-85.762,-12.948,-28.447
1747601140.90,-0.078,0.004,-0.077,-0.789,0.023,-0.355,-86.545,-22.955,-38.375
1747601140.92,-0.082,-0.003,-0.028,-0.710,0.226,-0.343,-87.084,-36.642,-52.261
1747601140.94,-0.086,-0.048,-0.040,-0.769,0.209,-0.296,-87.417,-54.049,-69.934
1747601140.96,-0.068,-0.017,-0.023,-0.745,0.173,-0.308,-87.491,-75.319,-91.425
1747601140.98,0.002,0.002,-0.050,-0.688,0.315,-0.312,-87.214,-93.259,-109.662
1747601141.00,0.069,0.001,0.000,-0.628,0.338,-0.320,-86.729,-105.850,-122.668
1747601141.02,0.002,0.040,-0.018,-0.508,0.255,-0.325,-86.163,-113.375,-130.545
1747601141.04,-0.031,0.028,-0.013,-0.390,0.268,-0.318,-85.611,-117.218,-134.692
1747601141.06,-0.023,-0.009,-0.012,-0.419,0.316,-0.275,-85.093,-119.787,-137.609
1747601141.08,-0.030,-0.031,0.003,-0.430,0.351,-0.221,-84.599,-122.399,-140.619
1747601141.10,-0.008,-0.067,0.004,-0.414,0.279,-0.153,-84.149,-124.957,-143.556
1747601141.12,0.026,-0.022,0.005,-0.296,0.183,-0.103,-83.799,-127.045,-145.929
1747601141.14,0.015,0.073,0.042,-0.177,-0.165,-0.110,-83.538,-128.230,-147.154
1747601141.16,0.011,0.024,0.018,-0.168,-0.536,-0.069,-83.340,-129.385,-147.894
1747601141.18,0.044,-0.071,-0.024,-0.106,-0.455,-0.128,-83.158,-130.433,-148.331
1747601141.20,0.057,-0.058,0.032,-0.072,-0.195,-0.181,-82.954,-130.438,-147.980
1747601141.22,-0.039,0.065,0.082,-0.060,-0.421,-0.080,-82.780,-130.373,-147.594
1747601141.24,-0.182,0.036,0.021,-0.037,-0.432,-0.059,-82.699,-130.927,-147.618
1747601141.26,-0.134,-0.078,0.010,-0.079,0.065,-0.040,-82.609,-131.174,-147.615
1747601141.28,-0.006,-0.070,0.054,-0.050,0.367,0.010,-82.540,-131.298,-148.040
1747601141.30,-0.011,0.066,-0.017,0.056,0.259,0.051,-82.567,-131.097,-148.229
1747601141.32,-0.071,0.073,-0.058,0.160,0.004,0.066,-82.703,-130.469,-147.730
1747601141.34,-0.013,0.006,-0.021,0.115,0.125,0.110,-82.888,-129.999,-147.306
1747601141.36,0.023,-0.022,0.014,0.095,0.245,0.042,-83.025,-129.527,-147.056
1747601141.38,0.025,-0.028,0.009,0.121,0.267,0.062,-83.143,-128.665,-146.492
1747601141.40,0.037,-0.003,0.023,0.132,0.147,0.118,-83.313,-128.031,-146.101
1747601141.42,0.034,0.013,0.073,0.133,0.027,0.125,-83.517,-127.539,-145.712
1747601141.44,0.021,-0.017,0.059,0.158,-0.111,0.093,-83.715,-127.277,-145.392
1747601141.46,0.027,-0.029,0.025,0.266,-0.175,0.080,-83.927,-126.446,-144.394
1747601141.48,0.008,0.026,0.014,0.353,-0.232,0.085,-84.217,-124.658,-142.334
1747601141.50,-0.020,0.058,0.100,0.324,-0.197,0.167,-84.534,-122.991,-140.433
1747601141.52,-0.100,0.005,0.072,0.312,-0.379,0.164,-84.904,-120.976,-138.081
1747601141.54,-0.124,-0.054,0.076,0.268,-0.280,0.143,-85.211,-119.104,-135.789
1747601141.56,-0.059,-0.061,0.146,0.327,-0.088,0.143,-85.516,-116.621,-133.104
1747601141.58,-0.082,-0.005,0.119,0.405,-0.096,0.106,-85.816,-112.475,-128.864
1747601141.60,-0.115,0.039,0.105,0.474,-0.275,0.142,-86.114,-106.539,-122.703
1747601141.62,-0.078,0.005,0.074,0.449,-0.277,0.196,-86.425,-99.665,-115.474
1747601141.64,0.004,-0.025,0.058,0.556,-0.252,0.207,-86.713,-91.001,-106.511
1747601141.66,0.018,0.021,0.022,0.687,-0.276,0.169,-86.864,-78.244,-93.418
1747601141.68,-0.019,0.026,0.013,0.804,-0.265,0.164,-86.749,-62.969,-77.815
1747601141.70,-0.044,-0.004,-0.044,0.740,-0.136,0.221,-86.422,-48.598,-63.173
1747601141.72,-0.029,-0.023,-0.013,0.770,0.002,0.299,-86.005,-36.803,-51.276
1747601141.74,-0.034,-0.032,-0.003,0.854,0.216,0.348,-85.407,-25.924,-40.488
1747601141.76,0.011,-0.039,-0.068,0.972,0.370,0.335,-84.563,-17.106,-31.988
1747601141.78,0.065,-0.032,-0.048,0.911,0.317,0.351,-83.606,-10.488,-25.933
1747601141.80,0.043,-0.017,-0.031,0.975,0.417,0.337,-82.609,-5.641,-21.664
1747601141.82,0.038,-0.018,-0.008,0.997,0.371,0.324,-81.499,-1.949,-18.608
1747601141.84,-0.017,-0.022,-0.036,0.971,0.232,0.334,-80.379,0.817,-16.326
1747601141.86,0.062,-0.028,-0.025,0.998,0.291,0.313,-79.258,2.998,-14.597
1747601141.88,0.134,-0.006,0.006,1.065,0.026,0.218,-78.029,4.355,-13.603
1747601141.90,0.038,0.037,-0.006,0.944,-0.001,0.142,-76.878,4.811,-13.266
1747601141.92,-0.078,0.006,0.022,0.943,0.210,0.113,-75.785,5.090,-13.274
1747601141.94,-0.129,-0.044,0.018,0.985,0.267,0.200,-74.678,5.644,-13.135
1747601141.96,-0.062,-0.022,0.004,0.979,0.405,0.241,-73.526,6.496,-12.757
1747601141.98,0.029,0.003,0.127,0.922,0.509,0.206,-72.422,7.486,-12.476
1747601142.00,-0.054,0.001,-0.038,0.844,0.263,0.229,-71.374,8.182,-12.302
1747601142.02,-0.064,-0.016,-0.011,0.785,0.202,0.251,-70.423,8.875,-11.999
1747601142.04,0.055,0.001,-0.007,0.861,0.248,0.202,-69.486,9.449,-11.795
1747601142.06,0.153,0.048,0.034,1.117,0.147,0.121,-68.315,9.619,-11.959
1747601142.08,0.166,0.086,0.150,0.997,-0.106,0.130,-67.108,9.509,-12.219
1747601142.10,0.027,0.041,-0.054,0.916,-0.268,0.165,-65.984,9.233,-12.236
1747601142.12,-0.050,-0.060,0.024,0.935,-0.014,0.119,-64.944,9.099,-12.220
1747601142.14,-0.126,-0.103,-0.026,1.049,0.046,0.083,-63.811,8.956,-12.383
1747601142.16,-0.054,-0.023,-0.015,1.053,0.284,0.122,-62.593,9.007,-12.565
1747601142.18,0.004,0.035,0.003,0.833,0.133,0.212,-61.480,9.298,-12.527
1747601142.20,0.047,0.003,-0.030,0.647,0.143,0.328,-60.610,9.714,-12.210
1747601142.22,0.110,-0.092,-0.015,0.706,-0.028,0.389,-59.794,10.253,-11.667
1747601142.24,0.069,-0.048,0.008,0.870,-0.017,0.387,-58.842,10.705,-11.099
1747601142.26,0.003,0.060,-0.032,0.936,-0.121,0.244,-57.707,10.881,-10.810
1747601142.28,-0.048,0.064,-0.082,0.715,-0.074,0.157,-56.757,10.829,-10.724
1747601142.30,-0.038,-0.064,-0.061,0.588,-0.123,0.244,-55.994,10.823,-10.589
1747601142.32,-0.052,-0.122,0.014,0.555,-0.024,0.290,-55.300,10.999,-10.261
1747601142.34,-0.086,-0.010,0.040,0.751,0.107,0.316,-54.523,11.350,-9.913
1747601142.36,-0.019,0.091,-0.021,0.807,0.170,0.222,-53.550,11.666,-9.692
1747601142.38,0.072,0.068,0.001,0.671,0.091,0.115,-52.696,11.841,-9.697
1747601142.40,0.055,-0.061,-0.077,0.464,-0.040,0.180,-52.022,11.888,-9.655
1747601142.42,0.020,-0.071,0.054,0.380,-0.086,0.266,-51.520,12.020,-9.403
1747601142.44,0.034,0.074,0.044,0.505,-0.136,0.306,-50.969,12.167,-9.046
1747601142.46,0.105,0.178,-0.020,0.685,-0.240,0.189,-50.227,12.146,-8.821
1747601142.48,0.085,0.130,0.022,0.720,-0.333,0.111,-49.389,11.800,-8.840
1747601142.49,-0.028,-0.053,-0.074,0.591,-0.344,0.144,-48.623,11.382,-8.865
1747601142.51,-0.048,-0.172,-0.028,0.548,-0.179,0.174,-47.972,11.152,-8.767
1747601142.53,-0.050,-0.106,-0.009,0.572,-0.092,0.113,-47.306,11.040,-8.713
1747601142.55,-0.004,-0.003,-0.011,0.613,-0.038,0.094,-46.620,10.950,-8.739
1747601142.57,0.026,0.026,-0.015,0.657,-0.096,0.104,-45.884,10.856,-8.781
1747601142.59,0.026,0.001,-0.081,0.543,-0.115,0.136,-45.182,10.724,-8.771
1747601142.61,-0.006,-0.034,0.035,0.532,-0.082,0.188,-44.545,10.671,-8.671
1747601142.63,0.014,0.007,0.022,0.547,-0.101,0.188,-43.893,10.678,-8.536
1747601142.65,0.039,0.063,-0.024,0.540,-0.160,0.172,-43.255,10.605,-8.407
1747601142.67,-0.018,0.085,-0.015,0.513,-0.140,0.126,-42.613,10.476,-8.331
1747601142.69,-0.088,0.030,-0.063,0.455,-0.078,0.164,-42.041,10.399,-8.257
1747601142.71,-0.098,-0.023,0.040,0.459,0.021,0.196,-41.496,10.484,-8.097
1747601142.73,-0.070,0.001,-0.013,0.455,0.017,0.145,-40.947,10.592,-7.961
1747601142.75,-0.048,0.018,-0.040,0.486,-0.009,0.077,-40.394,10.610,-7.933
1747601142.77,-0.073,-0.004,-0.030,0.491,0.017,-0.007,-39.842,10.565,-8.013
1747601142.79,-0.111,-0.032,0.003,0.467,0.093,-0.012,-39.292,10.529,-8.174
1747601142.81,-0.010,-0.068,-0.007,0.466,0.071,0.033,-38.781,10.562,-8.281
1747601142.83,0.094,-0.041,0.008,0.495,0.051,0.073,-38.233,10.600,-8.332
1747601142.85,0.120,-0.002,0.006,0.434,0.032,0.121,-37.673,10.653,-8.266
1747601142.87,0.078,-0.001,-0.055,0.314,-0.009,0.213,-37.220,10.747,-8.001
1747601142.89,0.046,0.012,0.011,0.319,0.013,0.225,-36.829,10.904,-7.648
1747601142.91,0.044,0.048,0.014,0.387,-0.064,0.208,-36.379,11.001,-7.336
1747601142.93,0.058,0.041,-0.013,0.429,-0.147,0.183,-35.883,10.964,-7.068
1747601142.95,0.016,-0.014,-0.028,0.408,-0.109,0.208,-35.361,10.905,-6.796
1747601142.97,0.009,-0.031,-0.018,0.358,-0.085,0.222,-34.872,10.915,-6.475
1747601142.99,0.020,-0.000,-0.066,0.291,-0.080,0.232,-34.464,10.947,-6.120
1747601143.01,-0.038,-0.006,-0.015,0.299,0.028,0.215,-34.090,11.061,-5.732
1747601143.03,-0.056,0.041,-0.008,0.352,0.023,0.147,-33.678,11.178,-5.446
1747601143.05,-0.066,0.053,-0.000,0.379,0.027,0.084,-33.242,11.237,-5.242
1747601143.07,-0.069,0.015,-0.018,0.310,0.059,-0.010,-32.839,11.255,-5.134
1747601143.09,-0.062,-0.002,-0.108,0.225,0.130,-0.041,-32.551,11.297,-5.088
1747601143.11,-0.029,0.043,-0.037,0.246,0.116,-0.079,-32.311,11.380,-5.072
1747601143.13,-0.009,0.089,0.025,0.287,0.029,-0.080,-32.027,11.363,-5.114
1747601143.15,0.015,0.063,0.067,0.329,0.061,-0.058,-31.695,11.312,-5.147
1747601143.17,0.043,0.027,0.018,0.284,0.074,-0.024,-31.361,11.325,-5.205
1747601143.19,0.053,0.021,-0.080,0.208,0.107,-0.058,-31.087,11.366,-5.173
1747601143.21,0.005,-0.004,-0.049,0.147,0.100,0.010,-30.893,11.440,-5.103
1747601143.23,0.113,-0.022,-0.025,0.168,0.025,-0.001,-30.724,11.507,-5.068
1747601143.25,0.097,-0.027,0.008,0.123,-0.029,0.063,-30.543,11.487,-5.066
1747601143.27,0.067,-0.049,-0.003,0.073,-0.045,0.091,-30.421,11.504,-4.843
1747601143.29,0.049,-0.031,-0.080,0.030,-0.067,0.127,-30.336,11.509,-4.593
1747601143.31,0.044,0.023,-0.055,0.032,-0.101,0.099,-30.259,11.508,-4.434
1747601143.33,-0.011,0.017,-0.014,0.002,-0.020,0.077,-30.208,11.527,-4.226
1747601143.35,-0.042,-0.005,-0.029,-0.005,-0.022,0.049,-30.183,11.578,-4.137
1747601143.37,-0.037,0.033,-0.020,-0.026,-0.028,0.014,-30.163,11.591,-3.993
1747601143.39,-0.005,0.049,-0.033,-0.085,-0.038,0.011,-30.199,11.566,-3.896
1747601143.41,-0.020,0.022,-0.097,-0.172,-0.029,-0.007,-30.354,11.546,-3.864
1747601143.43,-0.022,0.041,-0.037,-0.185,0.007,-0.043,-30.557,11.547,-3.840
1747601143.45,-0.002,0.088,-0.020,-0.205,-0.079,-0.037,-30.776,11.479,-3.863
1747601143.47,0.020,0.038,-0.058,-0.315,-0.060,-0.033,-31.091,11.402,-3.839
1747601143.49,-0.000,0.031,-0.079,-0.410,-0.012,-0.010,-31.481,11.398,-3.770
1747601143.51,0.006,0.047,-0.108,-0.421,-0.012,-0.081,-31.966,11.407,-3.717
1747601143.53,0.005,-0.016,-0.053,-0.444,-0.098,-0.135,-32.465,11.318,-3.756
1747601143.55,0.051,-0.125,-0.057,-0.493,-0.038,-0.135,-33.016,11.204,-3.822
1747601143.57,0.055,-0.129,-0.111,-0.653,0.060,-0.106,-33.682,11.210,-3.832
1747601143.59,0.046,-0.034,-0.081,-0.782,0.085,-0.060,-34.506,11.360,-3.741
1747601143.61,0.097,0.059,-0.044,-0.824,-0.075,-0.064,-35.423,11.459,-3.605
1747601143.63,0.137,0.069,-0.041,-0.863,-0.188,-0.057,-36.382,11.389,-3.442
1747601143.65,0.069,0.023,-0.074,-0.849,-0.132,-0.120,-37.352,11.256,-3.329
1747601143.67,-0.069,-0.069,-0.060,-0.930,-0.040,-0.110,-38.380,11.210,-3.250
1747601143.69,-0.111,-0.135,-0.064,-1.012,0.055,-0.082,-39.486,11.301,-3.110
1747601143.71,-0.010,-0.119,-0.039,-0.999,0.074,-0.129,-40.650,11.487,-2.952
1747601143.73,0.018,-0.069,-0.056,-0.962,0.030,-0.182,-41.775,11.583,-2.815
1747601143.75,0.026,-0.065,-0.068,-1.006,0.037,-0.205,-42.916,11.622,-2.752
1747601143.77,0.015,-0.080,-0.044,-1.126,0.074,-0.161,-44.159,11.702,-2.670
1747601143.79,0.057,-0.105,-0.031,-1.108,0.120,-0.064,-45.432,11.969,-2.422
1747601143.81,0.045,-0.050,-0.061,-1.056,0.087,-0.126,-46.660,12.252,-2.171
1747601143.83,-0.041,-0.023,-0.048,-1.107,0.151,-0.194,-47.903,12.470,-2.030
1747601143.85,-0.108,-0.034,-0.039,-1.208,0.249,-0.231,-49.245,12.753,-1.959
1747601143.87,-0.069,-0.042,0.001,-1.280,0.239,-0.156,-50.679,13.166,-1.815
1747601143.89,0.046,-0.009,-0.010,-1.262,0.175,-0.111,-52.141,13.657,-1.494
1747601143.91,0.084,0.066,0.011,-1.201,0.126,-0.236,-53.542,14.037,-1.268
1747601143.93,0.024,0.102,-0.031,-1.225,0.009,-0.324,-54.957,14.131,-1.304
1747601143.95,-0.044,0.039,-0.004,-1.323,-0.050,-0.263,-56.445,14.125,-1.311
1747601143.97,-0.042,-0.019,0.054,-1.337,-0.010,-0.258,-58.001,14.232,-1.195
1747601143.99,0.018,-0.022,0.008,-1.380,-0.170,-0.259,-59.568,14.312,-1.082
1747601144.01,0.093,-0.008,-0.018,-1.329,-0.495,-0.249,-61.150,14.101,-0.938
1747601144.03,0.129,0.018,-0.014,-1.255,-0.570,-0.340,-62.654,13.539,-0.972
1747601144.05,0.048,0.017,-0.017,-1.319,-0.538,-0.379,-64.177,12.728,-1.250
1747601144.07,0.007,-0.033,-0.003,-1.388,-0.383,-0.332,-65.774,12.058,-1.513
1747601144.09,0.013,-0.096,0.006,-1.350,-0.298,-0.280,-67.398,11.625,-1.696
1747601144.11,0.026,-0.140,-0.047,-1.288,-0.325,-0.198,-68.903,11.372,-1.707
1747601144.13,-0.014,-0.095,-0.089,-1.319,-0.253,-0.266,-70.428,11.130,-1.714
1747601144.15,-0.072,-0.042,-0.089,-1.219,-0.090,-0.360,-71.914,10.689,-2.072
1747601144.17,-0.098,-0.007,-0.069,-1.163,0.009,-0.420,-73.331,10.009,-2.854
1747601144.19,-0.081,-0.022,-0.033,-1.323,0.200,-0.386,-74.784,9.357,-3.760
1747601144.21,-0.010,-0.055,0.027,-1.374,0.168,-0.371,-76.412,8.876,-4.591
1747601144.23,0.050,-0.065,-0.004,-1.224,0.087,-0.260,-77.931,8.387,-5.295
1747601144.25,0.108,0.012,-0.025,-1.017,-0.035,-0.250,-79.243,7.990,-5.728
1747601144.27,0.068,0.063,-0.064,-0.963,0.007,-0.389,-80.379,6.792,-6.913
1747601144.29,-0.015,0.001,-0.010,-0.988,-0.006,-0.479,-81.561,4.322,-9.424
1747601144.31,-0.067,-0.037,-0.063,-0.951,0.116,-0.437,-82.677,0.872,-12.948
1747601144.33,-0.027,-0.034,0.023,-0.925,0.308,-0.340,-83.746,-2.752,-16.846
1747601144.35,0.001,-0.029,0.084,-0.975,0.375,-0.263,-84.813,-6.646,-21.176
1747601144.37,-0.015,-0.038,0.032,-0.881,0.261,-0.252,-85.807,-11.746,-26.659
1747601144.39,-0.036,0.002,-0.024,-0.884,0.223,-0.340,-86.684,-20.715,-35.921
1747601144.41,-0.044,0.030,-0.021,-0.845,0.154,-0.445,-87.347,-37.294,-52.742
1747601144.43,-0.028,0.026,-0.038,-0.688,-0.019,-0.506,-87.517,-60.439,-76.003
1747601144.45,0.037,0.020,-0.047,-0.531,-0.005,-0.454,-87.234,-78.576,-94.132
1747601144.47,0.097,0.005,0.036,-0.556,0.118,-0.344,-86.825,-91.124,-106.753
1747601144.49,0.085,-0.071,0.098,-0.644,0.282,-0.192,-86.443,-101.940,-117.805
1747601144.51,0.018,-0.087,0.032,-0.700,0.532,-0.104,-86.063,-111.940,-128.292
1747601144.53,-0.064,-0.031,0.030,-0.719,0.726,-0.084,-85.604,-120.764,-137.866
1747601144.55,-0.125,0.023,0.021,-0.566,0.719,-0.132,-85.094,-126.623,-144.601
1747601144.57,-0.154,0.012,-0.014,-0.463,0.603,-0.188,-84.588,-129.630,-148.365
1747601144.59,-0.093,-0.031,0.020,-0.468,0.692,-0.166,-84.087,-131.582,-151.057
1747601144.61,0.010,-0.017,0.029,-0.460,0.594,-0.144,-83.595,-133.439,-153.693
1747601144.63,0.045,0.043,-0.011,-0.346,0.335,-0.157,-83.147,-134.742,-155.537
1747601144.65,0.067,0.060,0.050,-0.138,0.077,-0.124,-82.830,-135.177,-156.213
1747601144.67,0.070,0.016,0.040,-0.138,-0.052,-0.089,-82.664,-135.165,-156.197
1747601144.69,0.042,-0.017,0.061,-0.221,-0.143,-0.105,-82.433,-135.869,-156.799
1747601144.71,-0.019,-0.051,-0.011,-0.225,-0.130,-0.123,-82.155,-136.675,-157.436
1747601144.73,-0.043,-0.027,-0.004,-0.121,0.058,-0.133,-81.898,-137.000,-157.710
1747601144.75,-0.049,0.040,-0.006,-0.016,0.299,-0.056,-81.772,-136.450,-157.379
1747601144.77,-0.093,0.029,-0.037,-0.057,0.278,0.042,-81.746,-136.326,-157.584
1747601144.79,-0.127,-0.031,-0.022,-0.172,0.294,-0.005,-81.671,-136.723,-158.307
1747601144.81,-0.050,-0.042,0.031,-0.174,0.441,-0.015,-81.506,-137.148,-159.172
1747601144.83,0.020,0.010,0.045,-0.100,0.345,0.004,-81.380,-137.395,-159.895
1747601144.85,0.057,0.038,-0.040,0.035,0.112,0.011,-81.362,-137.324,-160.092
1747601144.87,0.087,0.027,-0.066,0.098,-0.003,0.009,-81.435,-136.962,-159.780
1747601144.89,0.047,-0.005,-0.002,0.092,-0.130,-0.023,-81.515,-136.494,-159.222
1747601144.91,-0.023,-0.017,0.039,0.065,-0.169,-0.035,-81.554,-136.022,-158.575
1747601144.93,-0.052,-0.024,0.033,0.034,-0.166,-0.013,-81.582,-135.867,-158.218
1747601144.95,-0.052,-0.025,0.034,0.019,-0.115,-0.004,-81.628,-135.830,-158.014
1747601144.97,-0.057,-0.006,0.021,-0.035,-0.053,-0.030,-81.623,-135.950,-158.035
1747601144.99,-0.057,-0.008,0.005,-0.035,0.018,-0.036,-81.555,-135.993,-158.059
1747601145.01,-0.008,-0.012,-0.013,-0.086,0.086,-0.021,-81.461,-136.087,-158.224
1747601145.03,0.036,-0.007,-0.004,-0.083,-0.001,0.022,-81.362,-136.479,-158.677
1747601145.05,0.054,-0.015,-0.010,-0.051,-0.069,0.034,-81.296,-137.021,-159.186
1747601145.07,0.029,-0.014,0.003,0.012,-0.166,0.005,-81.272,-137.269,-159.307
1747601145.09,0.007,0.015,0.041,0.121,-0.243,0.017,-81.329,-137.137,-158.942
1747601145.11,-0.018,0.044,0.026,0.265,-0.312,0.023,-81.520,-136.631,-158.103
1747601145.13,-0.040,-0.000,0.011,0.239,-0.376,0.051,-81.794,-135.892,-156.955
1747601145.15,-0.064,-0.052,0.043,0.188,-0.281,0.070,-82.017,-135.624,-156.287
1747601145.17,-0.076,-0.041,0.083,0.290,-0.096,0.100,-82.255,-135.142,-155.592
1747601145.19,-0.084,-0.002,0.069,0.325,-0.107,0.121,-82.590,-134.059,-154.383
1747601145.21,-0.061,0.016,0.029,0.355,-0.106,0.143,-82.956,-132.850,-153.037
1747601145.23,-0.027,0.025,-0.003,0.458,-0.196,0.157,-83.407,-130.987,-151.006
1747601145.25,-0.005,0.014,0.028,0.454,-0.288,0.189,-83.887,-128.817,-148.539
1747601145.27,0.031,-0.059,0.030,0.566,-0.268,0.224,-84.422,-126.165,-145.540
1747601145.29,0.025,-0.051,0.004,0.750,-0.259,0.235,-85.062,-121.208,-140.274
1747601145.31,-0.001,0.040,-0.056,0.884,-0.396,0.223,-85.724,-112.628,-131.276
1747601145.33,-0.030,0.118,-0.019,0.908,-0.318,0.230,-86.264,-99.878,-118.077
1747601145.35,-0.100,0.024,0.056,0.849,-0.087,0.242,-86.568,-84.222,-102.149
1747601145.37,-0.064,-0.128,0.103,0.855,0.062,0.352,-86.653,-67.059,-84.953
1747601145.39,-0.035,-0.103,0.067,0.967,0.185,0.396,-86.458,-48.052,-66.050
1747601145.41,-0.049,0.047,0.087,0.967,0.125,0.372,-85.898,-32.273,-50.629
1747601145.43,-0.012,0.110,-0.015,0.898,-0.091,0.308,-85.093,-21.391,-39.923
1747601145.45,0.005,0.009,0.101,0.767,0.032,0.233,-84.306,-15.206,-33.834
1747601145.47,0.021,-0.075,0.146,0.880,-0.013,0.236,-83.462,-10.878,-29.705
1747601145.49,-0.008,-0.011,0.048,0.997,-0.244,0.303,-82.441,-7.129,-25.940
1747601145.51,-0.029,0.066,-0.028,1.092,-0.153,0.208,-81.274,-4.455,-23.137
1747601145.53,-0.043,0.051,0.025,1.081,0.103,0.139,-80.047,-2.868,-21.681
1747601145.55,-0.099,-0.008,-0.013,0.812,0.374,0.196,-78.936,-1.397,-20.632
1747601145.56,-0.130,-0.094,0.037,0.624,0.353,0.304,-78.158,0.442,-19.343
1747601145.59,-0.024,-0.086,0.004,0.747,0.348,0.373,-77.384,2.622,-17.676
1747601145.61,0.066,-0.005,-0.059,0.965,0.255,0.264,-76.378,4.310,-16.461
1747601145.63,0.093,0.063,-0.063,0.964,0.356,0.138,-75.237,5.179,-16.097
1747601145.65,-0.042,0.006,-0.033,0.854,0.214,0.146,-74.204,5.633,-16.115
1747601145.66,-0.007,-0.110,-0.034,0.778,0.230,0.355,-73.243,6.536,-15.509
1747601145.68,0.145,-0.083,0.004,0.861,0.172,0.402,-72.284,7.879,-14.373
1747601145.70,0.187,0.009,-0.061,0.952,0.077,0.232,-71.174,8.651,-13.694
1747601145.72,0.116,0.031,0.026,0.905,-0.074,0.150,-70.092,8.752,-13.600
1747601145.74,-0.022,-0.006,-0.026,0.800,-0.222,0.201,-69.096,8.707,-13.463
1747601145.76,-0.105,-0.035,-0.017,0.751,-0.059,0.264,-68.207,8.836,-13.106
1747601145.78,-0.030,-0.004,0.054,0.942,0.076,0.222,-67.193,9.213,-12.755
1747601145.80,-0.019,0.036,-0.008,0.955,0.159,0.214,-66.068,9.481,-12.597
1747601145.82,0.031,0.026,0.023,0.845,0.145,0.280,-65.003,9.858,-12.382
1747601145.84,0.059,-0.032,0.009,0.757,0.046,0.345,-64.043,10.409,-11.901
1747601145.86,0.025,-0.085,0.034,0.734,-0.035,0.362,-63.158,10.901,-11.350
1747601145.88,0.044,-0.051,0.003,0.928,-0.219,0.257,-62.150,11.085,-10.969
1747601145.90,-0.004,0.044,0.016,1.068,-0.077,0.125,-60.962,10.862,-10.994
1747601145.92,-0.038,0.088,0.045,0.748,0.195,0.089,-59.916,10.771,-11.175
1747601145.94,-0.067,-0.024,0.034,0.552,0.012,0.378,-59.162,11.115,-10.979
1747601145.96,0.114,-0.074,-0.004,0.572,-0.117,0.524,-58.453,11.743,-10.157
1747601145.98,0.169,0.043,0.008,0.914,-0.282,0.396,-57.511,12.069,-9.498
1747601146.00,-0.061,0.133,-0.039,1.077,-0.350,0.171,-56.309,11.808,-9.352
1747601146.02,-0.165,0.092,-0.020,0.955,-0.012,0.063,-55.118,11.401,-9.575
1747601146.04,-0.119,-0.086,-0.015,0.652,0.159,0.071,-54.201,11.380,-9.768
1747601146.06,-0.131,-0.171,-0.040,0.459,0.160,0.200,-53.575,11.561,-9.730
1747601146.08,-0.021,-0.027,0.077,0.639,0.095,0.197,-52.934,11.877,-9.527
1747601146.10,0.011,0.194,-0.032,0.834,0.073,0.050,-52.072,11.932,-9.579
1747601146.12,0.001,0.203,0.026,0.823,0.078,-0.080,-51.135,11.730,-9.936
1747601146.14,0.038,0.046,-0.019,0.643,-0.021,-0.069,-50.330,11.458,-10.361
1747601146.16,0.086,-0.134,-0.068,0.549,-0.134,0.091,-49.676,11.220,-10.547
1747601146.18,0.095,-0.123,0.015,0.644,-0.191,0.088,-48.992,11.000,-10.565
1747601146.20,0.030,0.026,0.005,0.704,-0.162,0.003,-48.210,10.692,-10.724
1747601146.22,-0.001,0.027,0.023,0.666,-0.081,-0.002,-47.441,10.395,-10.940
1747601146.24,0.105,-0.017,-0.066,0.597,-0.103,0.004,-46.734,10.158,-11.132
1747601146.26,0.118,-0.011,0.013,0.586,-0.201,0.087,-46.065,9.899,-11.243
1747601146.28,0.042,-0.001,0.027,0.630,-0.225,0.191,-45.358,9.691,-11.172
1747601146.30,0.016,0.023,0.026,0.675,-0.161,0.131,-44.586,9.540,-11.081
1747601146.32,0.012,0.010,0.004,0.660,-0.146,0.055,-43.807,9.336,-11.112
1747601146.34,0.000,-0.033,-0.061,0.554,-0.094,0.013,-43.110,9.132,-11.234
1747601146.36,-0.032,-0.087,-0.079,0.453,-0.144,0.111,-42.541,8.965,-11.260
1747601146.38,-0.057,-0.031,0.022,0.505,-0.086,0.071,-41.994,8.860,-11.212
1747601146.40,-0.086,0.094,-0.017,0.608,-0.072,0.005,-41.363,8.713,-11.302
1747601146.42,-0.057,0.085,0.079,0.623,-0.026,-0.024,-40.658,8.558,-11.457
1747601146.44,-0.005,-0.000,-0.087,0.557,-0.150,-0.000,-39.986,8.359,-11.624
1747601146.46,0.022,-0.069,-0.040,0.512,-0.096,0.044,-39.393,8.178,-11.692
1747601146.48,0.004,-0.025,0.003,0.529,-0.059,0.020,-38.794,8.059,-11.748
1747601146.50,0.006,0.020,0.028,0.567,-0.116,0.075,-38.165,7.929,-11.759
1747601146.52,0.061,-0.000,0.029,0.557,-0.177,0.147,-37.506,7.792,-11.624
1747601146.54,0.093,-0.018,-0.060,0.459,-0.144,0.187,-36.901,7.687,-11.407
1747601146.56,-0.005,-0.007,-0.015,0.358,-0.084,0.280,-36.418,7.687,-11.062
1747601146.58,-0.040,0.039,0.023,0.380,-0.075,0.294,-35.962,7.812,-10.719
1747601146.60,-0.014,0.087,0.029,0.454,-0.178,0.284,-35.455,7.857,-10.326
1747601146.62,-0.005,0.052,0.052,0.551,-0.159,0.264,-34.833,7.813,-9.905
1747601146.64,0.009,-0.020,-0.067,0.462,-0.116,0.201,-34.215,7.785,-9.545
1747601146.66,-0.080,-0.048,-0.083,0.406,0.011,0.158,-33.696,7.806,-9.247
1747601146.68,-0.190,0.006,0.033,0.424,0.083,0.123,-33.205,7.924,-8.971
1747601146.70,-0.133,0.029,0.016,0.465,0.033,0.077,-32.688,8.037,-8.740
1747601146.72,-0.055,0.049,-0.036,0.493,0.001,-0.010,-32.126,8.021,-8.625
1747601146.74,-0.065,0.028,-0.045,0.488,0.038,-0.073,-31.581,7.965,-8.637
1747601146.76,-0.126,-0.018,-0.064,0.409,0.166,-0.096,-31.092,7.976,-8.691
1747601146.78,-0.096,0.019,-0.028,0.410,0.206,-0.137,-30.645,8.083,-8.796
1747601146.80,-0.049,0.044,-0.027,0.446,0.127,-0.121,-30.186,8.155,-8.912
1747601146.82,0.048,0.017,-0.041,0.433,0.039,-0.169,-29.707,8.113,-9.058
1747601146.84,0.086,-0.014,0.002,0.441,0.014,-0.183,-29.253,7.986,-9.232
1747601146.86,0.101,-0.091,-0.020,0.347,-0.071,-0.079,-28.797,7.841,-9.331
1747601146.88,0.144,-0.031,-0.078,0.282,-0.081,0.029,-28.457,7.709,-9.259
1747601146.90,0.048,0.077,-0.003,0.249,-0.031,0.080,-28.155,7.662,-9.110
1747601146.92,-0.012,-0.010,-0.013,0.192,0.033,0.090,-27.893,7.699,-8.894
1747601146.94,0.050,-0.077,-0.055,0.203,0.034,0.092,-27.662,7.777,-8.681
1747601146.96,0.083,-0.003,-0.007,0.139,-0.017,0.075,-27.442,7.832,-8.489
1747601146.98,0.066,0.067,-0.063,0.025,-0.050,0.162,-27.326,7.844,-8.238
1747601147.00,-0.011,0.124,-0.108,-0.122,-0.028,0.232,-27.340,7.903,-7.846
1747601147.02,-0.078,0.171,-0.019,-0.212,0.141,0.155,-27.507,8.111,-7.428
1747601147.04,-0.071,0.080,-0.051,-0.201,0.159,0.019,-27.720,8.394,-7.151
1747601147.06,-0.020,-0.062,-0.131,-0.233,0.159,-0.119,-27.974,8.558,-7.040
1747601147.08,0.032,-0.067,-0.134,-0.288,0.122,-0.142,-28.286,8.664,-7.060
1747601147.10,0.055,-0.041,-0.160,-0.441,0.118,-0.081,-28.742,8.747,-7.016
1747601147.12,0.093,0.024,-0.048,-0.571,0.115,0.004,-29.322,8.922,-6.832
1747601147.14,0.119,0.054,-0.060,-0.624,0.018,0.081,-29.988,9.076,-6.538
1747601147.16,0.143,-0.003,-0.044,-0.701,-0.019,0.122,-30.720,9.211,-6.164
1747601147.18,0.109,-0.092,-0.032,-0.741,-0.025,0.136,-31.505,9.366,-5.752
1747601147.20,0.059,-0.136,-0.072,-0.797,0.037,0.116,-32.347,9.537,-5.339
1747601147.22,0.007,-0.119,-0.053,-0.872,0.025,0.064,-33.261,9.757,-4.942
1747601147.24,-0.048,-0.074,-0.059,-0.963,0.034,0.099,-34.279,9.948,-4.541
1747601147.26,-0.032,-0.025,-0.058,-0.957,0.130,0.036,-35.357,10.244,-4.127
1747601147.28,-0.094,0.033,-0.045,-0.940,0.148,-0.058,-36.419,10.552,-3.839
1747601147.30,-0.080,0.022,-0.071,-0.974,0.090,-0.063,-37.511,10.770,-3.636
1747601147.32,0.044,-0.049,-0.041,-0.978,0.024,-0.027,-38.608,10.957,-3.402
1747601147.34,0.084,-0.073,-0.042,-1.041,-0.002,-0.029,-39.744,11.139,-3.114
1747601147.36,0.005,-0.052,-0.030,-1.080,0.035,-0.059,-40.945,11.294,-2.831
1747601147.38,-0.083,-0.040,-0.009,-1.111,0.112,-0.078,-42.184,11.522,-2.601
1747601147.40,-0.064,-0.035,-0.058,-1.141,0.140,-0.102,-43.468,11.820,-2.359
1747601147.42,-0.030,-0.039,-0.052,-1.179,0.121,-0.140,-44.791,12.116,-2.180
1747601147.44,-0.007,-0.057,-0.058,-1.244,0.152,-0.160,-46.174,12.396,-2.017
1747601147.46,0.020,-0.060,-0.010,-1.273,0.133,-0.145,-47.622,12.704,-1.826
1747601147.48,0.042,-0.042,0.006,-1.257,0.196,-0.103,-49.062,13.104,-1.602
1747601147.50,0.054,-0.008,-0.017,-1.254,0.144,-0.071,-50.483,13.569,-1.302
1747601147.52,0.069,0.025,-0.015,-1.266,0.062,-0.118,-51.904,14.002,-0.980
1747601147.54,0.029,0.013,-0.026,-1.235,0.010,-0.184,-53.336,14.278,-0.749
1747601147.56,-0.013,-0.037,-0.044,-1.237,-0.026,-0.211,-54.750,14.457,-0.589
1747601147.58,-0.040,-0.055,-0.049,-1.320,-0.024,-0.215,-56.222,14.606,-0.446
1747601147.60,-0.053,-0.032,0.019,-1.317,0.086,-0.274,-57.759,14.820,-0.331
1747601147.62,-0.048,0.012,-0.003,-1.349,0.128,-0.310,-59.314,15.054,-0.306
1747601147.64,0.029,0.023,-0.018,-1.374,0.046,-0.302,-60.909,15.284,-0.270
1747601147.66,0.097,0.017,0.031,-1.334,-0.052,-0.358,-62.499,15.385,-0.283
1747601147.68,0.102,0.018,0.018,-1.364,-0.189,-0.404,-64.098,15.216,-0.458
1747601147.70,0.050,0.011,-0.001,-1.402,-0.308,-0.421,-65.756,14.793,-0.697
1747601147.72,0.015,0.003,0.030,-1.363,-0.307,-0.425,-67.410,14.313,-0.986
1747601147.74,-0.010,-0.013,-0.055,-1.349,-0.284,-0.422,-69.016,13.708,-1.371
1747601147.76,0.024,-0.051,-0.003,-1.398,-0.264,-0.439,-70.657,13.088,-1.848
1747601147.78,0.000,-0.062,0.015,-1.451,-0.248,-0.407,-72.361,12.458,-2.336
1747601147.80,-0.002,-0.057,-0.008,-1.295,-0.226,-0.375,-73.990,11.824,-2.848
1747601147.82,0.031,-0.069,-0.022,-1.361,-0.111,-0.361,-75.560,11.255,-3.379
1747601147.84,0.004,-0.073,-0.017,-1.380,-0.113,-0.386,-77.191,10.650,-3.992
1747601147.86,-0.028,-0.022,-0.032,-1.225,-0.102,-0.442,-78.743,9.574,-5.077
1747601147.88,-0.027,0.030,-0.039,-1.162,-0.220,-0.453,-80.165,7.745,-6.764
1747601147.90,-0.034,0.004,-0.026,-1.101,-0.112,-0.444,-81.506,5.261,-9.071
1747601147.92,-0.017,-0.026,0.029,-0.963,-0.107,-0.408,-82.724,2.187,-12.064
1747601147.94,-0.049,-0.014,-0.058,-0.977,0.087,-0.392,-83.806,-1.670,-15.885
1747601147.96,-0.057,-0.062,0.052,-1.132,0.398,-0.315,-84.977,-6.427,-20.978
1747601147.98,-0.098,-0.054,0.042,-1.137,0.386,-0.288,-86.227,-13.162,-28.194
1747601148.00,-0.038,0.039,0.036,-1.049,0.344,-0.364,-87.278,-26.352,-41.821
1747601148.02,0.044,0.046,0.073,-0.916,0.246,-0.356,-87.904,-50.475,-66.323
1747601148.04,0.034,0.014,0.018,-0.900,0.211,-0.369,-87.963,-81.475,-97.585
1747601148.06,-0.047,-0.051,-0.023,-0.871,0.362,-0.407,-87.434,-105.578,-122.045
1747601148.08,-0.090,-0.075,-0.009,-0.842,0.443,-0.300,-86.673,-119.590,-136.524
1747601148.10,-0.024,-0.031,0.023,-0.875,0.448,-0.189,-85.879,-129.323,-146.829
1747601148.12,0.037,0.006,-0.099,-0.629,0.257,-0.164,-85.157,-135.389,-153.279
1747601148.14,0.131,-0.004,-0.045,-0.568,0.295,-0.189,-84.526,-138.486,-156.732
1747601148.16,0.088,0.006,-0.085,-0.389,0.169,-0.230,-83.950,-140.134,-158.642
1747601148.18,0.002,0.028,-0.116,-0.236,0.114,-0.259,-83.500,-139.939,-158.609
1747601148.20,0.014,0.050,-0.095,-0.180,0.130,-0.177,-83.161,-139.436,-158.231
1747601148.22,0.023,0.055,0.022,-0.248,0.069,-0.055,-82.890,-139.708,-158.649
1747601148.24,-0.014,-0.019,0.045,-0.256,0.073,-0.010,-82.651,-140.957,-159.959
1747601148.26,-0.028,-0.066,0.082,-0.318,0.235,-0.054,-82.359,-142.197,-161.378
1747601148.28,-0.018,-0.028,0.000,-0.127,0.392,-0.069,-82.101,-142.593,-162.141
1747601148.30,-0.039,0.057,0.013,-0.027,0.209,-0.021,-82.019,-142.158,-162.093
1747601148.32,-0.112,0.008,0.024,-0.252,0.100,-0.062,-81.876,-142.557,-162.611
1747601148.34,-0.038,-0.085,0.086,-0.214,0.421,-0.119,-81.575,-142.771,-163.143
1747601148.36,0.080,-0.042,0.104,-0.104,0.361,-0.044,-81.369,-142.577,-163.448
1747601148.38,0.019,0.033,-0.018,0.028,-0.133,-0.069,-81.318,-142.279,-163.286
1747601148.40,-0.033,0.016,0.001,-0.045,-0.274,-0.083,-81.261,-141.992,-162.719
1747601148.42,0.063,-0.038,0.005,-0.059,-0.189,-0.021,-81.156,-142.337,-162.794
1747601148.44,0.085,-0.002,0.000,0.090,-0.192,-0.035,-81.166,-142.279,-162.528
1747601148.46,-0.004,0.049,0.009,0.078,-0.291,-0.021,-81.221,-141.948,-161.921
1747601148.48,-0.085,0.025,-0.002,0.004,-0.117,-0.004,-81.261,-141.973,-161.677
1747601148.50,-0.099,-0.040,0.050,0.046,0.109,0.023,-81.276,-142.024,-161.734
1747601148.52,-0.048,-0.026,0.021,0.055,0.168,0.013,-81.354,-141.801,-161.673
1747601148.54,-0.037,0.018,0.018,0.092,0.108,0.020,-81.433,-141.341,-161.375
1747601148.56,-0.063,-0.021,0.035,0.043,0.126,0.077,-81.519,-141.162,-161.323
1747601148.58,-0.026,-0.023,-0.017,0.096,0.181,0.068,-81.605,-141.050,-161.380
1747601148.60,0.044,0.029,-0.015,0.132,0.162,0.044,-81.704,-140.594,-161.137
1747601148.62,0.013,0.029,-0.010,0.135,0.010,0.034,-81.844,-139.981,-160.614
1747601148.64,-0.042,-0.024,0.017,0.080,0.020,0.047,-81.925,-139.648,-160.281
1747601148.66,-0.039,-0.051,0.045,0.074,0.091,0.035,-82.001,-139.351,-160.060
1747601148.68,-0.001,0.002,0.022,0.098,0.057,0.007,-82.111,-138.977,-159.760
1747601148.70,0.012,0.017,0.018,0.105,0.013,0.038,-82.241,-138.562,-159.384
1747601148.72,-0.042,-0.002,-0.002,0.093,0.016,0.045,-82.325,-138.189,-159.008
1747601148.74,-0.016,-0.024,0.008,0.076,0.102,0.080,-82.352,-138.134,-159.033
1747601148.76,-0.002,-0.003,-0.005,0.054,0.085,0.043,-82.412,-138.243,-159.250
1747601148.78,-0.004,0.020,-0.003,0.096,0.006,0.027,-82.471,-138.326,-159.385
1747601148.79,0.016,0.002,0.009,0.135,-0.022,0.014,-82.539,-137.696,-158.749
1747601148.81,0.061,-0.010,-0.019,0.216,-0.146,0.003,-82.659,-136.522,-157.479
1747601148.83,0.064,-0.002,-0.036,0.209,-0.312,0.006,-82.831,-135.507,-156.185
1747601148.85,0.027,0.009,-0.007,0.266,-0.367,0.042,-83.041,-134.486,-154.771
1747601148.87,-0.045,-0.017,0.018,0.260,-0.292,0.074,-83.288,-133.675,-153.544
1747601148.89,-0.053,-0.026,0.055,0.308,-0.106,0.064,-83.585,-132.470,-152.111
1747601148.91,-0.055,0.007,0.042,0.286,-0.165,0.066,-83.879,-130.767,-150.249
1747601148.93,-0.065,0.012,0.036,0.312,-0.143,0.106,-84.167,-129.086,-148.374
1747601148.95,-0.043,-0.014,0.027,0.334,-0.016,0.139,-84.508,-127.158,-146.347
1747601148.97,-0.033,-0.020,0.047,0.378,0.053,0.123,-84.869,-124.508,-143.721
1747601148.99,-0.038,0.002,0.040,0.400,-0.019,0.130,-85.229,-121.052,-140.272
1747601149.01,-0.041,-0.009,0.045,0.417,-0.079,0.170,-85.610,-116.994,-136.143
1747601149.03,-0.033,-0.017,0.024,0.392,-0.093,0.187,-85.990,-112.656,-131.698
1747601149.05,-0.000,-0.015,0.001,0.442,-0.103,0.178,-86.350,-107.267,-126.171
1747601149.07,0.022,-0.022,0.030,0.561,-0.198,0.173,-86.672,-99.112,-117.855
1747601149.09,0.002,0.033,-0.040,0.702,-0.393,0.177,-86.916,-86.608,-104.981
1747601149.11,-0.032,0.082,0.007,0.723,-0.516,0.178,-86.955,-71.281,-89.098
1747601149.13,-0.042,0.012,0.055,0.775,-0.300,0.163,-86.762,-56.188,-73.505
1747601149.15,-0.045,-0.036,0.035,0.782,-0.186,0.108,-86.299,-43.564,-60.592
1747601149.17,-0.055,-0.049,0.013,0.838,-0.137,0.138,-85.658,-34.071,-50.890
1747601149.19,-0.009,-0.006,-0.016,0.858,0.077,0.192,-84.910,-26.142,-42.886
1747601149.21,-0.001,0.015,0.010,0.846,0.155,0.237,-84.100,-19.732,-36.600
1747601149.23,-0.002,-0.013,-0.006,0.906,0.225,0.290,-83.251,-14.289,-31.513
1747601149.25,-0.027,-0.015,-0.055,0.871,0.253,0.303,-82.300,-9.661,-27.261
1747601149.27,-0.043,-0.022,0.051,0.839,0.315,0.254,-81.395,-6.194,-24.275
1747601149.29,-0.004,-0.036,-0.042,0.955,0.244,0.275,-80.389,-3.491,-22.025
1747601149.31,0.011,-0.028,-0.006,0.888,0.250,0.347,-79.337,-0.961,-19.903
1747601149.33,-0.031,-0.021,0.019,0.861,0.347,0.353,-78.345,1.352,-18.047
1747601149.35,0.015,-0.031,-0.058,0.778,0.417,0.426,-77.388,3.684,-16.255
1747601149.37,0.055,-0.021,-0.039,0.967,0.322,0.349,-76.395,5.746,-14.766
1747601149.39,0.054,0.013,-0.075,1.148,0.085,0.224,-75.111,6.710,-14.122
1747601149.41,0.040,0.011,0.022,1.064,0.238,0.153,-73.823,7.028,-14.121
1747601149.43,-0.022,-0.048,-0.041,0.863,0.203,0.266,-72.700,7.597,-13.947
1747601149.45,-0.060,-0.073,0.043,0.668,0.452,0.351,-71.809,8.705,-13.219
1747601149.47,0.003,-0.033,0.104,0.862,0.404,0.307,-70.889,9.937,-12.502
1747601149.49,0.085,0.048,0.019,0.986,0.090,0.257,-69.791,10.634,-12.064
1747601149.51,0.101,0.073,-0.001,1.107,-0.094,0.171,-68.547,10.621,-12.045
1747601149.53,-0.002,0.012,-0.013,0.786,0.028,0.169,-67.431,10.507,-12.103
1747601149.55,-0.041,-0.075,0.087,0.635,0.124,0.330,-66.624,10.931,-11.754
1747601149.57,0.107,-0.023,0.077,0.875,0.043,0.337,-65.730,11.566,-11.189
1747601149.59,0.128,0.070,-0.055,1.142,-0.402,0.272,-64.503,11.601,-10.935
1747601149.61,-0.025,0.071,-0.073,1.085,-0.313,0.156,-63.197,11.091,-10.962
1747601149.63,-0.124,-0.015,-0.002,0.806,0.189,0.044,-62.109,10.828,-11.196
1747601149.65,-0.155,-0.090,0.081,0.648,0.218,0.262,-61.278,11.091,-11.221
1747601149.67,0.016,-0.047,0.071,0.781,-0.024,0.359,-60.416,11.612,-10.750
1747601149.69,0.179,0.099,-0.044,0.994,-0.272,0.177,-59.337,11.603,-10.551
1747601149.71,0.046,0.126,-0.061,1.001,-0.270,0.022,-58.185,11.025,-10.816
1747601149.73,-0.082,-0.005,0.031,0.812,0.040,0.044,-57.141,10.637,-11.128
1747601149.75,-0.087,-0.120,0.005,0.514,0.108,0.238,-56.377,10.723,-11.147
1747601149.77,0.044,-0.125,0.043,0.524,0.037,0.338,-55.770,11.189,-10.704
1747601149.79,0.066,0.085,0.022,0.798,-0.154,0.255,-54.960,11.407,-10.365
1747601149.81,-0.060,0.207,-0.027,0.916,-0.150,0.112,-53.924,11.209,-10.360
1747601149.83,-0.095,0.091,0.034,0.851,0.083,0.089,-52.898,11.055,-10.521
1747601149.85,-0.076,-0.095,0.003,0.552,0.162,0.161,-52.087,11.154,-10.558
1747601149.87,0.013,-0.196,-0.012,0.440,0.189,0.272,-51.516,11.545,-10.337
1747601149.89,0.042,-0.084,-0.021,0.588,0.062,0.294,-50.879,11.977,-9.999
1747601149.91,0.006,0.097,-0.054,0.738,-0.025,0.177,-50.074,12.115,-9.817
1747601149.93,-0.006,0.119,0.019,0.778,-0.082,0.091,-49.189,12.001,-9.896
1747601149.95,0.032,-0.011,-0.049,0.666,-0.112,0.104,-48.343,11.816,-9.999
1747601149.97,0.031,-0.069,-0.070,0.576,-0.127,0.160,-47.629,11.674,-9.992
1747601149.99,0.025,0.000,0.023,0.646,-0.099,0.188,-46.913,11.606,-9.907
1747601150.01,-0.028,0.045,0.037,0.765,-0.157,0.195,-46.080,11.525,-9.828
1747601150.03,0.004,-0.004,0.056,0.802,-0.222,0.170,-45.143,11.342,-9.781
1747601150.05,0.092,-0.035,-0.036,0.680,-0.213,0.107,-44.280,11.079,-9.809
1747601150.07,0.077,-0.053,-0.059,0.548,-0.176,0.204,-43.561,10.858,-9.771
1747601150.09,0.039,-0.028,0.013,0.552,-0.114,0.290,-42.903,10.873,-9.533
1747601150.11,-0.029,0.075,0.019,0.609,-0.211,0.241,-42.200,10.857,-9.283
1747601150.13,0.032,0.083,0.026,0.773,-0.389,0.160,-41.379,10.579,-9.182
1747601150.15,0.049,0.018,0.043,0.781,-0.324,0.057,-40.464,10.124,-9.236
1747601150.17,-0.072,-0.084,-0.090,0.591,-0.227,0.175,-39.672,9.766,-9.284
1747601150.19,-0.106,-0.106,0.021,0.517,-0.007,0.293,-39.025,9.782,-9.040
1747601150.21,0.034,0.095,0.079,0.663,-0.023,0.143,-38.323,9.928,-8.865
1747601150.23,0.054,0.147,0.065,0.825,-0.351,0.155,-37.453,9.703,-8.851
1747601150.25,0.059,0.025,0.023,0.811,-0.278,0.115,-36.493,9.328,-8.840
1747601150.27,-0.041,-0.083,-0.110,0.618,-0.145,0.156,-35.649,9.090,-8.844
1747601150.29,-0.123,-0.111,-0.047,0.558,0.023,0.211,-34.972,9.112,-8.687
1747601150.31,0.003,0.016,0.057,0.653,-0.063,0.160,-34.263,9.199,-8.571
1747601150.33,0.073,0.056,0.020,0.757,-0.223,0.173,-33.436,9.065,-8.497
1747601150.35,0.014,0.007,0.019,0.836,-0.130,0.155,-32.497,8.866,-8.357
1747601150.37,-0.051,-0.058,-0.078,0.749,0.105,0.063,-31.569,8.852,-8.212
1747601150.39,-0.067,-0.092,-0.193,0.549,0.143,0.076,-30.823,8.979,-8.099
1747601150.41,0.003,-0.048,-0.027,0.456,0.028,0.175,-30.261,9.111,-7.861
1747601150.43,0.112,0.125,0.099,0.543,-0.082,0.228,-29.657,9.153,-7.536
1747601150.45,-0.023,0.159,0.043,0.535,0.061,0.269,-29.005,9.231,-7.151
1747601150.47,-0.096,0.015,-0.082,0.376,0.198,0.215,-28.433,9.515,-6.728
1747601150.49,0.056,-0.079,-0.207,0.262,0.040,0.152,-28.038,9.758,-6.385
1747601150.51,0.130,-0.017,-0.007,0.315,-0.155,0.126,-27.712,9.733,-6.115
1747601150.53,0.020,0.174,0.193,0.357,-0.238,0.157,-27.298,9.549,-5.806
1747601150.55,-0.193,0.150,0.005,0.337,0.055,0.181,-26.871,9.475,-5.481
1747601150.57,-0.199,-0.017,-0.078,0.400,0.268,0.019,-26.448,9.721,-5.230
1747601150.59,-0.085,-0.031,-0.046,0.421,0.133,-0.119,-25.982,9.902,-5.190
1747601150.61,0.095,-0.085,-0.104,0.349,0.003,-0.140,-25.568,9.860,-5.265
1747601150.63,0.052,0.002,-0.024,0.356,0.029,-0.093,-25.210,9.754,-5.293
1747601150.65,0.040,0.090,0.060,0.371,0.094,-0.045,-24.810,9.784,-5.277
1747601150.67,0.112,-0.002,-0.027,0.357,0.033,0.021,-24.393,9.812,-5.196
1747601150.69,0.146,-0.038,-0.039,0.252,-0.029,0.040,-24.042,9.807,-5.021
1747601150.71,0.059,-0.023,-0.055,0.179,-0.022,0.080,-23.792,9.795,-4.815
1747601150.73,0.049,-0.020,-0.072,0.107,-0.044,0.062,-23.612,9.773,-4.567
1747601150.75,0.050,0.048,-0.095,0.040,-0.090,0.078,-23.510,9.731,-4.309
1747601150.77,0.010,0.045,-0.067,-0.012,-0.080,0.028,-23.492,9.659,-4.054
1747601150.79,-0.016,-0.003,-0.093,-0.033,-0.094,-0.036,-23.511,9.573,-3.857
1747601150.81,0.018,-0.029,-0.083,-0.107,-0.094,-0.050,-23.582,9.449,-3.801
1747601150.83,0.050,0.013,-0.101,-0.247,-0.127,0.033,-23.785,9.329,-3.576
1747601150.85,0.024,0.081,-0.055,-0.331,-0.012,0.063,-24.101,9.316,-3.258
1747601150.87,0.021,0.054,-0.098,-0.385,0.047,0.032,-24.476,9.388,-2.944
1747601150.89,0.025,-0.005,-0.115,-0.451,0.024,0.011,-24.945,9.476,-2.653
1747601150.91,0.047,-0.017,-0.092,-0.575,-0.009,-0.011,-25.517,9.546,-2.374
1747601150.93,0.022,0.024,-0.102,-0.614,-0.039,-0.038,-26.190,9.541,-2.134
1747601150.95,-0.031,0.009,-0.055,-0.688,0.050,-0.076,-26.937,9.563,-1.991
1747601150.97,-0.094,-0.022,-0.071,-0.826,0.109,-0.100,-27.795,9.688,-1.870
1747601150.99,-0.004,-0.031,-0.069,-0.926,0.103,-0.040,-28.804,9.860,-1.630
1747601151.01,0.114,-0.008,-0.048,-0.929,0.002,-0.045,-29.862,10.009,-1.347
1747601151.03,0.070,-0.022,-0.055,-0.912,-0.059,-0.115,-30.911,10.025,-1.127
1747601151.05,-0.033,-0.089,-0.067,-0.950,-0.013,-0.189,-31.981,9.978,-1.011
1747601151.07,-0.081,-0.162,-0.044,-1.008,0.051,-0.143,-33.117,10.003,-0.904
1747601151.09,-0.043,-0.175,-0.075,-1.057,0.178,-0.124,-34.310,10.174,-0.718
1747601151.11,-0.027,-0.131,-0.074,-1.106,0.244,-0.170,-35.552,10.460,-0.575
1747601151.13,-0.024,-0.097,-0.026,-1.165,0.198,-0.197,-36.870,10.744,-0.475
1747601151.15,-0.004,-0.075,-0.052,-1.254,0.129,-0.177,-38.264,10.966,-0.371
1747601151.17,0.081,-0.038,-0.014,-1.277,0.116,-0.147,-39.727,11.183,-0.201
1747601151.19,0.104,-0.015,-0.005,-1.250,0.058,-0.151,-41.180,11.382,-0.026
1747601151.21,0.033,-0.005,-0.062,-1.223,-0.006,-0.166,-42.591,11.503,0.122
1747601151.23,-0.052,-0.012,-0.022,-1.221,0.076,-0.210,-44.012,11.602,0.233
1747601151.25,-0.085,-0.029,-0.032,-1.277,0.116,-0.214,-45.450,11.751,0.284
1747601151.27,-0.013,-0.054,-0.023,-1.282,0.225,-0.163,-46.927,12.040,0.410
1747601151.29,0.050,-0.068,-0.015,-1.300,0.207,-0.159,-48.397,12.451,0.515
1747601151.31,0.051,-0.040,-0.035,-1.361,0.130,-0.152,-49.923,12.831,0.663
1747601151.33,0.036,-0.035,-0.015,-1.388,0.105,-0.133,-51.494,13.197,0.884
1747601151.35,0.041,-0.023,-0.016,-1.421,0.045,-0.100,-53.081,13.596,1.181
1747601151.37,0.046,0.001,-0.029,-1.388,-0.008,-0.176,-54.677,13.962,1.492
1747601151.39,0.009,0.019,-0.045,-1.356,-0.113,-0.307,-56.270,14.052,1.585
1747601151.41,-0.050,-0.000,-0.036,-1.402,-0.113,-0.327,-57.873,13.930,1.511
1747601151.43,-0.041,-0.027,0.005,-1.476,-0.099,-0.315,-59.564,13.902,1.472
1747601151.45,-0.002,-0.034,-0.010,-1.421,-0.101,-0.369,-61.273,13.809,1.367
1747601151.47,0.032,-0.037,-0.017,-1.336,-0.075,-0.426,-62.907,13.594,1.080
1747601151.49,-0.020,-0.015,-0.053,-1.403,-0.120,-0.486,-64.533,13.165,0.598
1747601151.51,-0.061,0.003,0.018,-1.466,-0.017,-0.494,-66.276,12.675,-0.001
1747601151.53,-0.028,-0.008,0.035,-1.447,0.056,-0.445,-68.013,12.319,-0.584
1747601151.55,0.010,-0.052,0.033,-1.395,0.049,-0.404,-69.706,12.042,-1.097
1747601151.57,0.048,-0.103,-0.040,-1.311,-0.017,-0.403,-71.326,11.705,-1.652
1747601151.59,0.089,-0.079,-0.099,-1.314,-0.129,-0.424,-72.855,11.123,-2.354
1747601151.61,0.044,-0.026,-0.019,-1.358,-0.063,-0.445,-74.465,10.274,-3.276
1747601151.63,0.051,-0.016,0.005,-1.352,0.027,-0.361,-76.075,9.550,-4.021
1747601151.65,0.044,-0.018,-0.004,-1.329,-0.082,-0.382,-77.642,8.830,-4.740
1747601151.67,0.045,-0.055,-0.020,-1.276,-0.175,-0.398,-79.195,7.545,-5.899
1747601151.69,0.065,-0.033,-0.049,-1.135,-0.371,-0.372,-80.598,5.687,-7.477
1747601151.71,-0.058,0.048,-0.069,-1.084,-0.291,-0.441,-81.907,2.932,-9.827
1747601151.73,-0.133,0.037,0.027,-1.041,0.179,-0.465,-83.113,-1.041,-13.765
1747601151.75,-0.143,-0.066,0.077,-1.028,0.271,-0.400,-84.259,-5.859,-18.928
1747601151.77,-0.078,-0.109,0.023,-1.124,0.356,-0.282,-85.416,-11.867,-25.267
1747601151.79,0.076,-0.042,0.120,-1.002,0.435,-0.261,-86.524,-20.290,-34.223
1747601151.81,0.043,0.061,-0.013,-0.807,0.131,-0.309,-87.288,-33.947,-48.201
1747601151.83,-0.017,0.084,0.011,-0.802,0.479,-0.339,-87.690,-54.585,-69.166
1747601151.85,-0.053,-0.001,0.094,-0.884,0.501,-0.337,-87.696,-79.528,-94.728
1747601151.87,-0.086,-0.086,0.085,-0.849,0.424,-0.259,-87.330,-102.391,-118.153
1747601151.88,-0.045,-0.081,0.005,-0.680,0.344,-0.236,-86.785,-115.953,-132.145
1747601151.91,-0.007,0.023,0.005,-0.571,0.439,-0.263,-86.180,-123.480,-140.128
1747601151.93,0.036,0.050,-0.044,-0.454,0.387,-0.236,-85.602,-127.247,-144.390
1747601151.94,0.054,0.044,-0.069,-0.337,0.336,-0.083,-85.171,-129.786,-147.363
1747601151.96,0.076,0.000,-0.070,-0.248,0.101,-0.006,-84.931,-132.102,-149.942
1747601151.98,0.038,-0.036,0.026,-0.151,-0.094,-0.062,-84.751,-133.743,-151.596
1747601152.00,0.014,-0.060,-0.028,-0.068,-0.133,-0.119,-84.585,-134.038,-151.744
1747601152.02,0.010,0.005,-0.089,0.064,-0.129,-0.074,-84.495,-133.307,-150.852
1747601152.04,-0.002,0.057,-0.047,0.056,-0.091,0.003,-84.525,-132.570,-150.001
1747601152.06,-0.039,0.025,0.005,-0.025,-0.182,0.002,-84.533,-132.803,-150.085
1747601152.08,-0.064,-0.027,-0.005,-0.005,-0.114,-0.039,-84.508,-132.888,-149.977
1747601152.10,-0.028,-0.030,0.013,-0.028,0.081,-0.016,-84.505,-132.564,-149.637
1747601152.12,-0.018,0.007,0.036,-0.077,0.023,0.015,-84.503,-132.563,-149.731
1747601152.14,-0.040,0.018,0.020,-0.112,-0.001,-0.066,-84.405,-133.152,-150.317
1747601152.16,0.004,-0.000,0.040,-0.047,0.028,-0.097,-84.244,-132.927,-150.109
1747601152.18,0.036,-0.012,0.035,0.024,-0.057,-0.060,-84.153,-132.255,-149.437
1747601152.20,-0.036,0.007,0.035,-0.040,-0.164,-0.025,-84.076,-132.323,-149.364
1747601152.22,-0.073,-0.028,0.018,-0.022,-0.080,-0.008,-84.012,-132.598,-149.486
1747601152.24,0.001,-0.024,-0.019,-0.045,0.052,-0.035,-83.934,-133.012,-149.894
1747601152.26,0.057,0.006,-0.016,0.056,0.075,-0.028,-83.909,-132.953,-149.912
1747601152.28,0.028,0.037,-0.009,0.083,-0.010,0.038,-83.955,-132.460,-149.456
1747601152.30,-0.056,0.008,-0.013,0.085,0.036,0.018,-84.010,-131.934,-148.918
1747601152.32,-0.046,-0.026,0.032,0.027,0.278,0.024,-84.070,-131.356,-148.519
1747601152.34,-0.016,-0.025,0.019,0.002,0.324,-0.007,-84.104,-131.038,-148.568
1747601152.36,-0.009,0.009,0.017,0.029,0.221,0.014,-84.134,-130.639,-148.495
1747601152.38,0.010,0.014,0.011,0.038,0.046,0.029,-84.169,-130.272,-148.270
1747601152.40,0.042,-0.017,-0.008,0.071,0.015,0.010,-84.192,-129.809,-147.829
1747601152.42,0.058,-0.019,0.018,0.122,-0.039,-0.015,-84.235,-129.046,-147.055
1747601152.44,0.007,0.002,0.031,0.183,-0.144,0.011,-84.322,-127.879,-145.774
1747601152.46,-0.070,0.014,0.039,0.225,-0.141,0.032,-84.485,-126.409,-144.114
1747601152.48,-0.107,0.007,0.035,0.246,-0.011,0.007,-84.669,-124.436,-142.039
1747601152.50,-0.102,-0.008,0.031,0.273,0.119,-0.019,-84.827,-121.798,-139.462
1747601152.52,-0.068,0.003,0.024,0.324,0.175,-0.014,-84.982,-118.286,-136.111
1747601152.54,-0.062,0.014,0.027,0.250,0.166,0.030,-85.119,-114.787,-132.795
1747601152.56,-0.028,-0.023,0.003,0.246,0.183,0.074,-85.261,-111.904,-130.104
1747601152.58,0.038,0.000,0.026,0.272,0.040,0.093,-85.438,-108.759,-127.107
1747601152.60,0.065,0.013,0.032,0.306,-0.225,0.076,-85.628,-105.267,-123.494
1747601152.62,0.062,-0.023,0.034,0.356,-0.361,0.070,-85.798,-100.936,-118.798
1747601152.64,0.040,-0.032,0.034,0.509,-0.469,0.079,-85.950,-94.863,-112.237
1747601152.66,0.026,0.009,-0.009,0.543,-0.514,0.134,-86.071,-86.556,-103.346
1747601152.68,0.018,0.034,0.019,0.484,-0.689,0.198,-86.193,-78.209,-94.296
1747601152.70,-0.039,-0.004,0.058,0.513,-0.592,0.183,-86.251,-69.850,-85.159
1747601152.72,-0.051,-0.037,0.100,0.617,-0.562,0.173,-86.173,-60.544,-75.187
1747601152.74,-0.075,-0.001,0.006,0.719,-0.484,0.157,-85.884,-50.320,-64.323
1747601152.76,-0.063,0.041,-0.010,0.781,-0.456,0.166,-85.426,-41.163,-54.613
1747601152.78,-0.068,0.031,-0.050,0.826,-0.374,0.154,-84.783,-33.399,-46.327
1747601152.80,-0.062,-0.040,0.021,0.762,-0.147,0.251,-84.120,-27.002,-39.608
1747601152.82,-0.072,-0.073,-0.028,0.820,-0.024,0.319,-83.423,-20.938,-33.411
1747601152.84,-0.024,-0.014,-0.051,0.809,0.108,0.320,-82.650,-15.615,-28.303
1747601152.86,0.072,-0.002,0.014,0.949,0.232,0.355,-81.789,-11.036,-24.093
1747601152.88,0.089,-0.020,-0.042,1.143,0.128,0.353,-80.640,-6.972,-20.394
1747601152.90,-0.023,0.006,-0.059,1.058,0.179,0.314,-79.411,-3.928,-17.672
1747601152.92,-0.151,-0.039,-0.025,0.921,0.323,0.240,-78.300,-1.774,-15.960
1747601152.94,-0.122,-0.099,-0.041,0.861,0.545,0.296,-77.302,0.160,-14.658
1747601152.96,0.085,-0.083,-0.003,0.999,0.539,0.391,-76.234,2.365,-13.254
1747601152.98,0.205,0.043,0.010,0.987,0.490,0.391,-75.059,4.488,-12.009
1747601153.00,0.085,0.054,0.059,0.903,0.340,0.266,-73.945,5.958,-11.142
1747601153.02,-0.081,-0.021,0.055,0.783,0.498,0.231,-72.958,6.990,-10.701
1747601153.04,-0.086,-0.034,0.065,0.890,0.333,0.207,-71.999,7.894,-10.462
1747601153.06,0.042,0.045,-0.025,1.030,0.219,0.164,-70.876,8.373,-10.398
1747601153.08,0.112,0.099,0.075,1.131,0.407,0.054,-69.618,8.541,-10.762
1747601153.10,-0.048,0.016,0.090,0.874,0.222,0.074,-68.461,8.604,-11.244
1747601153.12,-0.190,-0.089,-0.011,0.696,0.252,0.194,-67.570,8.906,-11.335
1747601153.14,-0.009,-0.051,0.008,0.828,0.242,0.097,-66.723,9.367,-11.339
1747601153.16,0.117,0.081,-0.020,1.108,0.011,-0.011,-65.597,9.151,-11.872
1747601153.18,0.100,0.119,-0.016,1.132,0.258,0.007,-64.310,8.840,-12.422
1747601153.20,0.023,0.033,0.025,0.903,0.481,0.028,-63.141,8.900,-12.857
1747601153.22,0.020,-0.146,0.062,0.519,0.289,0.359,-62.310,9.544,-12.669
1747601153.24,0.192,-0.153,-0.025,0.495,-0.066,0.477,-61.697,10.456,-11.786
1747601153.26,0.266,0.008,-0.028,0.865,-0.529,0.311,-60.854,10.684,-11.136
1747601153.28,0.023,0.110,-0.128,0.991,-0.543,0.095,-59.722,10.061,-11.067
1747601153.30,-0.193,0.112,-0.027,0.910,-0.102,-0.074,-58.657,9.391,-11.428
1747601153.32,-0.240,-0.016,0.044,0.733,0.098,0.117,-57.712,9.149,-11.731
1747601153.34,0.022,-0.130,0.038,0.534,0.106,0.353,-56.969,9.564,-11.418
1747601153.36,0.191,-0.095,-0.003,0.621,-0.114,0.356,-56.261,10.017,-10.874
1747601153.38,0.094,0.019,-0.014,0.808,-0.278,0.267,-55.392,10.093,-10.496
1747601153.40,-0.040,0.101,-0.014,0.841,-0.076,0.084,-54.408,9.907,-10.427
1747601153.42,-0.085,0.115,0.040,0.659,-0.023,-0.011,-53.565,9.696,-10.657
1747601153.44,-0.040,-0.007,0.026,0.603,-0.021,0.193,-52.861,9.625,-10.697
1747601153.46,0.088,-0.048,0.061,0.668,-0.046,0.259,-52.095,9.788,-10.456
1747601153.48,0.082,0.049,0.025,0.701,-0.078,0.206,-51.276,9.889,-10.226
1747601153.50,0.011,0.134,0.014,0.718,-0.042,0.085,-50.449,9.835,-10.198
1747601153.52,-0.028,0.085,-0.024,0.679,-0.054,0.085,-49.637,9.728,-10.278
1747601153.54,-0.034,-0.028,-0.059,0.669,-0.075,0.121,-48.863,9.642,-10.292
1747601153.56,-0.068,-0.076,-0.023,0.734,-0.071,0.085,-48.057,9.540,-10.310
1747601153.58,-0.051,-0.035,0.048,0.807,0.069,0.020,-47.184,9.435,-10.437
1747601153.60,0.022,-0.029,-0.045,0.710,0.156,-0.030,-46.299,9.405,-10.665
1747601153.62,-0.015,-0.084,-0.069,0.640,0.080,0.028,-45.543,9.405,-10.867
1747601153.64,-0.020,-0.071,0.019,0.617,0.120,0.117,-44.833,9.515,-10.898
1747601153.66,0.002,0.058,0.018,0.672,-0.025,0.142,-44.080,9.594,-10.868
1747601153.68,0.071,0.097,0.049,0.783,-0.121,0.136,-43.236,9.501,-10.839
1747601153.70,0.091,0.026,0.008,0.803,-0.169,0.086,-42.293,9.332,-10.873
1747601153.72,-0.010,-0.078,-0.102,0.620,-0.176,0.135,-41.481,9.081,-10.891
1747601153.75,-0.083,-0.096,0.045,0.620,0.011,0.166,-40.756,9.069,-10.802
1747601153.76,-0.059,0.038,0.020,0.627,-0.078,0.142,-40.033,9.110,-10.718
1747601153.78,0.027,0.099,0.003,0.709,-0.281,0.151,-39.250,8.948,-10.655
1747601153.80,0.086,0.079,-0.040,0.741,-0.347,0.114,-38.403,8.585,-10.627
1747601153.82,-0.042,-0.035,-0.025,0.632,-0.148,0.131,-37.595,8.299,-10.610
1747601153.84,-0.163,-0.113,-0.085,0.493,0.019,0.215,-36.946,8.285,-10.481
1747601153.86,-0.166,-0.094,-0.038,0.532,0.121,0.131,-36.345,8.494,-10.313
1747601153.88,-0.065,0.011,-0.029,0.620,0.011,-0.069,-35.688,8.535,-10.392
1747601153.90,-0.020,0.039,-0.038,0.695,-0.156,-0.142,-34.953,8.258,-10.653
1747601153.92,0.012,-0.009,-0.057,0.616,-0.190,-0.132,-34.237,7.861,-10.907
1747601153.94,-0.006,0.023,-0.025,0.560,-0.111,-0.023,-33.580,7.551,-11.029
1747601153.96,0.004,0.087,-0.021,0.495,-0.089,0.062,-32.971,7.399,-11.006
1747601153.98,0.082,0.064,0.003,0.551,-0.100,0.108,-32.377,7.322,-10.880
1747601154.00,0.134,-0.012,0.019,0.567,-0.141,0.118,-31.728,7.208,-10.712
1747601154.02,0.090,-0.093,0.045,0.551,-0.071,0.144,-31.068,7.125,-10.528
1747601154.04,0.077,-0.101,-0.072,0.468,0.004,0.188,-30.461,7.157,-10.292
1747601154.06,0.022,-0.025,-0.056,0.361,0.065,0.288,-29.968,7.324,-9.927
1747601154.08,0.028,0.061,0.018,0.384,0.043,0.300,-29.503,7.571,-9.486
1747601154.10,0.062,0.057,0.015,0.362,-0.135,0.332,-29.040,7.693,-9.003
1747601154.12,0.049,0.028,-0.006,0.361,-0.072,0.269,-28.582,7.719,-8.544
1747601154.14,-0.050,-0.009,-0.088,0.276,0.065,0.200,-28.175,7.827,-8.181
1747601154.16,-0.156,-0.031,-0.069,0.173,0.187,0.219,-27.890,8.084,-7.796
1747601154.18,-0.038,0.057,0.021,0.184,0.145,0.157,-27.669,8.394,-7.441
1747601154.20,-0.013,0.124,0.019,0.203,-0.042,0.115,-27.416,8.514,-7.160
1747601154.22,0.024,0.037,-0.065,0.176,-0.014,0.066,-27.180,8.493,-6.951
1747601154.24,-0.020,0.004,-0.107,0.082,-0.045,0.097,-27.028,8.512,-6.761
1747601154.26,-0.049,-0.010,-0.098,0.052,-0.006,0.163,-26.935,8.549,-6.447
1747601154.28,0.020,0.012,0.028,0.101,0.062,0.141,-26.826,8.665,-6.138
1747601154.30,0.018,-0.034,0.020,0.131,0.042,0.115,-26.679,8.784,-5.864
1747601154.32,-0.029,-0.060,0.004,0.153,0.095,0.102,-26.482,8.916,-5.597
1747601154.34,0.037,0.017,-0.044,0.180,0.009,0.056,-26.272,8.992,-5.402
1747601154.36,0.056,0.026,-0.063,0.125,-0.043,0.019,-26.094,8.966,-5.244
1747601154.38,-0.010,-0.053,-0.044,0.120,0.052,0.029,-25.961,8.993,-5.090
1747601154.40,-0.035,-0.008,-0.036,0.098,0.072,0.032,-25.818,9.066,-4.937
1747601154.42,-0.005,0.023,0.022,0.171,0.083,-0.002,-25.661,9.153,-4.806
1747601154.44,0.008,-0.021,0.029,0.156,-0.003,-0.041,-25.471,9.203,-4.728
1747601154.46,0.013,-0.048,-0.052,0.076,0.065,-0.082,-25.316,9.181,-4.712
1747601154.48,0.057,0.005,-0.092,0.019,0.000,-0.041,-25.251,9.167,-4.674
1747601154.50,0.072,0.047,-0.052,-0.040,-0.048,-0.022,-25.275,9.125,-4.614
1747601154.52,0.080,-0.000,-0.037,-0.137,-0.055,-0.008,-25.377,9.056,-4.511
1747601154.54,0.068,-0.011,-0.048,-0.213,-0.100,0.024,-25.550,9.002,-4.374
1747601154.56,0.078,0.054,-0.095,-0.212,-0.141,0.052,-25.770,8.892,-4.167
1747601154.58,0.030,0.073,-0.068,-0.299,-0.075,0.032,-26.038,8.832,-3.925
1747601154.60,-0.032,0.008,-0.152,-0.454,0.085,0.005,-26.454,8.888,-3.706
1747601154.62,-0.025,-0.017,-0.080,-0.521,0.060,-0.051,-27.013,9.030,-3.501
1747601154.64,0.010,0.027,-0.049,-0.514,-0.039,-0.105,-27.611,9.048,-3.371
1747601154.66,0.040,0.044,-0.076,-0.635,-0.080,-0.111,-28.262,8.952,-3.212
1747601154.68,0.018,0.011,-0.127,-0.772,-0.025,-0.037,-29.078,8.905,-3.087
1747601154.70,0.017,0.008,-0.077,-0.853,0.043,-0.037,-30.014,8.989,-2.874
1747601154.72,0.007,0.017,-0.045,-0.838,0.039,-0.091,-30.980,9.079,-2.725
1747601154.74,0.017,-0.033,-0.050,-0.888,-0.015,-0.089,-31.970,9.118,-2.620
1747601154.76,0.027,-0.102,-0.063,-0.900,0.007,-0.046,-32.990,9.168,-2.467
1747601154.78,0.045,-0.105,-0.058,-0.960,0.044,-0.006,-34.047,9.283,-2.246
1747601154.80,0.046,-0.058,-0.034,-1.032,0.062,-0.062,-35.170,9.478,-2.024
1747601154.82,-0.014,-0.030,-0.044,-1.067,0.007,-0.074,-36.371,9.584,-1.856
1747601154.84,-0.034,-0.070,-0.070,-1.067,-0.026,-0.095,-37.587,9.663,-1.710
1747601154.86,-0.005,-0.140,-0.090,-1.115,-0.008,-0.083,-38.828,9.709,-1.554
1747601154.88,0.063,-0.146,-0.045,-1.104,-0.012,-0.116,-40.088,9.801,-1.418
1747601154.90,0.030,-0.102,-0.035,-1.150,0.002,-0.158,-41.388,9.841,-1.337
1747601154.92,-0.008,-0.060,0.026,-1.202,0.014,-0.110,-42.740,9.924,-1.251
1747601154.94,0.004,-0.036,-0.052,-1.253,0.045,-0.026,-44.123,10.109,-1.030
1747601154.96,0.013,-0.042,-0.036,-1.286,0.126,-0.039,-45.561,10.444,-0.729
1747601154.98,-0.013,-0.014,-0.023,-1.281,0.073,-0.089,-47.023,10.777,-0.491
1747601155.00,0.007,0.039,-0.028,-1.260,-0.018,-0.102,-48.465,10.982,-0.293
1747601155.02,0.013,0.035,0.012,-1.229,-0.061,-0.159,-49.882,11.078,-0.156
1747601155.04,-0.022,-0.020,-0.010,-1.293,-0.007,-0.175,-51.323,11.131,-0.084
1747601155.06,0.004,-0.054,-0.028,-1.405,0.083,-0.120,-52.883,11.363,0.063
1747601155.08,0.000,-0.027,-0.006,-1.433,0.084,-0.115,-54.496,11.720,0.300
1747601155.10,-0.031,0.035,0.042,-1.363,0.039,-0.155,-56.096,12.064,0.494
1747601155.11,-0.048,0.055,-0.028,-1.292,0.027,-0.225,-57.615,12.248,0.577
1747601155.13,-0.041,0.018,-0.028,-1.314,0.055,-0.319,-59.126,12.315,0.434
1747601155.15,-0.054,-0.032,-0.037,-1.401,0.062,-0.340,-60.722,12.317,0.226
1747601155.17,0.005,-0.043,-0.001,-1.421,0.024,-0.371,-62.400,12.264,-0.051
1747601155.19,0.065,-0.030,0.031,-1.342,-0.004,-0.352,-64.024,12.119,-0.386
1747601155.21,0.078,-0.018,0.054,-1.409,-0.019,-0.310,-65.627,12.038,-0.655
1747601155.23,0.050,-0.016,-0.035,-1.440,-0.134,-0.326,-67.302,11.916,-0.860
1747601155.25,0.035,-0.008,-0.014,-1.425,-0.240,-0.313,-68.985,11.634,-1.077
1747601155.27,0.006,0.011,0.022,-1.267,-0.143,-0.377,-70.566,11.201,-1.467
1747601155.29,-0.039,0.006,-0.010,-1.310,-0.130,-0.451,-72.092,10.485,-2.228
1747601155.31,-0.072,-0.060,-0.080,-1.365,-0.059,-0.440,-73.680,9.578,-3.221
1747601155.33,-0.008,-0.104,-0.016,-1.322,0.081,-0.317,-75.285,8.929,-4.056
1747601155.35,0.057,-0.069,0.032,-1.329,0.042,-0.267,-76.815,8.679,-4.414
1747601155.37,0.021,0.021,0.026,-1.255,-0.066,-0.283,-78.350,8.218,-4.851
1747601155.39,0.021,0.025,-0.018,-1.138,0.022,-0.296,-79.740,7.476,-5.581
1747601155.41,-0.003,-0.033,-0.009,-1.083,-0.071,-0.316,-81.036,6.318,-6.754
1747601155.43,-0.076,-0.061,-0.091,-1.050,-0.013,-0.384,-82.277,4.296,-8.706
1747601155.45,-0.071,-0.049,0.004,-1.069,0.076,-0.358,-83.515,1.370,-11.725
1747601155.47,-0.072,-0.022,-0.050,-1.073,0.163,-0.326,-84.728,-2.321,-15.544
1747601155.49,0.040,-0.031,-0.011,-0.927,0.176,-0.322,-85.849,-7.953,-21.425
1747601155.51,0.109,0.008,-0.032,-0.806,0.120,-0.242,-86.738,-15.797,-29.438
1747601155.53,0.045,0.056,-0.006,-0.858,0.180,-0.204,-87.523,-27.006,-40.807
1747601155.55,-0.027,-0.024,0.049,-0.983,0.244,-0.271,-88.207,-50.660,-64.735
1747601155.57,-0.035,-0.095,-0.048,-0.881,0.316,-0.308,-88.285,-87.332,-101.723
1747601155.59,0.015,-0.013,-0.029,-0.738,0.306,-0.346,-87.737,-112.151,-126.922
1747601155.61,0.081,0.084,-0.100,-0.467,0.225,-0.307,-87.096,-121.390,-136.481
1747601155.63,0.082,0.083,-0.079,-0.482,0.082,-0.222,-86.551,-125.989,-141.281
1747601155.65,-0.003,-0.081,-0.016,-0.507,-0.148,-0.156,-86.030,-131.036,-146.281
1747601155.67,-0.045,-0.131,-0.060,-0.501,-0.013,-0.195,-85.495,-135.011,-150.146
1747601155.69,0.001,-0.008,0.023,-0.528,0.197,-0.191,-84.919,-137.711,-152.967
1747601155.71,0.054,0.063,0.067,-0.527,0.164,-0.159,-84.323,-140.091,-155.605
1747601155.73,0.078,0.028,0.026,-0.352,-0.118,-0.108,-83.831,-142.121,-157.665
1747601155.75,0.042,0.031,-0.015,-0.223,-0.165,-0.150,-83.488,-143.009,-158.384
1747601155.77,-0.053,0.014,0.014,-0.157,-0.053,-0.163,-83.227,-142.864,-158.106
1747601155.79,-0.127,-0.059,0.065,-0.327,0.079,-0.137,-82.901,-143.041,-158.304
1747601155.81,-0.126,-0.079,0.063,-0.317,0.182,-0.067,-82.525,-143.961,-159.391
1747601155.83,-0.053,-0.017,0.020,-0.204,0.129,-0.058,-82.240,-144.733,-160.356
1747601155.85,0.004,-0.119,-0.021,-0.080,0.042,-0.144,-82.051,-144.482,-160.194
1747601155.87,0.031,-0.104,0.023,-0.282,0.064,-0.074,-81.820,-144.416,-160.181
1747601155.89,-0.021,-0.031,0.063,-0.299,-0.040,0.002,-81.504,-145.624,-161.426
1747601155.91,-0.026,0.033,-0.014,-0.187,-0.017,0.016,-81.271,-146.785,-162.542
1747601155.93,0.039,0.074,0.029,0.007,0.135,-0.002,-81.196,-147.121,-162.969
1747601155.95,0.001,0.134,0.052,0.044,0.001,-0.032,-81.213,-146.712,-162.666
1747601155.97,-0.090,0.104,0.009,0.049,-0.193,0.004,-81.265,-146.599,-162.394
1747601155.99,-0.022,-0.067,-0.008,0.018,0.022,-0.001,-81.287,-146.588,-162.278
1747601156.01,0.031,-0.030,0.026,0.049,0.130,-0.008,-81.313,-146.335,-162.132
1747601156.03,-0.015,0.029,0.025,0.112,-0.011,0.018,-81.386,-145.998,-161.874
1747601156.05,-0.051,0.009,-0.020,0.100,-0.009,0.016,-81.505,-145.599,-161.430
1747601156.07,-0.007,-0.010,0.009,0.087,0.062,0.035,-81.597,-145.326,-161.190
1747601156.09,0.017,0.002,0.006,0.113,0.153,0.031,-81.706,-145.006,-160.991
1747601156.11,-0.014,0.003,0.041,0.107,0.143,0.068,-81.843,-144.638,-160.800
1747601156.13,-0.057,0.000,0.058,0.041,0.111,0.056,-81.941,-144.389,-160.702
1747601156.15,-0.049,-0.027,0.005,0.042,0.135,0.011,-81.977,-144.233,-160.676
1747601156.17,0.012,-0.026,0.023,0.063,0.177,0.011,-82.024,-143.965,-160.590
1747601156.19,0.021,-0.002,0.027,0.035,0.056,0.028,-82.055,-143.870,-160.648
1747601156.21,-0.008,0.001,0.017,0.019,-0.120,0.011,-82.006,-144.032,-160.762
1747601156.23,0.029,-0.015,0.002,0.075,-0.126,-0.004,-81.987,-143.777,-160.358
1747601156.25,0.073,-0.006,0.011,0.143,-0.173,0.028,-82.085,-143.490,-159.912
1747601156.27,0.031,0.011,0.020,0.214,-0.321,0.048,-82.268,-143.295,-159.427
1747601156.29,-0.049,-0.003,-0.004,0.251,-0.393,0.059,-82.503,-142.904,-158.604
1747601156.31,-0.068,-0.029,-0.026,0.278,-0.250,0.061,-82.785,-142.369,-157.676
1747601156.33,-0.064,-0.000,0.017,0.378,-0.083,0.064,-83.116,-141.373,-156.491
1747601156.35,-0.054,0.031,-0.008,0.477,-0.038,0.113,-83.560,-139.347,-154.384
1747601156.37,-0.045,0.033,0.020,0.490,-0.113,0.188,-84.100,-137.129,-152.070
1747601156.39,-0.044,0.006,0.012,0.473,0.062,0.225,-84.655,-135.159,-150.027
1747601156.41,-0.017,-0.038,0.059,0.515,0.222,0.188,-85.220,-132.233,-147.289
1747601156.43,-0.021,-0.043,0.058,0.609,0.090,0.175,-85.785,-127.432,-142.655
1747601156.45,0.023,0.010,0.034,0.746,-0.086,0.182,-86.379,-119.776,-135.002
1747601156.47,0.026,0.056,-0.005,0.859,-0.231,0.182,-86.945,-106.539,-121.548
1747601156.49,0.016,0.027,0.027,0.904,-0.240,0.184,-87.282,-87.564,-102.255
1747601156.51,0.002,-0.029,0.084,0.919,-0.226,0.185,-87.242,-65.550,-79.964
1747601156.53,-0.067,-0.053,0.046,1.024,-0.247,0.151,-86.767,-45.950,-60.063
1747601156.55,-0.103,-0.004,-0.027,0.951,-0.156,0.172,-85.992,-32.621,-46.690
1747601156.57,0.003,0.031,-0.027,0.905,0.254,0.214,-85.167,-23.592,-37.888
1747601156.59,0.024,-0.001,0.111,0.913,0.387,0.200,-84.276,-16.876,-31.789
1747601156.61,-0.048,-0.071,-0.012,0.995,0.340,0.258,-83.279,-11.712,-27.199
1747601156.63,-0.009,-0.036,-0.038,1.034,0.409,0.282,-82.168,-7.312,-23.407
1747601156.65,0.040,0.024,-0.054,1.041,0.351,0.218,-81.037,-4.093,-20.814
1747601156.67,0.044,-0.010,-0.057,1.089,0.247,0.159,-79.815,-2.149,-19.387
1747601156.69,0.021,-0.075,-0.065,1.018,0.369,0.193,-78.617,-0.594,-18.343
1747601156.71,0.005,-0.059,-0.058,0.992,0.497,0.244,-77.474,1.065,-17.368
1747601156.73,0.005,-0.020,-0.065,1.059,0.390,0.304,-76.287,2.757,-16.313
1747601156.75,0.006,0.019,0.055,0.951,0.470,0.252,-75.129,4.244,-15.441
1747601156.77,-0.056,-0.012,0.050,0.903,0.452,0.261,-74.045,5.479,-14.892
1747601156.79,0.031,-0.053,0.022,0.890,0.551,0.350,-73.001,6.878,-14.185
1747601156.81,0.159,-0.025,0.062,1.100,0.249,0.389,-71.805,8.214,-13.481
1747601156.83,0.123,0.031,-0.029,1.068,0.056,0.355,-70.518,9.064,-12.888
1747601156.85,0.061,0.011,0.013,0.921,0.078,0.292,-69.314,9.622,-12.541
1747601156.87,0.007,-0.008,0.052,0.750,0.115,0.327,-68.329,10.212,-12.039
1747601156.89,-0.053,0.034,0.022,0.770,-0.096,0.326,-67.435,10.784,-11.445
1747601156.91,0.007,0.050,0.101,0.972,-0.265,0.305,-66.381,10.972,-11.000
1747601156.93,0.045,0.051,-0.008,1.086,-0.362,0.195,-65.153,10.750,-10.854
1747601156.95,-0.105,0.009,-0.070,0.992,-0.124,0.190,-63.938,10.387,-10.909
1747601156.97,-0.078,-0.080,-0.044,0.781,0.221,0.281,-62.865,10.581,-10.744
1747601156.99,0.023,-0.102,0.067,0.544,0.299,0.392,-62.091,11.408,-10.208
1747601157.01,0.087,-0.016,0.049,0.731,-0.087,0.399,-61.302,12.118,-9.560
1747601157.03,0.133,0.078,-0.054,1.013,-0.368,0.279,-60.239,12.167,-9.197
1747601157.05,-0.030,0.078,-0.093,1.010,-0.345,0.101,-59.024,11.657,-9.248
1747601157.07,-0.187,0.033,-0.008,0.848,0.077,-0.007,-57.979,11.236,-9.584
1747601157.09,-0.163,-0.081,0.021,0.640,0.204,0.198,-57.120,11.247,-9.769
1747601157.11,0.009,-0.088,0.031,0.600,0.180,0.348,-56.398,11.799,-9.420
1747601157.13,0.042,0.060,-0.017,0.807,0.094,0.315,-55.526,12.264,-9.015
1747601157.15,-0.027,0.135,-0.071,0.981,0.068,0.084,-54.461,12.366,-9.008
1747601157.17,-0.080,0.045,-0.009,0.799,0.184,-0.014,-53.427,12.236,-9.348
1747601157.19,0.010,-0.148,0.000,0.468,0.183,0.110,-52.719,12.304,-9.549
1747601157.21,0.180,-0.179,0.024,0.405,-0.000,0.275,-52.214,12.599,-9.323
1747601157.23,0.256,0.058,-0.009,0.608,-0.379,0.282,-51.588,12.618,-9.026
1747601157.25,0.059,0.176,-0.015,0.772,-0.501,0.203,-50.747,12.218,-8.842
1747601157.27,-0.148,0.088,-0.015,0.766,-0.273,0.126,-49.839,11.748,-8.865
1747601157.29,-0.168,-0.110,-0.020,0.596,-0.064,0.188,-49.036,11.574,-8.847
1747601157.31,-0.029,-0.194,-0.033,0.524,0.025,0.217,-48.370,11.690,-8.682
1747601157.33,0.067,-0.065,-0.018,0.537,-0.051,0.172,-47.730,11.808,-8.540
1747601157.35,0.010,0.052,-0.010,0.651,-0.139,0.128,-47.033,11.724,-8.487
1747601157.37,-0.014,0.075,0.013,0.736,-0.135,0.078,-46.217,11.499,-8.562
1747601157.39,0.018,0.028,-0.032,0.631,-0.154,0.075,-45.427,11.243,-8.677
1747601157.41,0.025,-0.018,-0.011,0.541,-0.106,0.123,-44.755,11.079,-8.693
1747601157.43,0.015,0.010,0.032,0.555,-0.109,0.150,-44.122,11.004,-8.639
1747601157.45,-0.025,0.024,-0.010,0.626,-0.114,0.127,-43.428,10.902,-8.587
1747601157.47,0.008,0.050,-0.009,0.690,-0.150,-0.015,-42.675,10.692,-8.693
1747601157.49,-0.013,0.062,0.015,0.643,-0.124,-0.036,-41.918,10.362,-8.944
1747601157.51,-0.001,0.022,-0.040,0.478,-0.105,0.063,-41.278,10.135,-9.095
1747601157.53,0.038,-0.021,-0.024,0.460,-0.087,0.160,-40.740,10.081,-9.020
1747601157.55,0.020,0.036,-0.021,0.539,-0.088,0.059,-40.157,10.022,-8.983
1747601157.57,-0.041,0.030,-0.027,0.524,-0.086,0.006,-39.535,9.834,-9.085
1747601157.59,-0.002,-0.039,-0.026,0.420,-0.001,0.012,-38.995,9.715,-9.198
1747601157.61,0.038,-0.044,-0.009,0.323,0.016,0.094,-38.578,9.724,-9.220
1747601157.63,0.078,0.035,-0.007,0.361,-0.086,0.112,-38.186,9.735,-9.146
1747601157.65,0.074,0.063,-0.014,0.391,-0.159,0.077,-37.736,9.606,-9.071
1747601157.67,0.022,-0.021,-0.030,0.381,-0.156,0.094,-37.275,9.416,-9.018
1747601157.69,-0.027,-0.073,-0.008,0.306,-0.011,0.105,-36.860,9.369,-8.964
1747601157.71,-0.009,-0.040,-0.043,0.242,0.010,0.154,-36.535,9.435,-8.846
1747601157.73,0.098,0.031,-0.018,0.268,-0.067,0.140,-36.229,9.512,-8.689
1747601157.75,0.057,0.037,-0.040,0.310,-0.157,0.130,-35.872,9.442,-8.540
1747601157.77,-0.019,-0.012,0.019,0.326,-0.130,0.068,-35.488,9.310,-8.413
1747601157.79,-0.048,-0.063,-0.049,0.254,-0.038,0.057,-35.147,9.225,-8.306
1747601157.81,-0.012,-0.029,-0.030,0.198,-0.042,0.072,-34.880,9.216,-8.177
1747601157.83,0.018,0.090,-0.044,0.169,-0.113,0.085,-34.670,9.165,-8.025
1747601157.85,0.053,0.096,-0.024,0.166,-0.133,0.085,-34.460,9.063,-7.824
1747601157.87,0.005,0.023,0.024,0.169,-0.061,0.067,-34.258,8.977,-7.663
1747601157.89,-0.015,-0.049,-0.001,0.127,-0.010,0.077,-34.067,8.997,-7.492
1747601157.91,-0.013,-0.033,-0.074,0.062,0.021,0.091,-33.963,9.050,-7.280
1747601157.93,0.015,0.049,-0.025,0.061,0.010,0.081,-33.901,9.149,-7.065
1747601157.95,0.020,0.061,-0.053,0.105,-0.073,0.097,-33.808,9.178,-6.865
1747601157.97,-0.002,0.031,-0.020,0.062,-0.038,0.052,-33.682,9.134,-6.701
1747601157.99,-0.057,-0.026,-0.035,0.052,0.059,0.036,-33.588,9.160,-6.602
1747601158.01,-0.051,-0.045,-0.066,-0.017,0.107,-0.013,-33.575,9.272,-6.403
1747601158.03,-0.019,0.043,-0.060,-0.080,0.080,-0.014,-33.646,9.379,-6.314
1747601158.05,-0.016,0.056,-0.046,-0.098,0.040,0.002,-33.763,9.457,-6.193
1747601158.07,0.034,0.059,-0.027,-0.084,-0.045,0.003,-33.849,9.451,-6.085
1747601158.09,-0.001,0.002,-0.027,-0.152,-0.091,-0.016,-33.966,9.358,-6.000
1747601158.11,0.005,-0.071,-0.075,-0.225,0.038,-0.007,-34.163,9.322,-5.908
1747601158.13,0.034,-0.044,-0.077,-0.309,0.062,0.017,-34.471,9.406,-5.770
1747601158.15,0.064,0.024,-0.048,-0.336,0.030,0.017,-34.835,9.554,-5.571
1747601158.17,0.087,0.034,-0.055,-0.317,-0.068,0.000,-35.206,9.578,-5.414
1747601158.19,0.037,-0.008,-0.049,-0.308,-0.089,-0.057,-35.520,9.490,-5.308
1747601158.20,-0.009,-0.038,-0.065,-0.449,-0.031,-0.053,-35.922,9.418,-5.227
1747601158.23,-0.035,-0.027,-0.048,-0.519,0.036,-0.032,-36.482,9.461,-5.073
1747601158.25,0.004,0.014,-0.066,-0.607,0.075,-0.090,-37.121,9.570,-4.969
1747601158.27,-0.008,0.005,-0.084,-0.667,0.033,-0.133,-37.860,9.620,-4.927
1747601158.28,-0.017,-0.030,-0.079,-0.792,0.003,-0.144,-38.700,9.637,-4.893
1747601158.30,-0.010,-0.039,-0.068,-0.819,0.026,-0.124,-39.646,9.648,-4.837
1747601158.32,0.021,-0.020,-0.037,-0.827,0.019,-0.137,-40.591,9.685,-4.778
1747601158.35,0.017,-0.008,-0.037,-0.883,0.067,-0.191,-41.586,9.717,-4.783
1747601158.36,0.007,-0.045,-0.031,-0.877,0.057,-0.185,-42.612,9.746,-4.822
1747601158.38,0.023,-0.066,-0.055,-0.885,0.082,-0.146,-43.638,9.809,-4.830
1747601158.40,0.019,-0.068,-0.083,-0.936,0.080,-0.140,-44.689,9.912,-4.834
1747601158.42,0.017,-0.073,-0.042,-0.918,0.079,-0.168,-45.767,10.027,-4.856
1747601158.44,-0.002,-0.093,-0.074,-0.971,0.106,-0.159,-46.846,10.115,-4.884
1747601158.46,0.025,-0.097,-0.018,-1.030,0.182,-0.154,-48.017,10.334,-4.880
1747601158.48,0.031,-0.069,-0.034,-1.076,0.127,-0.111,-49.225,10.589,-4.832
1747601158.50,0.050,-0.015,-0.052,-1.121,0.068,-0.083,-50.482,10.860,-4.682
1747601158.52,0.016,0.006,-0.050,-1.135,0.046,-0.136,-51.771,11.071,-4.536
1747601158.54,-0.010,0.020,-0.051,-1.136,-0.013,-0.183,-53.074,11.190,-4.493
1747601158.56,-0.027,0.013,-0.023,-1.205,0.024,-0.190,-54.434,11.255,-4.488
1747601158.58,0.029,-0.020,-0.024,-1.235,-0.002,-0.190,-55.837,11.351,-4.437
1747601158.60,0.071,-0.028,0.024,-1.294,0.024,-0.176,-57.293,11.495,-4.364
1747601158.62,0.046,-0.018,-0.011,-1.353,-0.091,-0.144,-58.809,11.659,-4.211
1747601158.64,0.023,0.023,-0.014,-1.396,-0.123,-0.130,-60.390,11.818,-3.969
1747601158.66,0.021,0.046,-0.003,-1.365,-0.181,-0.179,-61.968,11.939,-3.735
1747601158.68,0.018,0.050,-0.015,-1.327,-0.214,-0.293,-63.524,11.817,-3.712
1747601158.70,-0.011,-0.011,0.000,-1.287,-0.206,-0.356,-65.064,11.425,-3.968
1747601158.72,0.017,-0.080,-0.053,-1.392,-0.218,-0.355,-66.635,10.947,-4.326
1747601158.74,0.054,-0.093,-0.031,-1.390,-0.178,-0.364,-68.285,10.469,-4.690
1747601158.76,0.040,-0.053,-0.013,-1.273,-0.206,-0.422,-69.867,9.810,-5.284
1747601158.78,-0.012,-0.015,-0.041,-1.310,-0.146,-0.415,-71.374,8.905,-6.113
1747601158.80,-0.071,-0.012,0.033,-1.412,0.074,-0.406,-73.007,8.145,-6.988
1747601158.82,-0.154,-0.021,0.020,-1.389,0.193,-0.353,-74.650,7.556,-7.867
1747601158.84,-0.105,-0.022,0.026,-1.418,0.422,-0.328,-76.285,7.260,-8.683
1747601158.86,-0.013,-0.025,0.015,-1.367,0.332,-0.368,-77.908,6.809,-9.778
1747601158.88,0.064,-0.008,-0.015,-1.326,0.267,-0.431,-79.491,5.764,-11.184
1747601158.90,0.107,0.000,0.017,-1.263,0.115,-0.447,-81.004,3.760,-13.453
1747601158.92,0.083,-0.004,-0.039,-1.245,-0.114,-0.450,-82.445,0.636,-16.596
1747601158.94,0.092,-0.038,-0.073,-1.226,-0.079,-0.447,-83.839,-4.170,-21.306
1747601158.96,0.146,-0.075,-0.062,-1.166,-0.180,-0.391,-85.141,-11.117,-28.158
1747601158.98,0.125,-0.052,-0.105,-1.037,-0.319,-0.391,-86.236,-21.751,-38.532
1747601159.00,0.054,0.019,-0.115,-0.814,-0.312,-0.417,-86.914,-37.515,-53.933
1747601159.02,-0.052,0.015,-0.055,-0.864,-0.043,-0.424,-87.205,-57.834,-74.079
1747601159.04,-0.179,-0.063,-0.077,-0.794,0.111,-0.363,-87.128,-79.275,-95.586
1747601159.06,-0.173,-0.098,-0.103,-0.766,0.333,-0.227,-86.824,-95.898,-112.468
1747601159.08,-0.040,-0.024,-0.037,-0.803,0.765,-0.177,-86.403,-109.498,-126.721
1747601159.10,0.045,0.063,-0.008,-0.585,0.799,-0.157,-85.902,-118.241,-136.416
1747601159.12,-0.012,0.097,0.011,-0.451,0.768,-0.164,-85.456,-122.738,-141.823
1747601159.14,-0.092,0.040,0.046,-0.509,0.666,-0.174,-84.993,-125.855,-145.765
1747601159.16,-0.098,-0.032,0.065,-0.605,0.618,-0.163,-84.450,-129.346,-150.013
1747601159.18,-0.057,-0.066,0.061,-0.576,0.406,-0.172,-83.845,-132.649,-153.922
1747601159.20,0.024,-0.069,0.007,-0.441,0.331,-0.146,-83.322,-134.836,-156.530
1747601159.22,0.074,-0.015,0.039,-0.386,0.283,-0.177,-82.851,-136.127,-158.192
1747601159.24,0.119,0.024,-0.008,-0.322,0.114,-0.151,-82.432,-136.958,-159.266
1747601159.26,0.128,0.018,-0.043,-0.268,-0.099,-0.145,-82.078,-137.674,-159.998
1747601159.28,0.096,-0.034,-0.045,-0.262,-0.149,-0.122,-81.751,-138.476,-160.639
1747601159.30,0.064,0.001,-0.026,-0.166,-0.050,-0.084,-81.478,-139.094,-161.150
1747601159.32,-0.013,0.069,0.005,-0.078,-0.162,-0.037,-81.340,-139.446,-161.399
1747601159.34,-0.104,0.007,0.028,-0.113,-0.135,-0.031,-81.237,-139.866,-161.617
1747601159.36,-0.071,-0.079,0.042,-0.178,0.218,-0.017,-81.088,-140.428,-162.232
1747601159.38,-0.026,-0.006,-0.016,-0.070,0.257,-0.048,-80.950,-140.508,-162.625
1747601159.40,-0.015,0.068,-0.012,-0.078,0.030,-0.048,-80.852,-140.341,-162.639
1747601159.42,-0.033,-0.005,0.035,-0.083,-0.177,-0.066,-80.737,-140.468,-162.660
1747601159.44,-0.019,-0.069,0.072,-0.102,-0.136,-0.116,-80.550,-140.541,-162.540
1747601159.46,0.026,-0.018,0.049,0.008,-0.136,-0.098,-80.410,-140.283,-162.131
1747601159.48,-0.018,0.072,0.005,0.020,-0.156,-0.033,-80.401,-139.904,-161.585
1747601159.50,-0.082,-0.002,-0.002,-0.104,-0.121,-0.045,-80.335,-140.128,-161.623
1747601159.52,-0.062,-0.065,0.040,-0.111,0.055,-0.082,-80.150,-140.342,-161.814
1747601159.54,0.000,-0.036,0.023,-0.086,0.054,-0.033,-80.009,-140.503,-162.038
1747601159.56,-0.014,0.010,0.027,-0.156,0.084,-0.014,-79.890,-140.807,-162.427
1747601159.58,-0.025,0.008,-0.010,-0.142,0.169,-0.049,-79.717,-141.015,-162.793
1747601159.60,-0.001,0.014,-0.008,-0.064,0.185,-0.052,-79.552,-140.868,-162.852
1747601159.62,0.013,0.038,-0.004,-0.015,0.083,-0.030,-79.462,-140.684,-162.843
1747601159.64,0.000,-0.007,-0.046,0.015,-0.136,0.028,-79.455,-140.728,-162.849
1747601159.66,0.009,-0.022,-0.049,0.025,-0.132,0.041,-79.497,-140.918,-162.863
1747601159.68,0.017,0.020,-0.017,0.075,-0.004,0.015,-79.559,-140.864,-162.734
1747601159.70,-0.030,0.033,0.023,0.135,0.109,0.041,-79.704,-140.522,-162.448
1747601159.72,-0.085,0.004,0.038,0.088,0.172,0.075,-79.888,-139.983,-162.078
1747601159.74,-0.067,-0.035,0.044,-0.012,0.220,0.094,-80.010,-139.942,-162.264
1747601159.76,-0.002,-0.044,0.038,-0.002,0.197,0.056,-80.071,-140.114,-162.698
1747601159.78,0.016,-0.013,0.063,0.034,0.018,0.043,-80.107,-140.145,-162.859
1747601159.80,0.005,-0.012,0.065,0.054,-0.127,0.039,-80.136,-140.161,-162.813
1747601159.82,0.007,-0.050,0.052,0.088,-0.179,0.010,-80.163,-140.128,-162.598
1747601159.84,0.005,-0.054,0.042,0.184,-0.255,0.005,-80.246,-139.892,-162.108
1747601159.86,-0.003,0.003,0.002,0.279,-0.359,0.043,-80.442,-139.497,-161.350
1747601159.88,-0.010,0.052,-0.017,0.321,-0.455,0.093,-80.714,-139.222,-160.590
1747601159.90,-0.013,0.024,-0.015,0.354,-0.510,0.129,-81.067,-138.934,-159.730
1747601159.92,-0.005,-0.012,0.009,0.485,-0.430,0.160,-81.530,-138.250,-158.484
1747601159.94,-0.013,0.001,0.016,0.642,-0.302,0.197,-82.147,-136.680,-156.484
1747601159.96,-0.084,0.046,0.006,0.798,-0.288,0.222,-82.902,-133.903,-153.356
1747601159.98,-0.160,0.033,-0.029,0.876,-0.329,0.227,-83.742,-129.542,-148.600
1747601160.00,-0.132,0.011,-0.040,0.897,-0.217,0.276,-84.571,-123.564,-142.265
1747601160.02,-0.049,-0.034,0.017,0.871,0.095,0.361,-85.395,-115.502,-134.092
1747601160.04,0.033,-0.072,0.106,0.779,0.224,0.404,-86.150,-105.584,-124.358
1747601160.06,0.059,-0.034,0.031,0.856,0.095,0.335,-86.714,-91.685,-110.609
1747601160.08,0.096,-0.011,0.033,0.827,0.199,0.348,-86.959,-72.871,-92.136
1747601160.10,0.073,0.017,0.071,0.863,-0.000,0.311,-86.885,-53.663,-73.231
1747601160.12,-0.028,0.024,-0.051,0.933,-0.222,0.208,-86.357,-37.663,-57.227
1747601160.14,0.016,0.014,-0.019,0.927,-0.010,0.166,-85.573,-27.267,-46.793
1747601160.16,0.054,-0.022,0.059,0.990,0.140,0.192,-84.643,-19.935,-39.705
1747601160.18,-0.019,-0.023,-0.050,0.900,-0.109,0.234,-83.669,-14.375,-34.306
1747601160.20,-0.116,-0.009,0.002,0.753,-0.006,0.277,-82.825,-10.392,-30.349
1747601160.22,-0.062,-0.038,0.031,0.845,0.129,0.304,-81.989,-6.813,-26.960
1747601160.24,0.050,-0.025,0.022,0.958,0.181,0.289,-80.979,-3.687,-24.158
1747601160.26,0.093,0.027,0.031,0.941,0.041,0.249,-79.911,-1.429,-22.158
1747601160.28,0.062,0.025,0.029,0.941,0.108,0.261,-78.831,0.207,-20.713
1747601160.30,-0.048,-0.006,0.047,0.817,0.037,0.292,-77.820,1.779,-19.374
1747601160.32,-0.164,-0.028,-0.068,0.729,0.093,0.304,-76.930,3.173,-18.121
1747601160.34,-0.025,-0.039,0.038,0.896,0.312,0.299,-76.004,4.619,-17.054
1747601160.36,0.060,0.006,-0.037,0.850,0.186,0.234,-74.936,5.694,-16.345
1747601160.38,0.018,0.022,0.056,0.662,0.226,0.205,-74.076,6.526,-15.883
1747601160.40,-0.105,-0.064,-0.092,0.608,0.047,0.360,-73.320,7.426,-15.172
1747601160.42,0.010,-0.119,-0.017,0.822,0.118,0.454,-72.472,8.720,-13.888
1747601160.44,0.190,0.002,-0.024,1.055,-0.020,0.249,-71.319,9.535,-13.135
1747601160.46,0.132,0.095,-0.042,0.985,0.114,0.116,-70.123,9.518,-13.147
1747601160.48,0.008,0.015,0.111,0.775,0.054,0.197,-69.076,9.617,-13.208
1747601160.50,-0.057,-0.092,-0.027,0.551,0.013,0.368,-68.278,10.147,-12.647
1747601160.52,0.030,-0.099,0.074,0.624,0.038,0.431,-67.564,11.025,-11.742
1747601160.54,0.132,0.035,0.001,0.819,-0.057,0.324,-66.651,11.662,-11.046
1747601160.56,0.055,0.196,0.015,0.954,-0.124,0.216,-65.591,11.737,-10.825
1747601160.58,-0.084,0.159,0.044,0.965,0.130,0.131,-64.475,11.664,-10.907
1747601160.60,-0.139,-0.006,0.053,0.729,0.238,0.111,-63.489,11.750,-11.051
1747601160.62,-0.113,-0.138,-0.071,0.564,0.225,0.206,-62.739,12.024,-11.043
1747601160.64,0.015,-0.132,0.017,0.594,0.244,0.274,-62.057,12.618,-10.693
1747601160.66,0.082,0.077,-0.002,0.813,0.214,0.221,-61.190,13.044,-10.492
1747601160.68,0.056,0.221,-0.022,0.860,0.121,0.069,-60.215,13.143,-10.597
1747601160.70,-0.027,0.096,0.002,0.869,-0.115,0.069,-59.226,12.868,-10.928
1747601160.72,0.059,-0.119,-0.077,0.762,-0.138,0.107,-58.295,12.540,-11.128
1747601160.74,0.107,-0.224,-0.032,0.599,-0.104,0.167,-57.499,12.344,-11.169
1747601160.76,0.098,-0.130,-0.018,0.532,-0.030,0.227,-56.839,12.415,-11.018
1747601160.78,0.038,0.012,-0.077,0.622,-0.055,0.311,-56.134,12.597,-10.719
1747601160.80,0.050,0.046,-0.063,0.700,-0.129,0.294,-55.307,12.769,-10.424
1747601160.82,0.011,-0.041,-0.058,0.670,-0.214,0.288,-54.461,12.769,-10.157
1747601160.84,-0.042,-0.114,-0.036,0.622,-0.114,0.205,-53.685,12.747,-9.956
1747601160.86,-0.082,-0.071,0.005,0.666,-0.086,0.178,-52.923,12.704,-9.873
1747601160.88,0.016,0.049,-0.012,0.706,-0.112,0.167,-52.109,12.601,-9.850
1747601160.90,0.062,0.083,0.024,0.688,-0.238,0.243,-51.277,12.482,-9.762
1747601160.92,0.006,0.007,-0.029,0.608,-0.166,0.254,-50.497,12.408,-9.556
1747601160.94,-0.029,-0.050,0.003,0.595,-0.168,0.227,-49.772,12.369,-9.365
1747601160.96,0.024,0.014,0.039,0.720,-0.209,0.160,-48.996,12.225,-9.261
1747601160.98,0.063,0.073,0.027,0.821,-0.169,0.109,-48.086,11.955,-9.334
1747601161.00,0.003,0.020,-0.042,0.654,-0.145,0.105,-47.232,11.724,-9.412
1747601161.02,-0.118,-0.080,-0.078,0.571,-0.071,0.150,-46.531,11.592,-9.412
1747601161.04,-0.087,-0.074,0.023,0.604,-0.026,0.107,-45.849,11.573,-9.380
1747601161.06,0.015,0.073,0.023,0.692,-0.201,0.020,-45.110,11.393,-9.490
1747601161.08,0.070,0.148,0.044,0.755,-0.274,-0.016,-44.290,10.925,-9.720
1747601161.10,0.090,0.093,0.000,0.717,-0.242,-0.004,-43.452,10.469,-9.963
1747601161.12,-0.098,0.006,-0.101,0.485,-0.150,0.138,-42.772,10.162,-10.051
1747601161.14,-0.114,-0.035,0.061,0.520,0.113,0.185,-42.182,10.261,-9.897
1747601161.16,-0.006,0.101,-0.003,0.582,-0.042,0.050,-41.536,10.358,-9.877
1747601161.18,0.061,0.123,0.009,0.558,-0.254,0.042,-40.880,10.107,-9.969
1747601161.20,0.117,0.054,-0.001,0.565,-0.287,0.000,-40.242,9.722,-10.077
1747601161.22,0.002,-0.055,-0.059,0.420,-0.195,0.091,-39.660,9.384,-10.151
1747601161.24,-0.068,-0.182,-0.018,0.353,-0.035,0.156,-39.209,9.317,-10.042
1747601161.26,-0.022,-0.081,-0.004,0.415,0.006,0.112,-38.758,9.402,-9.938
1747601161.28,0.069,0.017,0.009,0.479,-0.174,0.106,-38.230,9.331,-9.895
1747601161.30,0.058,-0.013,0.011,0.493,-0.058,0.113,-37.654,9.180,-9.848
1747601161.32,0.014,-0.085,-0.054,0.467,0.090,0.116,-37.096,9.255,-9.807
1747601161.34,-0.053,-0.101,-0.101,0.344,0.086,0.162,-36.617,9.401,-9.701
1747601161.36,0.066,-0.018,0.010,0.416,0.032,0.158,-36.173,9.563,-9.558
1747601161.37,0.139,0.025,-0.001,0.482,-0.160,0.175,-35.617,9.553,-9.438
1747601161.39,0.083,0.017,-0.034,0.409,-0.091,0.187,-35.086,9.469,-9.212
1747601161.41,-0.055,-0.003,-0.033,0.484,0.028,0.161,-34.528,9.522,-8.831
1747601161.44,-0.087,-0.020,-0.041,0.416,0.097,0.083,-34.018,9.638,-8.629
1747601161.45,-0.038,-0.037,-0.016,0.391,0.116,0.032,-33.549,9.767,-8.490
1747601161.47,0.037,0.021,-0.022,0.348,-0.000,0.048,-33.119,9.795,-8.376
1747601161.49,0.077,0.041,-0.020,0.299,-0.036,0.074,-32.746,9.778,-8.223
1747601161.51,0.071,0.071,-0.043,0.197,-0.051,0.108,-32.442,9.766,-8.014
1747601161.53,0.000,0.064,-0.051,0.151,-0.028,0.157,-32.225,9.797,-7.750
1747601161.55,0.008,0.041,-0.023,0.141,-0.035,0.095,-32.037,9.835,-7.461
