Time,AccX,AccY,AccZ,GyroX,GyroY,GyroZ,Pitch,Roll,Yaw
1746584646.38,0.025,-0.016,0.128,-0.058,0.161,0.024,13.934,1.027,12.745
1746584646.39,-0.024,-0.028,0.250,-0.333,0.267,0.074,13.718,1.377,12.826
1746584646.41,0.028,-0.135,0.057,-0.204,0.394,0.140,13.355,1.663,12.951
1746584646.43,0.015,0.082,0.257,0.214,1.745,0.067,13.391,2.950,13.050
1746584646.45,-0.062,0.003,0.018,0.086,1.299,0.081,13.614,4.857,13.109
1746584646.47,-0.032,-0.022,-0.198,-0.112,0.253,0.208,13.593,5.628,13.288
1746584646.49,-0.016,0.027,0.009,-0.219,0.397,0.260,13.413,5.849,13.585
1746584646.51,-0.049,0.051,0.137,-0.229,0.685,0.258,13.184,6.507,13.911
1746584646.53,-0.096,0.062,-0.004,-0.225,0.252,0.240,12.936,6.986,14.242
1746584646.55,-0.093,0.117,-0.161,-0.377,-0.281,0.188,12.685,6.861,14.533
1746584646.57,0.006,0.071,-0.063,-0.370,-0.107,0.166,12.287,6.436,14.745
1746584646.59,-0.004,-0.047,0.046,-0.343,0.309,0.239,11.924,6.453,15.035
1746584646.61,-0.052,0.046,0.203,-0.368,0.969,0.199,11.547,7.154,15.333
1746584646.63,-0.070,0.100,0.182,-0.264,1.376,0.197,11.202,8.402,15.605
1746584646.65,-0.061,0.055,0.049,-0.234,1.786,0.294,11.010,10.176,15.927
1746584646.67,-0.046,-0.001,0.041,-0.495,2.004,0.291,10.658,12.273,16.367
1746584646.69,-0.013,0.078,-0.022,-0.482,1.982,0.100,10.151,14.479,16.750
1746584646.71,-0.198,0.182,0.033,0.147,0.040,-0.146,9.753,16.281,16.754
1746584646.73,-0.359,0.237,0.587,-0.580,0.038,0.202,9.724,16.217,16.676
1746584646.75,-0.362,0.222,0.520,-1.970,0.802,0.558,8.403,16.578,17.525
1746584646.77,-0.256,0.231,0.325,-2.684,1.384,1.104,6.084,17.588,19.174
1746584646.79,-0.051,0.219,0.583,-4.104,1.262,1.986,3.150,18.926,22.065
1746584646.81,-0.590,0.620,0.330,-4.547,0.085,1.253,-1.129,19.545,25.640
1746584646.83,-0.513,0.636,-0.194,-2.661,0.481,0.556,-4.726,19.706,27.913
1746584646.85,-0.127,0.516,0.369,-3.239,2.066,0.465,-7.361,21.361,29.540
1746584646.87,0.064,0.614,0.439,-5.101,3.327,0.022,-11.722,24.830,31.753
1746584646.89,-0.059,0.484,-0.114,-5.107,3.636,-0.303,-17.112,29.627,34.408
1746584646.91,-0.136,0.317,-0.502,-4.130,2.013,-0.370,-21.849,33.835,36.991
1746584646.93,-0.041,0.226,-0.591,-2.738,0.738,-0.147,-25.242,36.119,39.197
1746584646.95,0.086,0.285,-0.324,-2.151,1.058,-0.369,-27.525,37.679,40.775
1746584646.97,0.485,0.376,-0.066,-2.411,2.767,-0.573,-29.914,40.453,42.126
1746584646.99,0.562,0.229,-0.111,-2.526,3.679,-0.644,-32.480,45.123,43.799
1746584647.01,0.454,0.149,-0.169,-2.453,3.379,-0.619,-34.925,50.367,45.714
1746584647.03,0.517,0.041,-0.180,-2.503,2.251,-0.484,-37.165,54.865,47.993
1746584647.05,0.764,0.051,-0.132,-2.630,1.683,0.092,-38.969,58.877,50.922
1746584647.07,0.846,-0.047,-0.079,-2.888,1.827,0.584,-40.132,63.271,54.754
1746584647.09,0.720,-0.245,-0.200,-2.830,2.330,0.833,-40.728,68.500,59.164
1746584647.11,0.445,-0.379,-0.323,-2.362,2.564,0.855,-40.763,74.055,63.300
1746584647.13,0.250,-0.508,-0.390,-2.008,1.944,0.745,-40.444,78.939,66.763
1746584647.15,0.202,-0.545,-0.458,-1.562,1.276,0.575,-40.019,82.568,69.596
1746584647.17,0.271,-0.415,-0.338,-1.154,1.231,0.354,-39.682,85.267,71.615
1746584647.19,0.439,-0.331,-0.151,-1.249,0.919,0.548,-39.278,87.672,73.377
1746584647.21,0.359,-0.334,-0.182,-1.423,0.201,0.904,-38.465,89.573,75.414
1746584647.23,0.037,-0.390,-0.390,-0.841,0.079,0.699,-37.454,90.705,77.222
1746584647.25,-0.601,-0.095,-1.117,1.573,1.233,-0.259,-37.242,91.204,76.636
1746584647.27,-0.231,-0.059,-0.467,1.621,0.637,0.318,-37.353,90.879,74.251
1746584647.29,-0.377,-0.021,-0.784,2.420,-0.214,-0.008,-37.050,89.169,71.431
1746584647.31,-0.349,-0.197,-0.176,1.954,0.979,-0.692,-37.373,87.577,68.136
1746584647.33,-0.230,-0.178,-0.267,1.564,1.099,-1.187,-38.415,87.298,65.592
1746584647.35,0.075,0.017,0.015,1.141,0.188,-0.824,-39.538,86.775,63.457
1746584647.37,0.253,0.200,0.389,0.638,-0.610,-0.415,-40.155,85.583,62.149
1746584647.39,0.265,0.222,0.492,0.319,-0.734,-0.427,-40.551,84.313,61.308
1746584647.41,0.196,-0.043,0.466,-0.644,-1.481,-0.441,-41.071,83.181,61.472
1746584647.43,-0.036,-0.099,-0.081,-0.087,-1.139,-0.487,-41.681,82.026,62.264
1746584647.45,-0.109,-0.068,-0.329,0.784,-1.231,-0.700,-42.244,80.194,61.410
1746584647.47,-0.115,0.068,-0.172,0.862,-1.289,-1.024,-43.014,77.734,59.911
1746584647.49,-0.185,-0.087,-0.147,0.758,-1.374,-1.720,-44.283,74.982,58.059
1746584647.51,-0.122,0.159,0.056,-0.053,-1.451,-1.842,-46.211,72.350,56.708
1746584647.53,-0.065,0.043,-0.002,-0.397,-0.740,-1.494,-48.100,70.668,56.144
1746584647.55,-0.001,0.249,0.173,-1.078,-0.269,-1.251,-49.828,70.524,56.580
1746584647.57,0.135,0.495,0.121,-1.007,-0.353,-1.391,-51.647,71.016,57.727
1746584647.59,0.264,0.230,0.095,-0.642,-0.507,-1.166,-53.355,71.073,58.361
1746584647.61,0.274,-0.032,0.147,-0.815,-0.186,-0.859,-54.655,71.208,58.989
1746584647.63,0.031,-0.053,-0.010,-1.068,-0.251,-1.074,-56.014,72.081,60.315
1746584647.65,-0.044,-0.085,-0.117,-0.870,0.120,-1.535,-57.792,72.826,61.410
1746584647.67,-0.012,-0.010,-0.019,-0.548,0.664,-1.227,-59.604,73.897,61.993
1746584647.69,-0.096,-0.015,0.033,-0.686,0.550,-0.840,-60.868,75.010,62.542
1746584647.71,-0.137,-0.004,0.020,-1.871,0.640,-0.938,-62.139,77.814,64.933
1746584647.73,-0.065,-0.087,0.013,-3.058,0.587,-1.308,-63.864,83.641,70.701
1746584647.75,-0.057,-0.123,0.195,-3.329,1.735,-1.704,-65.717,92.737,79.284
1746584647.77,-0.066,-0.308,0.140,-3.224,1.933,-1.957,-67.259,104.289,89.436
1746584647.79,-0.056,-0.364,-0.036,-2.641,0.320,-1.671,-68.108,115.274,99.762
1746584647.81,-0.070,-0.388,-0.054,-1.320,-1.623,-1.302,-68.457,121.535,107.435
1746584647.83,-0.030,-0.365,-0.262,0.638,-2.147,-1.095,-69.395,121.975,110.319
1746584647.85,-0.062,-0.242,-0.040,1.157,-2.178,-1.146,-71.084,118.484,109.234
1746584647.87,0.083,0.297,0.008,0.261,-1.802,-0.671,-72.517,115.233,108.232
1746584647.88,0.297,0.942,0.231,-1.437,-1.181,0.612,-72.271,115.501,110.302
1746584647.90,0.248,1.446,0.349,-2.226,-0.695,0.730,-70.384,118.998,115.140
1746584647.92,-0.060,0.550,-0.215,-0.960,-0.739,-0.688,-69.339,122.893,120.042
1746584647.95,0.056,-0.227,-0.332,-0.049,-1.875,-1.434,-70.201,124.365,123.132
1746584647.96,0.093,-0.221,0.004,-0.167,-2.524,-1.208,-71.434,124.533,126.067
1746584647.98,-0.086,-0.084,0.133,-0.318,-1.895,-0.603,-72.132,124.411,128.737
1746584648.00,-0.103,-0.075,0.028,-0.405,-0.974,-0.060,-72.193,124.538,130.451
1746584648.02,-0.009,0.026,-0.128,-0.359,-0.931,-0.115,-71.958,124.713,131.768
1746584648.04,0.005,-0.056,-0.074,-0.488,-0.957,-0.723,-72.011,125.564,133.809
1746584648.06,0.027,0.148,-0.006,-0.274,-1.102,-0.788,-72.529,127.145,136.729
1746584648.08,0.013,0.079,-0.012,-0.348,-0.926,-0.549,-72.898,128.414,139.285
1746584648.10,0.079,0.040,-0.055,-0.054,-0.859,-0.747,-73.277,129.349,141.359
1746584648.12,0.095,0.073,0.048,0.188,-0.497,-1.093,-74.165,130.749,143.614
1746584648.14,0.044,0.050,0.077,0.152,0.040,-1.048,-75.249,132.987,146.242
1746584648.16,-0.091,0.028,0.048,0.130,0.663,-0.744,-76.076,135.794,148.676
1746584648.18,-0.085,0.030,-0.074,0.301,0.571,-0.998,-76.843,138.702,150.922
1746584648.20,0.062,0.099,-0.007,0.909,0.361,-1.636,-78.351,142.651,154.417
1746584648.22,0.026,0.035,0.092,1.028,0.412,-1.428,-80.382,147.572,159.019
1746584648.24,-0.036,-0.159,0.107,0.781,0.903,-0.569,-81.852,151.108,161.874
1746584648.26,-0.116,-0.159,0.063,0.431,1.242,-0.004,-82.601,151.866,161.365
1746584648.28,-0.164,-0.049,0.027,0.358,1.552,0.246,-82.887,150.729,158.629
1746584648.30,-0.218,0.016,-0.037,0.497,1.866,0.399,-83.117,148.088,154.139
1746584648.32,-0.236,0.075,-0.090,0.627,1.983,0.358,-83.391,144.073,147.861
1746584648.34,-0.188,0.134,-0.109,0.811,1.853,0.073,-83.875,139.936,141.474
1746584648.36,-0.111,0.142,-0.111,0.981,1.551,-0.162,-84.684,135.486,135.039
1746584648.38,-0.061,0.107,-0.135,1.101,1.241,-0.211,-85.650,128.440,126.535
1746584648.40,-0.036,0.036,-0.182,1.325,0.943,-0.171,-86.556,114.102,111.081
1746584648.42,-0.023,0.021,-0.190,1.655,0.856,-0.178,-87.049,85.313,81.246
1746584648.44,-0.046,0.052,-0.145,1.947,1.069,-0.215,-86.452,50.592,45.391
1746584648.46,-0.098,0.076,-0.080,2.090,1.430,-0.308,-84.829,29.331,22.651
1746584648.48,-0.111,0.057,0.024,1.971,1.978,-0.406,-82.844,18.880,10.193
1746584648.50,-0.087,0.007,0.129,1.618,2.502,-0.325,-80.988,14.334,3.010
1746584648.52,0.009,-0.054,0.151,1.102,2.336,-0.090,-79.520,13.677,-0.573
1746584648.54,0.180,-0.088,0.118,0.556,1.229,0.043,-78.630,14.508,-1.797
1746584648.56,0.285,-0.155,0.141,0.352,0.381,0.092,-78.137,15.130,-2.062
1746584648.58,0.293,-0.189,0.192,0.309,0.343,-0.075,-77.752,15.140,-2.436
1746584648.60,0.232,-0.184,0.097,-0.064,-0.006,-0.109,-77.610,14.642,-3.257
1746584648.62,-0.049,-0.126,0.046,-0.529,-0.572,-0.194,-78.008,14.026,-3.527
1746584648.64,-0.147,-0.165,-0.007,-0.671,-1.243,-0.293,-78.756,12.439,-4.096
1746584648.66,-0.195,-0.149,0.091,-0.653,-1.228,-0.347,-79.580,9.860,-5.225
1746584648.68,-0.196,-0.138,0.071,-0.526,-0.976,-0.327,-80.306,7.001,-6.859
1746584648.70,-0.173,-0.102,0.028,-0.491,-0.877,-0.274,-80.905,4.200,-8.640
1746584648.72,-0.143,-0.081,0.003,-0.596,-0.864,-0.180,-81.529,1.707,-10.150
1746584648.74,-0.115,-0.060,0.013,-0.710,-0.645,-0.058,-82.283,-0.069,-11.058
1746584648.76,-0.088,0.001,-0.003,-0.768,-0.419,0.041,-83.134,-0.757,-11.155
1746584648.78,-0.052,0.063,-0.080,-0.705,-0.294,0.068,-83.991,-0.654,-10.632
1746584648.80,-0.060,0.067,-0.086,-0.564,-0.025,0.078,-84.709,-0.107,-9.894
1746584648.82,-0.124,0.009,-0.063,-0.508,0.238,0.151,-85.330,1.551,-8.343
1746584648.84,-0.204,0.032,-0.079,-0.272,0.572,0.195,-85.774,5.031,-5.323
1746584648.86,-0.211,0.206,-0.153,-0.214,0.533,0.129,-85.989,8.679,-2.350
1746584648.88,-0.088,0.280,-0.231,-0.262,0.182,0.028,-86.273,11.174,-0.258
1746584648.90,0.046,0.207,-0.246,0.081,-0.040,-0.045,-86.397,11.407,-0.079
1746584648.92,0.073,0.017,-0.071,0.200,0.132,0.013,-86.189,10.353,-1.159
1746584648.94,0.016,-0.180,0.242,-0.107,0.420,0.104,-86.113,11.527,-0.308
1746584648.96,0.010,-0.255,0.328,-0.224,0.389,0.086,-86.302,14.454,2.148
1746584648.98,0.092,-0.115,0.148,-0.181,0.221,0.024,-86.508,16.729,4.058
1746584649.00,0.220,0.126,-0.206,-0.044,-0.216,-0.022,-86.646,17.365,4.692
1746584649.02,0.293,0.181,-0.163,0.023,-0.393,0.036,-86.634,16.882,4.588
1746584649.04,0.194,0.070,0.025,-0.070,-0.457,0.148,-86.636,18.198,6.385
1746584649.06,0.010,-0.044,-0.022,0.002,-0.456,0.225,-86.604,21.471,10.204
1746584649.08,-0.132,-0.013,-0.040,0.036,-0.342,0.175,-86.482,24.469,13.673
1746584649.10,-0.119,0.062,0.045,0.031,-0.145,0.059,-86.391,25.874,15.372
1746584649.12,-0.012,0.035,0.124,0.030,0.161,0.015,-86.347,26.097,15.586
1746584649.14,0.068,-0.040,0.079,0.004,0.290,0.036,-86.312,26.638,15.851
1746584649.16,0.111,-0.055,0.015,-0.072,0.326,0.054,-86.321,27.994,16.852
1746584649.18,0.139,-0.001,0.021,-0.127,0.234,0.022,-86.400,29.940,18.467
1746584649.20,0.167,0.027,0.059,-0.111,0.005,0.019,-86.514,31.435,19.819
1746584649.22,0.144,0.044,0.100,-0.080,-0.142,0.061,-86.581,32.964,21.450
1746584649.24,0.033,0.039,0.073,-0.016,-0.086,0.051,-86.591,34.408,23.028
1746584649.26,-0.114,0.016,-0.031,0.078,-0.155,-0.025,-86.545,34.301,23.047
1746584649.28,-0.175,-0.021,0.026,0.073,-0.103,-0.123,-86.512,32.194,21.113
1746584649.30,-0.144,-0.036,0.070,0.131,0.127,-0.223,-86.523,28.481,17.381
1746584649.32,-0.058,-0.005,0.042,0.210,0.352,-0.225,-86.462,23.467,12.087
1746584649.34,0.013,0.025,0.023,0.228,0.651,-0.153,-86.308,19.360,7.402
1746584649.36,0.030,0.024,0.007,0.306,0.838,-0.070,-86.059,17.029,4.198
1746584649.38,-0.008,0.015,-0.048,0.362,0.901,-0.038,-85.705,15.767,1.918
1746584649.40,-0.030,0.015,-0.087,0.369,0.808,-0.069,-85.313,14.639,-0.197
1746584649.42,0.001,-0.008,-0.065,0.401,0.700,-0.135,-84.919,12.964,-2.751
1746584649.44,0.057,-0.023,-0.070,0.499,0.582,-0.192,-84.465,10.562,-5.892
1746584649.46,0.089,-0.026,-0.123,0.575,0.435,-0.186,-83.879,7.988,-9.068
1746584649.48,0.090,-0.033,-0.113,0.464,0.273,-0.130,-83.306,6.157,-11.314
1746584649.50,0.044,-0.047,-0.156,0.469,0.291,-0.076,-82.793,5.016,-12.779
1746584649.52,0.031,-0.069,-0.079,0.222,0.237,0.035,-82.379,4.891,-13.212
1746584649.54,0.094,-0.073,-0.002,0.038,0.125,0.076,-82.249,5.571,-12.751
1746584649.56,0.113,-0.020,0.043,0.054,-0.051,0.052,-82.198,6.120,-12.231
1746584649.58,0.017,0.062,-0.057,0.239,-0.112,-0.000,-82.034,6.165,-12.082
1746584649.60,-0.118,0.073,-0.059,0.302,-0.117,-0.107,-81.715,5.348,-12.770
1746584649.62,-0.193,0.039,0.036,0.236,-0.027,-0.170,-81.421,4.001,-14.043
1746584649.64,-0.241,0.002,0.052,0.261,0.148,-0.194,-81.161,2.584,-15.537
1746584649.66,-0.239,-0.008,0.065,0.291,0.295,-0.188,-80.850,1.391,-17.018
1746584649.68,-0.170,0.001,0.058,0.330,0.373,-0.190,-80.503,0.421,-18.373
1746584649.70,-0.052,-0.002,0.083,0.382,0.633,-0.101,-80.093,-0.081,-19.458
1746584649.72,0.047,-0.030,0.015,0.472,0.810,0.001,-79.610,0.412,-19.796
1746584649.74,0.102,-0.071,0.005,0.534,0.946,0.132,-79.024,1.752,-19.464
1746584649.76,0.077,-0.053,-0.073,0.559,0.745,0.234,-78.396,3.694,-18.503
1746584649.78,0.006,-0.012,-0.128,0.663,0.526,0.247,-77.679,5.476,-17.400
1746584649.80,-0.075,-0.006,-0.067,0.760,0.474,0.129,-76.850,6.641,-16.795
1746584649.82,-0.070,-0.020,-0.054,0.855,0.321,0.111,-75.916,7.114,-16.765
1746584649.84,-0.015,-0.002,-0.037,0.814,0.056,0.212,-74.938,7.602,-16.531
1746584649.86,-0.018,0.025,-0.022,0.698,-0.075,0.211,-74.041,8.009,-16.017
1746584649.88,-0.022,0.009,0.082,0.583,0.206,0.150,-73.292,8.440,-15.321
1746584649.90,-0.009,-0.017,-0.017,0.510,-0.059,0.201,-72.648,8.867,-14.671
1746584649.92,0.005,0.029,0.049,0.720,-0.050,0.102,-71.970,9.082,-14.036
1746584649.94,-0.092,0.038,-0.120,1.025,-0.354,-0.030,-70.948,8.469,-14.121
1746584649.96,-0.170,-0.014,-0.055,0.914,-0.086,-0.033,-69.841,7.599,-14.561
1746584649.98,-0.170,-0.088,-0.009,0.765,0.306,0.111,-68.876,7.504,-14.536
1746584650.00,-0.094,-0.128,0.043,0.604,0.554,0.363,-68.074,8.369,-13.792
1746584650.02,0.086,-0.100,0.076,0.619,0.826,0.539,-67.323,10.201,-12.553
1746584650.04,0.182,-0.025,-0.047,0.765,0.429,0.504,-66.423,12.034,-11.123
1746584650.06,0.176,0.052,0.012,0.930,0.250,0.333,-65.367,12.913,-10.241
1746584650.08,0.096,0.017,0.070,0.898,0.222,0.337,-64.258,13.444,-9.722
1746584650.10,0.044,-0.040,-0.014,0.780,0.242,0.501,-63.211,14.171,-8.925
1746584650.12,0.056,-0.036,-0.018,0.747,0.318,0.544,-62.223,15.243,-7.852
1746584650.14,0.041,-0.021,-0.021,0.770,0.227,0.479,-61.231,16.178,-6.902
1746584650.16,-0.028,-0.034,-0.059,0.878,0.029,0.405,-60.184,16.664,-6.250
1746584650.18,-0.010,-0.073,-0.043,0.785,0.132,0.461,-59.118,17.056,-5.629
1746584650.20,0.059,-0.088,-0.018,0.686,-0.033,0.529,-58.167,17.617,-4.830
1746584650.22,0.028,-0.039,-0.029,0.816,-0.371,0.520,-57.177,17.902,-4.005
1746584650.24,-0.025,0.007,0.011,0.917,-0.178,0.419,-56.071,17.851,-3.503
1746584650.26,-0.075,-0.014,0.036,0.961,0.014,0.277,-54.928,17.858,-3.329
1746584650.28,-0.097,-0.100,0.017,1.023,-0.085,0.435,-53.722,17.821,-3.304
1746584650.30,0.052,-0.040,0.053,0.792,0.183,0.604,-52.525,18.188,-2.792
1746584650.32,0.082,0.001,0.022,0.696,0.089,0.639,-51.528,18.934,-1.900
1746584650.34,0.025,0.026,-0.005,0.910,0.139,0.521,-50.443,19.455,-1.251
1746584650.36,-0.033,0.002,0.030,0.912,-0.007,0.471,-49.259,19.746,-0.925
1746584650.38,-0.013,-0.029,0.092,0.891,-0.017,0.568,-48.099,19.947,-0.427
1746584650.40,-0.027,-0.016,-0.022,0.933,-0.047,0.624,-46.878,20.222,0.088
1746584650.42,-0.034,0.046,-0.031,0.809,-0.014,0.556,-45.711,20.481,0.700
1746584650.44,-0.106,0.030,-0.015,0.849,-0.007,0.513,-44.622,20.714,1.187
1746584650.46,-0.119,-0.002,0.026,0.924,0.079,0.499,-43.468,20.926,1.531
1746584650.48,-0.139,-0.034,-0.010,0.990,0.051,0.451,-42.249,21.098,1.685
1746584650.50,-0.125,-0.054,-0.020,1.067,0.235,0.350,-40.991,21.287,1.851
1746584650.52,-0.053,-0.005,-0.060,1.108,0.262,0.214,-39.705,21.439,1.772
1746584650.54,-0.000,0.014,0.009,1.126,0.043,0.151,-38.461,21.417,1.480
1746584650.56,-0.019,0.029,0.003,1.145,-0.071,0.170,-37.170,21.119,1.129
1746584650.58,0.009,-0.039,0.040,0.983,0.043,0.313,-35.937,20.954,0.993
1746584650.60,-0.010,-0.072,0.009,0.988,0.145,0.312,-34.767,21.014,0.963
1746584650.62,-0.027,-0.094,0.011,0.941,0.363,0.322,-33.602,21.277,1.009
1746584650.64,-0.026,-0.032,-0.027,0.908,0.342,0.333,-32.486,21.673,1.066
1746584650.66,0.023,0.027,0.018,0.833,0.391,0.401,-31.394,22.079,1.185
1746584650.68,0.029,-0.010,0.023,0.934,0.080,0.397,-30.303,22.401,1.351
1746584650.69,0.006,-0.039,0.012,1.034,0.140,0.338,-29.088,22.472,1.348
1746584650.71,-0.032,-0.036,-0.006,1.020,0.123,0.290,-27.869,22.569,1.294
1746584650.73,-0.017,-0.013,0.058,0.972,0.148,0.354,-26.677,22.680,1.191
1746584650.75,0.026,-0.002,0.006,0.917,0.062,0.399,-25.510,22.753,1.239
1746584650.77,0.066,0.013,0.038,0.784,0.238,0.520,-24.404,22.987,1.373
1746584650.79,0.018,-0.024,0.030,0.846,0.193,0.515,-23.327,23.346,1.604
1746584650.81,-0.019,-0.063,0.050,0.916,0.182,0.469,-22.179,23.589,1.722
1746584650.83,-0.008,-0.057,0.009,0.888,0.188,0.528,-21.009,23.875,1.897
1746584650.85,0.038,0.005,-0.037,0.862,0.209,0.525,-19.855,24.136,2.094
1746584650.87,0.061,0.022,0.009,0.909,0.112,0.501,-18.677,24.367,2.269
1746584650.89,0.036,0.016,-0.009,0.924,-0.103,0.465,-17.504,24.373,2.331
1746584650.91,-0.030,-0.018,0.031,0.976,0.026,0.574,-16.278,24.387,2.450
1746584650.93,-0.076,-0.019,-0.007,1.033,0.070,0.446,-14.978,24.426,2.490
1746584650.95,-0.069,-0.032,0.023,0.978,0.205,0.446,-13.708,24.582,2.466
1746584650.97,-0.015,0.008,-0.038,1.051,0.129,0.359,-12.489,24.844,2.426
1746584650.99,0.040,-0.008,-0.035,1.109,-0.005,0.351,-11.211,24.892,2.252
1746584651.01,0.021,-0.010,0.044,1.141,0.045,0.342,-9.905,24.985,2.106
1746584651.03,-0.106,-0.043,0.054,1.141,0.245,0.294,-8.553,25.038,1.852
1746584651.05,-0.000,-0.050,-0.050,1.023,0.444,0.395,-7.276,25.420,1.669
1746584651.07,0.015,0.071,-0.068,1.001,0.398,0.435,-6.029,25.928,1.623
1746584651.09,0.009,0.069,-0.043,1.008,0.260,0.389,-4.787,26.298,1.522
1746584651.11,0.082,0.033,-0.060,1.022,0.125,0.427,-3.543,26.503,1.387
1746584651.13,0.039,-0.024,0.007,0.963,0.190,0.516,-2.288,26.662,1.357
1746584651.15,-0.113,0.008,-0.049,0.944,0.346,0.533,-1.050,26.964,1.410
1746584651.17,-0.166,0.080,-0.033,0.992,0.360,0.516,0.194,27.385,1.395
1746584651.19,-0.057,0.038,-0.063,1.062,0.108,0.314,1.474,27.639,1.248
1746584651.21,0.153,-0.075,-0.082,1.165,-0.013,0.317,2.758,27.645,0.835
1746584651.23,0.066,-0.108,-0.066,1.296,-0.267,0.209,4.153,27.402,0.338
1746584651.25,-0.100,-0.096,0.046,1.267,0.002,0.203,5.574,27.254,-0.213
1746584651.27,-0.184,0.012,0.035,1.181,0.287,0.284,6.940,27.466,-0.663
1746584651.29,-0.140,0.079,-0.023,1.217,0.327,0.215,8.291,27.913,-1.119
1746584651.31,0.086,-0.011,-0.048,1.287,0.093,0.042,9.626,28.245,-1.780
1746584651.33,0.250,-0.064,-0.123,1.300,-0.171,0.107,10.974,28.408,-2.438
1746584651.35,0.053,-0.144,-0.073,1.230,0.005,0.210,12.349,28.351,-3.053
1746584651.37,-0.111,-0.127,-0.061,1.097,0.310,0.196,13.619,28.634,-3.591
1746584651.39,-0.030,-0.054,-0.050,0.964,0.508,0.196,14.753,29.219,-4.067
1746584651.41,0.051,-0.021,-0.070,0.907,0.439,0.188,15.786,29.869,-4.501
1746584651.43,0.088,-0.016,-0.086,0.868,0.256,0.179,16.770,30.361,-4.945
1746584651.45,0.084,-0.033,-0.165,0.774,0.165,0.276,17.708,30.673,-5.323
1746584651.47,0.003,-0.021,-0.146,0.665,0.249,0.347,18.599,30.935,-5.523
1746584651.49,0.001,-0.040,-0.114,0.629,0.328,0.291,19.421,31.294,-5.687
1746584651.51,0.004,-0.043,-0.059,0.578,0.354,0.197,20.159,31.733,-5.924
1746584651.53,0.058,-0.054,-0.063,0.482,0.271,0.152,20.769,32.151,-6.201
1746584651.55,0.004,-0.028,-0.145,0.419,0.148,0.119,21.285,32.450,-6.460
1746584651.57,0.048,-0.061,-0.122,0.361,0.116,0.118,21.733,32.652,-6.712
1746584651.59,0.002,-0.033,-0.108,0.289,0.145,0.109,22.115,32.829,-6.924
1746584651.61,0.006,-0.006,-0.103,0.235,0.177,0.102,22.429,33.037,-7.083
1746584651.63,0.027,-0.017,-0.076,0.208,0.128,0.052,22.689,33.240,-7.262
1746584651.65,0.044,-0.059,-0.065,0.152,0.073,0.036,22.891,33.387,-7.447
1746584651.67,0.015,-0.050,-0.058,0.085,0.059,0.027,23.027,33.474,-7.605
1746584651.69,-0.007,-0.048,-0.046,0.046,0.075,0.034,23.103,33.565,-7.721
1746584651.71,-0.008,-0.018,-0.061,0.062,0.027,0.028,23.173,33.620,-7.822
1746584651.73,-0.018,-0.037,-0.023,0.058,-0.006,-0.009,23.244,33.646,-7.955
1746584651.75,-0.064,-0.058,0.017,0.007,-0.055,-0.061,23.254,33.644,-8.111
1746584651.77,0.026,-0.034,0.002,-0.011,-0.065,-0.036,23.210,33.580,-8.254
1746584651.79,-0.011,-0.007,-0.050,0.012,-0.074,-0.005,23.203,33.503,-8.360
1746584651.81,-0.039,-0.003,-0.006,0.018,-0.025,0.008,23.220,33.436,-8.447
1746584651.83,-0.014,0.002,-0.003,0.042,-0.011,0.026,23.284,33.405,-8.518
1746584651.85,-0.001,-0.006,0.049,0.010,-0.011,0.057,23.358,33.389,-8.572
1746584651.87,-0.032,-0.001,0.011,0.023,-0.015,0.064,23.404,33.339,-8.597
1746584651.89,-0.021,0.003,-0.032,0.070,-0.011,0.073,23.495,33.292,-8.630
1746584651.91,-0.002,-0.013,0.011,0.058,-0.022,0.075,23.596,33.248,-8.677
1746584651.93,0.018,0.004,-0.010,0.105,-0.042,0.085,23.736,33.215,-8.725
1746584651.95,-0.032,0.005,0.016,0.118,-0.064,0.064,23.899,33.150,-8.797
1746584651.97,-0.025,0.016,-0.000,0.113,-0.084,0.057,24.026,33.036,-8.882
1746584651.99,-0.002,0.014,-0.016,0.133,-0.007,0.101,24.197,32.980,-8.951
1746584652.01,-0.048,0.014,-0.007,0.156,0.065,0.084,24.378,33.027,-9.038
1746584652.03,-0.034,0.003,-0.009,0.142,0.063,0.059,24.565,33.118,-9.136
1746584652.05,-0.020,-0.017,-0.023,0.079,0.025,0.022,24.692,33.163,-9.243
1746584652.07,0.014,-0.038,-0.088,0.020,-0.069,-0.023,24.728,33.159,-9.345
1746584652.09,0.037,-0.064,-0.126,0.003,-0.145,-0.049,24.705,33.046,-9.452
1746584652.11,0.036,-0.073,-0.152,-0.067,-0.247,-0.119,24.629,32.835,-9.591
1746584652.13,0.017,-0.118,-0.126,-0.184,-0.177,-0.210,24.416,32.616,-9.738
1746584652.15,0.062,-0.155,-0.197,-0.372,-0.168,-0.279,23.997,32.486,-9.884
1746584652.17,0.188,-0.158,-0.206,-0.599,-0.193,-0.261,23.363,32.258,-9.891
1746584652.19,0.111,-0.135,-0.245,-0.803,-0.255,-0.280,22.522,31.924,-9.757
1746584652.21,0.095,-0.118,-0.238,-1.044,-0.216,-0.273,21.464,31.545,-9.490
1746584652.23,0.136,-0.118,-0.179,-1.296,-0.164,-0.250,20.160,31.153,-9.044
1746584652.25,0.134,-0.111,-0.128,-1.527,-0.127,-0.239,18.640,30.771,-8.441
1746584652.27,0.090,-0.081,-0.171,-1.706,-0.069,-0.228,16.908,30.433,-7.707
1746584652.29,0.064,-0.066,-0.202,-1.841,-0.082,-0.252,15.018,30.128,-6.891
1746584652.31,0.081,-0.028,-0.200,-1.908,-0.139,-0.276,13.015,29.801,-6.063
1746584652.33,0.001,-0.047,-0.174,-1.907,-0.161,-0.330,10.947,29.469,-5.249
1746584652.35,-0.031,-0.034,-0.175,-1.941,-0.196,-0.423,8.835,29.143,-4.522
1746584652.37,0.129,-0.046,-0.132,-2.021,-0.260,-0.432,6.617,28.811,-3.829
1746584652.39,0.186,-0.102,-0.004,-2.183,-0.247,-0.235,4.322,28.419,-2.966
1746584652.41,0.079,-0.071,-0.013,-2.212,-0.207,-0.231,1.980,28.121,-1.942
1746584652.43,-0.013,-0.065,0.008,-2.177,-0.151,-0.303,-0.365,27.878,-0.978
1746584652.45,-0.035,-0.063,0.000,-2.169,-0.075,-0.340,-2.735,27.756,-0.067
1746584652.47,0.005,-0.099,-0.014,-2.167,-0.014,-0.376,-5.128,27.774,0.813
1746584652.49,0.059,-0.097,-0.007,-2.089,-0.017,-0.391,-7.490,27.837,1.666
1746584652.51,-0.059,-0.086,0.009,-1.907,-0.062,-0.494,-9.741,27.903,2.394
1746584652.53,-0.170,-0.094,-0.041,-1.772,-0.150,-0.679,-11.898,27.836,2.863
1746584652.55,-0.061,-0.084,-0.063,-1.729,-0.221,-0.809,-14.069,27.660,3.116
1746584652.57,0.035,-0.060,-0.028,-1.647,-0.333,-0.846,-16.217,27.364,3.202
1746584652.59,0.047,-0.047,-0.047,-1.593,-0.374,-0.812,-18.297,26.936,3.234
1746584652.61,-0.030,-0.035,-0.025,-1.600,-0.422,-0.771,-20.317,26.500,3.304
1746584652.63,-0.070,-0.078,0.029,-1.616,-0.217,-0.824,-22.367,26.118,3.440
1746584652.65,-0.050,-0.165,0.026,-1.569,-0.228,-0.954,-24.440,25.848,3.438
1746584652.67,0.075,-0.180,0.020,-1.539,-0.092,-0.958,-26.531,25.532,3.324
1746584652.69,0.029,-0.063,-0.037,-1.482,-0.193,-0.949,-28.548,25.254,3.208
1746584652.71,-0.037,0.052,0.056,-1.431,-0.133,-0.983,-30.519,24.887,3.004
1746584652.73,-0.022,0.016,0.073,-1.284,-0.171,-0.970,-32.415,24.521,2.745
1746584652.75,0.019,-0.043,0.064,-1.235,-0.351,-0.978,-34.158,23.923,2.384
1746584652.77,0.026,-0.098,0.094,-1.276,-0.362,-0.905,-35.907,23.217,2.033
1746584652.79,0.004,-0.086,0.021,-1.372,-0.349,-0.810,-37.657,22.579,1.799
1746584652.81,-0.077,-0.059,0.042,-1.667,-0.290,-0.815,-39.624,22.049,1.732
1746584652.83,-0.097,-0.060,0.006,-1.762,0.072,-0.874,-41.802,21.758,1.582
1746584652.85,-0.036,-0.078,0.073,-1.736,0.345,-0.830,-44.032,21.866,1.525
1746584652.87,0.080,-0.072,0.191,-1.764,0.472,-0.712,-46.207,22.260,1.622
1746584652.89,0.134,-0.053,0.166,-1.829,0.506,-0.614,-48.399,22.944,1.948
1746584652.91,0.081,-0.034,-0.006,-1.646,0.185,-0.612,-50.513,23.571,2.390
1746584652.93,-0.032,-0.027,-0.021,-1.395,-0.137,-0.791,-52.417,23.513,2.529
1746584652.95,-0.090,-0.081,0.049,-1.189,0.013,-0.964,-54.162,22.955,2.135
1746584652.97,-0.053,-0.154,0.086,-1.073,-0.127,-0.950,-55.778,22.162,1.399
1746584652.99,0.082,-0.191,0.130,-1.082,-0.359,-0.747,-57.271,21.158,0.654
1746584653.01,0.212,-0.178,0.122,-1.011,-0.182,-0.479,-58.647,20.472,0.415
1746584653.03,0.230,-0.114,0.065,-1.088,-0.224,-0.307,-59.896,20.287,0.621
1746584653.05,0.137,-0.049,0.011,-1.284,-0.500,-0.357,-61.304,20.110,1.080
1746584653.07,0.017,0.014,-0.007,-1.322,-0.593,-0.560,-62.889,19.509,1.323
1746584653.09,-0.035,0.034,0.037,-1.334,-0.490,-0.738,-64.567,18.423,1.012
1746584653.11,-0.052,-0.028,0.099,-1.349,-0.282,-0.729,-66.295,17.248,0.389
1746584653.13,-0.106,-0.060,0.027,-1.155,-0.184,-0.681,-67.919,16.176,-0.326
1746584653.15,-0.192,-0.013,-0.186,-0.631,-0.573,-0.688,-69.132,14.620,-1.410
1746584653.17,-0.244,0.028,-0.238,-0.342,-1.364,-0.799,-69.811,11.628,-3.232
1746584653.19,-0.270,-0.033,-0.198,-0.560,-1.996,-0.797,-70.449,7.360,-5.515
1746584653.21,-0.288,-0.153,-0.243,-0.714,-1.612,-0.620,-71.267,3.028,-7.629
1746584653.23,-0.250,-0.220,-0.075,-0.910,-0.600,-0.373,-72.178,0.117,-9.202
1746584653.25,-0.197,-0.242,0.140,-1.231,0.094,-0.201,-73.414,-1.207,-10.175
1746584653.27,-0.084,-0.136,0.030,-1.234,0.307,0.008,-74.839,-1.496,-10.599
1746584653.29,0.186,-0.055,0.013,-1.350,0.345,0.495,-76.295,-0.194,-9.465
1746584653.31,0.273,-0.106,0.188,-1.511,0.452,0.954,-77.909,4.225,-5.249
1746584653.33,0.259,-0.051,0.181,-1.285,0.755,1.048,-79.392,11.873,2.044
1746584653.35,0.221,0.096,-0.117,-0.387,1.178,0.543,-80.056,19.606,8.883
1746584653.37,0.094,0.147,-0.273,-0.129,0.436,-0.219,-80.200,21.925,10.189
1746584653.39,-0.019,0.060,-0.313,-0.510,-0.941,-0.425,-80.677,19.997,8.616
1746584653.41,-0.084,0.011,-0.131,-0.690,-1.468,-0.239,-81.490,17.683,7.881
1746584653.43,-0.097,-0.004,0.069,-0.484,-0.720,-0.160,-82.212,16.340,7.913
1746584653.45,-0.072,-0.037,0.102,-0.314,0.040,-0.072,-82.664,15.858,7.793
1746584653.47,-0.017,-0.037,-0.002,-0.397,0.411,0.029,-83.045,16.912,8.549
1746584653.49,0.066,0.004,-0.005,-0.453,0.147,-0.009,-83.519,18.755,10.018
1746584653.51,0.076,0.051,0.034,-0.289,-0.424,-0.062,-83.949,19.521,10.969
1746584653.53,0.036,0.057,0.030,-0.163,-0.506,-0.111,-84.204,18.795,10.816
1746584653.55,-0.034,-0.039,0.031,-0.286,-0.465,-0.090,-84.471,17.786,10.345
1746584653.57,-0.076,-0.092,0.009,-0.447,-0.525,-0.016,-84.898,18.064,11.198
1746584653.58,-0.092,-0.048,-0.009,-0.505,-0.460,0.013,-85.414,19.570,13.291
1746584653.61,-0.035,0.005,0.035,-0.564,-0.291,0.012,-85.987,22.247,16.408
1746584653.62,0.011,0.014,0.065,-0.451,-0.180,-0.035,-86.536,25.573,20.000
1746584653.64,0.016,0.003,0.020,-0.290,-0.088,-0.101,-86.942,27.302,21.895
1746584653.66,0.012,0.001,-0.044,-0.269,-0.051,-0.068,-87.267,28.244,22.895
1746584653.68,0.022,0.002,-0.064,-0.295,-0.256,0.039,-87.554,31.217,26.029
1746584653.70,0.022,0.001,-0.012,-0.323,-0.437,0.128,-87.792,37.777,33.014
1746584653.72,0.017,-0.022,0.054,-0.279,-0.320,0.135,-87.949,46.899,42.601
1746584653.74,0.005,-0.040,0.068,-0.149,-0.111,0.145,-87.986,54.699,50.650
1746584653.76,-0.031,-0.024,0.052,-0.088,-0.039,0.222,-87.876,60.676,56.688
1746584653.78,-0.060,0.023,0.067,-0.114,-0.191,0.230,-87.691,66.089,62.230
1746584653.80,-0.083,0.032,0.107,-0.139,-0.340,0.211,-87.512,71.181,67.637
1746584653.82,-0.113,-0.003,0.129,-0.112,-0.345,0.174,-87.344,75.357,72.222
1746584653.84,-0.151,-0.016,0.133,-0.049,-0.211,0.111,-87.210,77.728,74.919
1746584653.86,-0.205,0.020,0.049,0.029,-0.101,0.041,-87.124,78.245,75.604
1746584653.88,-0.188,0.083,-0.055,0.106,-0.097,-0.103,-87.135,76.355,73.823
1746584653.90,-0.059,0.045,-0.071,0.168,0.010,-0.206,-87.278,72.156,69.680
1746584653.92,0.044,-0.055,0.003,0.176,0.150,-0.148,-87.405,66.515,63.938
1746584653.94,0.081,-0.053,0.048,0.107,0.167,-0.037,-87.428,62.360,59.583
1746584653.96,0.047,0.006,0.033,0.027,-0.030,0.032,-87.390,61.056,58.183
1746584653.98,-0.039,0.035,-0.029,0.022,-0.247,0.029,-87.348,61.046,58.342
1746584654.00,-0.110,0.013,-0.041,0.110,-0.239,-0.012,-87.301,59.458,57.055
1746584654.02,-0.141,0.007,0.018,0.204,-0.089,-0.053,-87.234,55.763,53.545
1746584654.04,-0.119,0.007,0.032,0.280,0.075,-0.074,-87.122,50.338,48.125
1746584654.06,-0.052,0.000,0.066,0.314,0.280,-0.044,-86.946,44.724,42.296
1746584654.08,-0.023,-0.025,0.063,0.324,0.308,0.009,-86.684,40.270,37.473
1746584654.10,-0.029,-0.037,0.036,0.265,0.102,-0.020,-86.421,36.987,33.937
1746584654.12,-0.040,-0.014,-0.031,0.274,-0.122,-0.075,-86.209,33.581,30.544
1746584654.14,-0.039,-0.001,-0.007,0.333,-0.110,-0.101,-85.966,29.472,26.588
1746584654.16,-0.030,-0.014,0.086,0.342,0.085,-0.112,-85.678,25.517,22.638
1746584654.18,-0.026,0.000,0.089,0.361,0.197,-0.088,-85.364,22.295,19.232
1746584654.20,-0.050,0.013,0.036,0.479,0.231,-0.065,-84.948,19.575,16.262
1746584654.22,-0.102,0.017,0.014,0.618,0.416,-0.068,-84.381,17.091,13.417
1746584654.24,-0.124,0.007,0.007,0.776,0.743,-0.098,-83.633,14.809,10.455
1746584654.26,-0.132,-0.009,0.016,0.806,0.933,-0.119,-82.776,12.920,7.571
1746584654.28,-0.103,0.010,-0.058,0.913,0.959,-0.094,-81.848,11.591,5.122
1746584654.30,-0.065,0.002,-0.014,0.939,0.901,-0.106,-80.825,10.587,3.030
1746584654.32,0.011,-0.021,-0.018,0.959,0.797,-0.153,-79.786,9.560,1.018
1746584654.34,0.094,-0.028,0.039,0.956,0.723,-0.142,-78.736,8.640,-0.813
1746584654.36,0.169,-0.071,0.022,0.921,0.498,0.043,-77.669,8.233,-1.965
1746584654.38,0.179,-0.104,-0.022,0.836,0.386,0.308,-76.672,8.879,-1.710
1746584654.40,0.097,-0.085,-0.038,0.950,0.746,0.413,-75.590,10.605,-0.636
1746584654.42,0.002,-0.026,-0.036,0.735,0.589,0.377,-74.527,12.290,0.298
1746584654.44,-0.016,0.000,0.078,0.603,0.687,0.361,-73.734,13.858,1.178
1746584654.46,-0.038,0.013,-0.129,0.913,0.310,0.397,-72.785,15.176,1.900
1746584654.48,-0.166,0.024,-0.161,1.052,-0.179,0.208,-71.593,15.383,2.091
1746584654.50,-0.237,-0.014,-0.057,1.014,-0.005,-0.029,-70.401,14.567,1.401
1746584654.52,-0.154,-0.066,0.125,0.898,0.732,0.051,-69.362,14.204,0.553
1746584654.54,-0.058,-0.057,0.029,0.938,0.608,0.434,-68.284,15.023,0.533
1746584654.56,0.024,0.007,-0.008,0.847,0.299,0.670,-67.128,16.377,1.466
1746584654.58,0.078,0.016,-0.092,0.765,0.213,0.705,-65.992,17.773,2.704
1746584654.60,0.083,0.010,0.020,0.780,0.464,0.542,-64.957,19.098,3.717
1746584654.62,0.065,-0.051,0.043,0.876,0.449,0.357,-63.893,19.937,4.059
1746584654.64,0.071,-0.067,-0.023,1.019,0.199,0.460,-62.725,20.409,4.158
1746584654.66,0.011,-0.029,0.040,1.045,0.187,0.538,-61.406,20.832,4.435
1746584654.68,-0.060,-0.081,-0.015,1.010,0.243,0.581,-60.081,21.395,4.757
1746584654.70,0.016,-0.099,0.031,0.804,0.504,0.709,-58.833,22.275,5.332
1746584654.72,0.048,-0.093,0.063,0.725,0.530,0.801,-57.717,23.702,6.226
1746584654.74,0.015,0.009,-0.007,0.877,0.090,0.739,-56.531,24.706,7.046
1746584654.76,0.012,0.091,0.031,1.100,0.130,0.590,-55.182,25.116,7.419
1746584654.78,-0.062,0.017,-0.064,1.167,-0.034,0.516,-53.751,25.186,7.428
1746584654.80,-0.045,-0.114,0.020,1.204,0.334,0.626,-52.233,25.352,7.440
1746584654.82,-0.018,-0.123,0.006,1.172,0.257,0.640,-50.682,25.789,7.546
1746584654.84,0.052,-0.038,0.093,0.982,0.242,0.655,-49.255,26.204,7.741
1746584654.86,0.115,0.050,0.061,0.942,0.039,0.687,-47.933,26.636,8.051
1746584654.88,0.075,0.091,0.017,0.929,-0.124,0.720,-46.621,26.797,8.387
1746584654.90,-0.006,-0.016,0.012,0.947,-0.023,0.720,-45.299,26.974,8.780
1746584654.92,-0.063,-0.174,-0.002,1.104,0.018,0.686,-43.899,27.189,9.015
1746584654.94,0.022,-0.119,-0.019,1.077,0.044,0.719,-42.393,27.334,9.213
1746584654.96,0.036,0.060,0.000,1.174,-0.164,0.596,-40.938,27.388,9.311
1746584654.98,-0.071,0.071,-0.013,1.189,-0.078,0.581,-39.402,27.127,9.271
1746584655.00,-0.116,-0.010,-0.013,1.131,0.238,0.557,-37.939,27.255,9.244
1746584655.02,-0.103,-0.047,0.014,1.300,0.061,0.504,-36.435,27.349,9.136
1746584655.04,-0.052,-0.043,0.028,1.317,-0.118,0.429,-34.837,27.146,8.859
1746584655.06,0.013,-0.029,-0.035,1.232,-0.317,0.465,-33.310,26.767,8.656
1746584655.08,-0.004,0.022,-0.011,1.151,-0.119,0.391,-31.870,26.367,8.442
1746584655.10,-0.061,0.021,-0.011,1.101,0.105,0.423,-30.520,26.270,8.252
1746584655.12,-0.072,0.033,0.105,1.077,0.211,0.460,-29.187,26.418,8.148
1746584655.14,-0.005,-0.040,0.110,1.222,-0.055,0.474,-27.780,26.479,8.020
1746584655.16,0.058,-0.105,-0.054,1.248,-0.017,0.448,-26.271,26.301,7.839
1746584655.18,-0.015,-0.067,-0.044,1.189,0.089,0.451,-24.771,26.272,7.657
1746584655.20,-0.091,-0.040,0.038,1.106,0.117,0.385,-23.396,26.310,7.491
1746584655.22,-0.048,-0.106,0.036,1.087,0.101,0.400,-22.066,26.387,7.321
1746584655.24,0.042,-0.041,-0.022,1.024,0.055,0.427,-20.781,26.399,7.141
1746584655.26,-0.016,0.045,-0.028,1.078,0.039,0.535,-19.463,26.456,7.055
1746584655.28,-0.037,0.060,-0.058,0.998,0.232,0.591,-18.113,26.627,7.091
1746584655.30,0.020,0.033,0.003,1.071,0.273,0.519,-16.779,26.974,7.144
1746584655.32,0.175,-0.046,0.089,1.134,0.021,0.549,-15.399,27.093,7.050
1746584655.34,0.002,0.029,0.031,1.292,-0.187,0.631,-13.852,26.954,7.022
1746584655.36,-0.214,-0.009,0.038,1.236,0.126,0.714,-12.217,26.938,6.972
1746584655.38,-0.290,0.006,-0.007,1.141,0.492,0.677,-10.634,27.290,6.975
1746584655.40,-0.133,0.039,-0.164,1.234,0.429,0.407,-9.175,27.838,6.875
1746584655.42,0.066,-0.004,-0.114,1.427,0.172,0.248,-7.655,28.142,6.437
1746584655.44,0.057,0.047,-0.089,1.551,-0.079,0.192,-6.041,28.098,5.744
1746584655.46,-0.119,0.048,-0.013,1.570,-0.149,0.173,-4.359,27.896,5.037
1746584655.48,-0.193,0.103,0.019,1.495,0.154,0.163,-2.729,27.888,4.362
1746584655.50,-0.041,-0.014,-0.058,1.569,0.167,0.036,-1.124,28.005,3.524
1746584655.52,0.146,-0.065,-0.039,1.586,0.131,0.036,0.481,28.175,2.607
1746584655.54,0.188,-0.086,-0.016,1.555,0.038,0.160,2.119,28.282,1.731
1746584655.56,0.027,-0.054,0.125,1.361,0.226,0.294,3.724,28.423,1.052
1746584655.58,-0.090,-0.047,0.047,1.176,0.464,0.399,5.195,28.846,0.605
1746584655.60,0.063,-0.017,-0.082,1.119,0.549,0.472,6.563,29.481,0.284
1746584655.62,0.131,-0.112,-0.087,1.133,0.372,0.438,7.937,30.026,-0.047
1746584655.64,0.120,-0.093,-0.056,1.067,0.368,0.462,9.269,30.487,-0.383
1746584655.66,0.022,-0.087,-0.100,1.010,0.383,0.476,10.567,30.927,-0.659
1746584655.68,-0.033,-0.063,-0.078,0.963,0.417,0.488,11.818,31.399,-0.913
1746584655.70,-0.028,-0.020,-0.073,0.968,0.446,0.461,13.039,31.928,-1.174
1746584655.72,0.027,-0.069,-0.098,0.950,0.337,0.453,14.250,32.421,-1.482
1746584655.74,0.031,-0.086,-0.013,0.852,0.378,0.435,15.387,32.870,-1.783
1746584655.76,-0.029,-0.098,-0.027,0.730,0.406,0.435,16.414,33.333,-2.013
1746584655.78,-0.004,-0.072,-0.062,0.669,0.400,0.412,17.341,33.800,-2.208
1746584655.80,0.044,-0.062,-0.081,0.642,0.323,0.370,18.210,34.229,-2.417
1746584655.82,0.054,-0.067,-0.059,0.537,0.310,0.384,19.014,34.598,-2.606
1746584655.84,0.048,-0.060,-0.070,0.442,0.397,0.391,19.715,34.978,-2.709
1746584655.86,0.008,-0.053,-0.090,0.393,0.400,0.353,20.362,35.413,-2.774
1746584655.88,0.052,-0.034,-0.116,0.324,0.381,0.318,20.920,35.833,-2.845
1746584655.90,0.037,0.003,-0.138,0.249,0.339,0.262,21.380,36.221,-2.920
1746584655.92,0.080,0.010,-0.150,0.187,0.285,0.225,21.745,36.554,-2.988
1746584655.94,0.048,0.006,-0.158,0.191,0.222,0.169,22.051,36.821,-3.071
1746584655.96,0.030,-0.010,-0.126,0.189,0.201,0.090,22.316,37.065,-3.233
1746584655.98,0.002,-0.015,-0.102,0.116,0.126,0.003,22.493,37.286,-3.457
1746584656.00,0.038,-0.021,-0.102,0.059,0.099,-0.028,22.564,37.443,-3.675
1746584656.02,0.058,-0.024,-0.073,0.015,0.036,-0.045,22.570,37.544,-3.874
1746584656.04,0.030,-0.009,-0.040,-0.046,0.014,-0.053,22.518,37.576,-4.043
1746584656.06,0.029,-0.017,-0.014,-0.091,0.048,-0.037,22.419,37.611,-4.165
1746584656.08,0.045,-0.026,-0.033,-0.131,0.023,-0.000,22.305,37.621,-4.245
1746584656.10,0.024,-0.010,0.000,-0.172,0.013,0.026,22.173,37.594,-4.251
1746584656.12,0.023,0.002,-0.019,-0.167,0.013,0.054,22.045,37.541,-4.212
1746584656.14,0.007,0.007,-0.008,-0.142,0.008,0.072,21.951,37.489,-4.155
1746584656.16,-0.034,0.019,-0.005,-0.128,-0.014,0.051,21.871,37.421,-4.116
1746584656.18,-0.031,0.014,0.005,-0.105,-0.031,0.033,21.797,37.357,-4.112
1746584656.20,0.013,0.029,-0.030,-0.066,-0.083,0.027,21.741,37.270,-4.138
1746584656.22,-0.006,0.002,0.014,-0.097,-0.128,-0.009,21.670,37.131,-4.192
1746584656.24,0.008,0.037,-0.089,-0.056,-0.293,-0.066,21.572,36.873,-4.281
1746584656.26,0.050,-0.026,-0.053,-0.087,-0.356,-0.123,21.449,36.505,-4.442
1746584656.28,0.018,-0.049,-0.053,-0.166,-0.293,-0.192,21.216,36.139,-4.617
1746584656.30,0.079,-0.146,-0.115,-0.290,-0.201,-0.208,20.864,35.880,-4.768
1746584656.32,0.245,-0.096,-0.207,-0.492,-0.262,-0.139,20.391,35.589,-4.763
1746584656.34,0.103,-0.068,-0.192,-0.743,-0.239,-0.111,19.738,35.169,-4.540
1746584656.36,0.063,-0.085,-0.206,-0.922,-0.076,-0.145,18.870,34.856,-4.157
1746584656.38,0.090,-0.064,-0.146,-1.058,-0.084,-0.276,17.811,34.629,-3.777
1746584656.39,0.080,-0.040,-0.179,-1.162,-0.167,-0.407,16.548,34.356,-3.437
1746584656.41,0.098,-0.011,-0.278,-1.243,-0.230,-0.480,15.115,34.037,-3.149
1746584656.43,0.036,-0.023,-0.260,-1.349,-0.279,-0.538,13.573,33.646,-2.864
1746584656.45,0.032,-0.072,-0.175,-1.423,-0.327,-0.668,11.876,33.242,-2.601
1746584656.47,0.091,-0.093,-0.111,-1.502,-0.368,-0.760,10.027,32.785,-2.423
1746584656.49,0.078,-0.114,-0.116,-1.643,-0.283,-0.759,8.038,32.364,-2.218
1746584656.51,0.084,-0.047,-0.168,-1.698,-0.252,-0.702,5.979,32.038,-1.926
1746584656.53,0.031,-0.021,-0.077,-1.755,-0.261,-0.666,3.896,31.704,-1.553
1746584656.55,-0.008,-0.012,-0.060,-1.800,-0.240,-0.704,1.748,31.385,-1.156
1746584656.57,-0.013,-0.051,-0.090,-1.829,-0.154,-0.691,-0.446,31.157,-0.754
1746584656.59,0.000,-0.018,-0.109,-1.792,-0.176,-0.697,-2.618,30.997,-0.360
1746584656.61,-0.020,-0.075,-0.037,-1.768,-0.166,-0.766,-4.785,30.810,-0.005
1746584656.63,-0.028,-0.133,-0.061,-1.729,-0.169,-0.818,-6.979,30.647,0.291
1746584656.65,-0.028,-0.110,-0.097,-1.701,-0.262,-0.830,-9.123,30.399,0.501
1746584656.67,0.002,-0.093,-0.002,-1.685,-0.140,-0.828,-11.284,30.238,0.750
1746584656.69,0.022,-0.114,-0.001,-1.560,-0.339,-0.863,-13.371,29.980,0.900
1746584656.71,-0.083,-0.107,0.038,-1.575,-0.352,-0.910,-15.431,29.542,0.961
1746584656.73,-0.158,-0.093,0.000,-1.510,-0.237,-0.984,-17.496,29.204,0.911
1746584656.75,-0.044,-0.033,-0.012,-1.563,-0.088,-0.934,-19.550,28.954,0.839
1746584656.77,0.028,-0.000,0.108,-1.473,-0.113,-0.917,-21.594,28.875,0.839
1746584656.79,0.039,-0.038,0.019,-1.366,-0.310,-1.005,-23.537,28.516,0.627
1746584656.81,0.044,-0.083,0.014,-1.459,-0.262,-0.889,-25.469,28.067,0.396
1746584656.83,0.009,-0.097,0.088,-1.458,-0.073,-0.747,-27.398,27.879,0.372
1746584656.85,0.011,-0.106,0.073,-1.278,-0.134,-0.740,-29.170,27.772,0.358
1746584656.87,0.064,-0.087,0.025,-1.143,-0.174,-0.818,-30.792,27.498,0.186
1746584656.89,0.072,-0.060,-0.037,-1.170,-0.212,-0.876,-32.396,27.116,-0.134
1746584656.91,0.072,-0.052,0.053,-1.294,-0.054,-0.787,-34.083,26.801,-0.394
1746584656.93,0.016,-0.097,0.108,-1.339,-0.033,-0.676,-35.818,26.761,-0.279
1746584656.95,-0.006,-0.124,-0.067,-1.269,-0.295,-0.689,-37.483,26.539,-0.197
1746584656.97,-0.012,-0.105,-0.094,-1.363,-0.173,-0.841,-39.205,26.152,-0.264
1746584656.99,-0.035,-0.080,0.006,-1.599,-0.068,-0.931,-41.166,25.869,-0.310
1746584657.01,0.011,-0.055,0.115,-1.767,0.090,-0.836,-43.364,25.804,-0.202
1746584657.03,0.063,-0.016,0.021,-1.715,0.333,-0.706,-45.531,26.143,0.007
1746584657.05,0.040,0.046,0.081,-1.809,0.319,-0.751,-47.689,26.701,0.241
1746584657.07,-0.042,0.010,0.056,-1.675,0.126,-0.876,-49.920,27.089,0.599
1746584657.09,0.009,-0.061,-0.088,-1.399,-0.225,-0.852,-51.922,26.882,0.644
1746584657.11,0.102,-0.122,0.066,-1.445,-0.144,-0.717,-53.752,26.533,0.742
1746584657.13,0.097,-0.170,0.116,-1.540,-0.037,-0.696,-55.637,26.537,1.045
1746584657.15,0.040,-0.161,0.041,-1.490,-0.215,-0.779,-57.573,26.459,1.320
1746584657.17,-0.003,-0.128,-0.039,-1.201,-0.437,-0.867,-59.383,25.811,1.211
1746584657.19,0.064,-0.123,-0.057,-1.054,-0.637,-0.748,-60.917,24.634,0.792
1746584657.21,0.145,-0.139,-0.060,-1.158,-0.578,-0.541,-62.353,23.636,0.666
1746584657.23,0.112,-0.144,-0.042,-1.222,-0.574,-0.444,-63.840,23.074,0.969
1746584657.25,-0.015,-0.129,-0.005,-1.112,-0.668,-0.467,-65.272,22.472,1.292
1746584657.27,-0.092,-0.092,-0.001,-1.062,-0.650,-0.541,-66.630,21.527,1.208
1746584657.29,-0.117,-0.062,-0.089,-1.007,-0.653,-0.471,-67.956,20.487,0.873
1746584657.31,-0.087,-0.054,-0.049,-0.985,-0.711,-0.269,-69.156,19.669,0.831
1746584657.33,-0.053,-0.045,0.033,-1.174,-0.826,-0.042,-70.359,19.471,1.544
1746584657.35,-0.090,-0.027,0.014,-1.355,-1.059,0.028,-71.733,19.850,3.081
1746584657.37,-0.111,-0.002,-0.000,-1.286,-1.014,-0.041,-73.171,20.278,4.816
1746584657.39,-0.091,0.005,0.007,-1.019,-0.666,-0.113,-74.435,20.609,6.171
1746584657.41,-0.061,-0.021,0.075,-1.005,-0.396,-0.168,-75.548,20.940,7.130
1746584657.43,-0.073,-0.073,0.009,-0.985,-0.276,-0.273,-76.706,21.307,7.896
1746584657.45,0.010,-0.066,-0.122,-1.167,-0.402,-0.355,-77.954,21.337,8.286
1746584657.47,0.101,-0.102,-0.048,-1.455,-0.958,-0.110,-79.470,21.982,9.689
1746584657.49,0.092,-0.106,0.117,-1.398,-1.590,0.268,-80.965,24.974,14.247
1746584657.51,0.006,0.008,-0.003,-0.769,-1.014,0.095,-81.975,28.789,19.751
1746584657.53,-0.093,0.020,-0.257,-0.342,-0.144,-0.223,-82.528,29.505,21.045
1746584657.55,-0.078,-0.076,-0.186,-0.530,-0.380,-0.061,-83.037,29.872,21.659
1746584657.57,-0.084,-0.100,-0.013,-0.549,-0.620,0.066,-83.582,32.268,24.690
1746584657.59,-0.117,-0.051,0.013,-0.378,-0.428,0.083,-83.970,35.017,28.082
1746584657.61,-0.132,0.029,-0.028,-0.347,-0.245,0.098,-84.229,37.741,31.183
1746584657.63,-0.052,0.042,0.098,-0.346,-0.441,0.022,-84.492,40.595,34.416
1746584657.65,0.044,0.060,0.192,-0.289,-0.640,-0.111,-84.796,42.048,36.525
1746584657.67,0.065,0.050,0.207,-0.379,-0.408,-0.092,-85.157,43.064,38.183
1746584657.69,0.028,0.017,0.120,-0.550,0.030,0.035,-85.561,47.352,42.694
1746584657.71,-0.037,-0.000,-0.043,-0.457,0.079,0.010,-85.912,53.972,49.226
1746584657.73,-0.008,-0.002,-0.058,-0.323,-0.155,-0.020,-86.166,59.089,54.395
1746584657.75,0.010,0.010,0.046,-0.275,-0.288,0.053,-86.316,63.307,58.900
1746584657.77,-0.009,-0.008,0.096,-0.319,-0.131,0.154,-86.338,68.580,64.443
1746584657.79,-0.078,-0.043,0.034,-0.347,0.046,0.147,-86.282,75.166,71.071
1746584657.81,-0.128,-0.051,-0.030,-0.286,-0.049,0.044,-86.252,80.986,76.884
1746584657.83,-0.111,-0.011,0.020,-0.245,-0.124,-0.070,-86.302,85.426,81.454
1746584657.85,-0.018,0.036,0.120,-0.197,0.068,-0.159,-86.450,89.334,85.414
1746584657.87,0.035,0.029,0.120,-0.156,0.096,-0.118,-86.621,92.640,88.607
1746584657.89,0.012,0.001,0.039,-0.285,-0.052,0.003,-86.661,96.825,92.763
1746584657.91,-0.058,-0.015,-0.087,-0.289,-0.296,-0.003,-86.594,102.466,98.620
1746584657.93,-0.051,-0.020,-0.033,-0.178,-0.224,-0.013,-86.542,106.468,102.971
1746584657.95,-0.013,0.007,0.065,-0.107,0.031,-0.002,-86.501,108.911,105.506
1746584657.97,-0.025,0.023,0.017,-0.081,-0.072,-0.023,-86.475,110.536,107.135
1746584657.99,-0.042,0.034,-0.072,-0.028,-0.148,-0.050,-86.498,111.653,108.405
1746584658.01,-0.032,0.015,-0.044,0.042,0.008,-0.016,-86.549,111.621,108.461
1746584658.03,-0.020,0.008,0.005,0.094,0.046,0.037,-86.561,110.536,107.325
1746584658.05,-0.022,-0.003,0.008,0.134,-0.024,0.059,-86.551,108.217,104.985
1746584658.07,-0.042,0.005,0.020,0.120,-0.080,0.026,-86.552,105.449,102.274
1746584658.09,-0.065,-0.009,0.055,0.080,-0.119,0.019,-86.577,103.177,100.118
1746584658.11,-0.089,-0.007,0.051,0.058,-0.081,0.042,-86.565,101.759,98.815
1746584658.13,-0.117,0.024,0.017,0.100,-0.063,0.005,-86.557,100.303,97.434
1746584658.15,-0.076,0.016,0.113,0.149,0.034,-0.026,-86.609,97.961,95.111
1746584658.17,-0.053,0.006,0.139,0.132,0.058,-0.007,-86.662,95.552,92.626
1746584658.19,-0.070,0.000,0.073,0.103,-0.104,0.013,-86.683,93.656,90.739
1746584658.21,-0.086,-0.016,0.050,0.122,-0.236,0.012,-86.704,91.422,88.718
1746584658.23,-0.108,-0.016,0.090,0.182,-0.089,0.022,-86.717,88.794,86.286
1746584658.25,-0.147,0.015,0.021,0.263,0.003,0.038,-86.687,85.242,82.758
1746584658.27,-0.132,0.036,0.017,0.341,0.052,0.006,-86.626,79.791,77.280
1746584658.29,-0.061,0.016,0.109,0.406,0.254,-0.035,-86.562,73.041,70.353
1746584658.31,-0.015,-0.022,0.134,0.456,0.357,-0.021,-86.435,65.688,62.611
1746584658.33,-0.018,-0.027,0.037,0.472,0.166,0.019,-86.187,58.716,55.307
1746584658.35,-0.022,-0.020,-0.027,0.514,0.022,0.030,-85.840,52.387,48.882
1746584658.37,-0.036,-0.049,0.037,0.592,0.203,0.017,-85.410,46.496,42.861
1746584658.39,-0.082,-0.028,-0.043,0.789,0.376,0.001,-84.839,40.657,36.652
1746584658.41,-0.123,0.017,-0.056,0.903,0.455,-0.045,-84.071,34.750,30.253
1746584658.43,-0.117,0.012,0.043,0.910,0.700,-0.107,-83.242,29.736,24.557
1746584658.45,-0.074,0.011,0.045,0.936,0.869,-0.119,-82.384,25.829,19.691
1746584658.47,-0.033,0.018,-0.004,0.978,0.956,-0.101,-81.429,22.888,15.692
1746584658.49,-0.011,-0.020,0.091,0.960,1.242,-0.069,-80.428,20.975,12.471
1746584658.51,0.001,-0.045,0.046,0.868,0.970,-0.006,-79.472,19.979,10.106
1746584658.53,0.053,-0.070,-0.067,0.920,0.601,0.063,-78.504,19.291,8.548
1746584658.55,0.046,-0.048,0.062,0.978,0.674,-0.030,-77.478,18.440,6.934
1746584658.57,0.061,0.004,-0.067,1.117,0.510,-0.017,-76.341,17.442,5.169
1746584658.59,0.049,0.043,-0.046,1.083,0.443,-0.003,-75.124,16.421,3.608
1746584658.61,0.009,0.009,0.022,1.008,0.582,0.018,-73.980,15.866,2.404
1746584658.63,-0.034,-0.050,-0.083,0.953,0.442,0.090,-72.895,15.603,1.519
1746584658.65,-0.070,-0.076,-0.000,0.901,0.734,0.084,-71.848,15.699,0.950
1746584658.67,-0.071,-0.078,-0.015,0.912,0.872,0.018,-70.828,15.945,0.196
1746584658.69,-0.022,-0.071,-0.116,0.882,0.678,0.196,-69.816,16.339,-0.355
1746584658.71,0.052,-0.005,-0.071,0.779,0.589,0.298,-68.812,17.063,-0.331
1746584658.73,0.085,-0.015,0.028,0.676,0.563,0.308,-67.918,17.960,-0.099
1746584658.75,0.142,-0.064,0.025,0.835,0.552,0.352,-67.023,18.775,0.107
1746584658.77,0.129,-0.082,-0.122,1.042,0.200,0.507,-65.821,19.472,0.371
1746584658.79,0.054,-0.042,-0.140,1.023,0.025,0.506,-64.493,19.884,0.733
1746584658.81,0.046,-0.031,0.029,0.801,0.246,0.400,-63.327,20.281,1.038
1746584658.83,0.035,-0.084,0.029,0.850,0.293,0.397,-62.308,20.821,1.217
1746584658.85,-0.001,-0.090,-0.051,0.812,0.029,0.565,-61.218,21.258,1.549
1746584658.87,0.023,-0.020,0.052,0.747,0.206,0.672,-60.134,22.033,2.267
1746584658.89,-0.003,0.058,-0.012,0.884,0.012,0.556,-59.017,22.684,2.887
1746584658.91,0.023,0.022,0.093,0.854,0.263,0.538,-57.846,23.058,3.176
1746584658.93,0.038,-0.049,0.027,0.856,0.230,0.650,-56.691,23.787,3.625
1746584658.95,0.024,-0.062,-0.089,0.886,-0.110,0.728,-55.443,24.309,4.191
1746584658.97,0.032,-0.013,0.061,0.764,0.048,0.632,-54.262,24.696,4.762
1746584658.99,-0.008,-0.020,0.059,0.827,0.144,0.520,-53.185,25.122,5.125
1746584659.01,-0.105,-0.045,-0.072,0.996,0.037,0.583,-51.962,25.345,5.360
1746584659.03,-0.076,-0.028,-0.010,0.831,0.381,0.591,-50.716,25.788,5.622
1746584659.05,-0.013,0.016,0.026,0.784,0.296,0.515,-49.636,26.436,5.909
1746584659.07,-0.004,0.065,0.057,0.882,0.155,0.487,-48.511,26.747,5.997
1746584659.09,0.024,0.055,0.027,0.794,0.158,0.600,-47.391,27.063,6.179
1746584659.11,-0.004,0.040,-0.032,0.867,0.099,0.612,-46.222,27.401,6.472
1746584659.13,-0.047,-0.021,-0.003,0.957,0.056,0.574,-44.995,27.629,6.633
1746584659.15,-0.048,-0.082,-0.042,1.103,-0.014,0.569,-43.647,27.678,6.686
1746584659.17,0.035,-0.069,0.026,1.076,0.107,0.494,-42.248,27.686,6.610
1746584659.19,0.064,-0.008,0.006,0.917,-0.038,0.491,-40.989,27.685,6.556
1746584659.20,0.036,0.051,0.029,0.865,-0.038,0.594,-39.802,27.705,6.660
1746584659.23,-0.029,0.011,0.042,0.852,0.051,0.593,-38.614,27.823,6.870
1746584659.24,-0.106,-0.040,-0.009,1.008,-0.081,0.531,-37.386,27.886,6.962
1746584659.26,-0.105,-0.089,-0.002,0.969,0.078,0.630,-36.055,27.846,6.999
1746584659.28,-0.047,-0.052,-0.034,0.934,0.204,0.597,-34.767,28.150,7.164
1746584659.30,-0.018,0.009,-0.016,0.984,0.137,0.494,-33.522,28.358,7.205
1746584659.32,-0.035,0.022,0.019,1.102,-0.081,0.386,-32.236,28.343,7.057
1746584659.34,-0.064,-0.043,0.036,1.130,-0.338,0.388,-30.890,27.944,6.786
1746584659.36,-0.070,-0.054,-0.022,1.117,-0.182,0.394,-29.549,27.499,6.554
1746584659.38,-0.086,0.006,0.011,1.060,0.151,0.411,-28.230,27.393,6.396
1746584659.40,-0.088,0.034,0.059,1.145,0.122,0.393,-26.916,27.492,6.202
1746584659.42,-0.015,-0.010,0.075,1.220,0.132,0.383,-25.504,27.510,5.936
1746584659.44,0.050,-0.026,0.078,1.211,0.046,0.466,-24.052,27.529,5.687
1746584659.46,0.066,-0.036,0.046,1.143,-0.127,0.481,-22.596,27.408,5.524
1746584659.48,0.032,-0.073,-0.008,1.103,-0.063,0.595,-21.183,27.259,5.493
1746584659.50,-0.032,-0.065,0.051,1.085,0.131,0.560,-19.772,27.290,5.498
1746584659.52,-0.054,-0.061,0.025,1.153,0.141,0.624,-18.331,27.476,5.525
1746584659.54,-0.036,-0.007,0.064,1.178,0.239,0.628,-16.822,27.721,5.536
1746584659.56,-0.034,0.035,-0.009,1.255,0.058,0.606,-15.275,27.931,5.548
1746584659.58,0.035,0.011,-0.006,1.214,0.173,0.708,-13.683,28.041,5.521
1746584659.60,-0.027,0.016,-0.012,1.268,0.130,0.725,-12.051,28.193,5.595
1746584659.62,-0.114,-0.122,-0.001,1.288,0.325,0.647,-10.379,28.468,5.577
1746584659.64,-0.145,-0.128,0.072,1.293,0.245,0.516,-8.753,28.830,5.493
1746584659.66,0.060,-0.022,-0.004,1.308,0.183,0.586,-7.182,29.027,5.275
1746584659.68,0.102,0.102,-0.098,1.304,0.042,0.791,-5.499,29.131,5.232
1746584659.70,-0.071,0.013,-0.095,1.301,0.120,0.711,-3.769,29.291,5.238
1746584659.72,-0.020,-0.067,-0.031,1.284,0.375,0.587,-2.130,29.609,5.086
1746584659.74,-0.023,-0.013,-0.061,1.333,0.335,0.567,-0.495,30.020,4.851
1746584659.76,0.005,0.114,-0.010,1.321,0.223,0.443,1.114,30.304,4.550
1746584659.78,-0.027,0.112,-0.138,1.395,0.136,0.511,2.738,30.510,4.158
1746584659.80,0.005,0.015,-0.118,1.480,0.109,0.423,4.418,30.686,3.660
1746584659.82,-0.021,-0.111,-0.021,1.493,0.268,0.357,6.124,30.907,3.088
1746584659.84,-0.020,-0.073,-0.026,1.488,0.369,0.299,7.770,31.348,2.412
1746584659.86,0.010,0.013,-0.031,1.476,0.290,0.162,9.368,31.812,1.655
1746584659.88,0.046,-0.061,-0.037,1.492,0.133,0.277,10.956,32.169,0.875
1746584659.90,0.085,-0.040,-0.092,1.436,0.134,0.340,12.562,32.442,0.147
1746584659.92,0.109,-0.052,-0.041,1.301,0.218,0.398,14.090,32.764,-0.489
1746584659.94,0.030,-0.092,-0.013,1.190,0.332,0.456,15.555,33.166,-0.957
1746584659.96,0.097,-0.047,-0.031,1.142,0.403,0.475,16.958,33.677,-1.390
1746584659.98,0.111,-0.099,-0.033,1.056,0.445,0.547,18.330,34.236,-1.744
1746584660.00,0.048,-0.125,-0.007,0.909,0.576,0.603,19.632,34.841,-1.980
1746584660.02,-0.064,-0.118,-0.055,0.705,0.424,0.598,20.789,35.444,-2.070
1746584660.04,0.129,-0.029,-0.154,0.687,0.308,0.551,21.808,35.849,-2.129
1746584660.06,0.112,-0.003,-0.141,0.670,0.200,0.516,22.804,36.101,-2.214
1746584660.08,-0.042,-0.015,-0.118,0.612,0.265,0.403,23.707,36.363,-2.361
1746584660.10,-0.001,0.037,-0.174,0.586,0.266,0.301,24.490,36.720,-2.591
1746584660.12,0.082,0.007,-0.175,0.556,0.177,0.227,25.192,37.043,-2.904
1746584660.14,0.035,-0.013,-0.150,0.447,0.243,0.209,25.804,37.342,-3.200
1746584660.16,-0.041,-0.070,-0.145,0.347,0.168,0.107,26.279,37.649,-3.490
1746584660.18,0.114,-0.049,-0.107,0.222,0.105,0.105,26.598,37.867,-3.742
1746584660.20,0.025,-0.074,-0.129,0.189,-0.003,0.021,26.836,37.963,-3.967
1746584660.22,0.036,-0.108,-0.067,0.113,0.042,-0.038,26.967,38.045,-4.219
1746584660.24,0.017,-0.063,-0.087,0.035,0.041,-0.086,26.982,38.140,-4.460
1746584660.26,0.049,-0.014,-0.088,-0.023,-0.018,-0.096,26.917,38.200,-4.684
1746584660.28,0.060,-0.018,-0.027,-0.068,-0.033,-0.093,26.812,38.190,-4.864
1746584660.30,0.005,-0.032,0.008,-0.133,0.029,-0.071,26.663,38.187,-4.994
1746584660.32,-0.004,-0.023,0.008,-0.175,0.029,-0.056,26.483,38.206,-5.057
1746584660.34,0.072,-0.028,-0.000,-0.203,-0.006,-0.004,26.287,38.167,-5.065
1746584660.36,0.003,-0.016,0.021,-0.215,-0.024,0.017,26.106,38.077,-5.003
1746584660.38,-0.085,-0.030,0.022,-0.181,-0.024,-0.026,25.937,37.990,-4.958
1746584660.40,0.000,-0.031,0.030,-0.196,-0.052,-0.033,25.752,37.901,-4.959
1746584660.42,-0.022,-0.007,-0.030,-0.227,-0.169,-0.082,25.544,37.744,-4.968
1746584660.44,0.014,-0.055,-0.068,-0.255,-0.257,-0.167,25.250,37.488,-5.010
1746584660.46,0.026,-0.057,-0.129,-0.256,-0.374,-0.223,24.894,37.112,-5.104
1746584660.48,0.024,-0.096,-0.050,-0.380,-0.285,-0.236,24.451,36.724,-5.188
1746584660.50,0.083,-0.043,-0.196,-0.421,-0.244,-0.245,23.916,36.409,-5.220
1746584660.52,0.030,-0.072,-0.161,-0.500,-0.245,-0.340,23.300,36.101,-5.251
1746584660.54,0.108,-0.087,-0.200,-0.649,-0.186,-0.377,22.525,35.833,-5.274
1746584660.56,0.158,-0.068,-0.204,-0.851,-0.162,-0.345,21.592,35.580,-5.170
1746584660.58,0.116,-0.068,-0.174,-1.009,-0.141,-0.319,20.509,35.280,-4.900
1746584660.60,0.045,-0.064,-0.132,-1.161,-0.081,-0.348,19.272,35.012,-4.524
1746584660.62,0.025,-0.076,-0.123,-1.309,-0.064,-0.369,17.888,34.759,-4.087
1746584660.64,0.025,-0.030,-0.127,-1.430,-0.062,-0.393,16.345,34.524,-3.569
1746584660.66,0.050,-0.066,-0.128,-1.463,-0.111,-0.468,14.701,34.280,-3.051
1746584660.68,0.043,-0.096,-0.082,-1.519,-0.118,-0.568,12.962,34.034,-2.595
1746584660.70,0.061,-0.070,-0.128,-1.485,-0.140,-0.589,11.158,33.799,-2.197
1746584660.72,0.013,-0.016,-0.056,-1.484,-0.142,-0.572,9.388,33.543,-1.807
1746584660.74,-0.034,-0.016,-0.021,-1.503,-0.066,-0.611,7.591,33.371,-1.419
1746584660.76,-0.025,-0.036,-0.009,-1.548,-0.065,-0.651,5.736,33.237,-1.050
1746584660.78,0.059,-0.033,-0.058,-1.552,-0.076,-0.628,3.855,33.128,-0.666
1746584660.80,0.053,0.020,-0.070,-1.573,-0.090,-0.644,1.959,33.020,-0.251
1746584660.82,0.033,-0.021,-0.073,-1.589,-0.184,-0.647,0.052,32.874,0.143
1746584660.84,-0.037,-0.016,-0.052,-1.601,-0.104,-0.691,-1.894,32.711,0.548
1746584660.86,-0.031,-0.029,-0.064,-1.576,-0.107,-0.721,-3.854,32.607,0.907
1746584660.88,0.059,-0.040,0.010,-1.607,-0.038,-0.682,-5.820,32.565,1.269
1746584660.90,0.021,0.009,-0.010,-1.557,-0.160,-0.647,-7.755,32.494,1.696
1746584660.92,-0.085,0.022,-0.045,-1.480,-0.205,-0.670,-9.612,32.323,2.084
1746584660.94,-0.052,0.045,-0.057,-1.531,-0.111,-0.689,-11.477,32.179,2.437
1746584660.96,0.009,0.003,-0.023,-1.460,-0.129,-0.753,-13.363,32.122,2.782
1746584660.98,0.022,-0.082,-0.087,-1.362,-0.437,-0.916,-15.231,31.839,2.957
1746584661.00,-0.016,-0.134,-0.090,-1.283,-0.635,-1.013,-17.089,31.125,2.883
1746584661.02,-0.117,-0.056,0.034,-1.265,-0.484,-1.003,-18.941,30.391,2.728
1746584661.04,-0.199,-0.025,0.088,-1.069,-0.403,-1.005,-20.671,29.784,2.496
1746584661.06,-0.121,-0.159,0.033,-1.009,-0.299,-1.080,-22.281,29.162,2.110
1746584661.08,0.066,-0.227,0.032,-1.044,-0.118,-0.972,-23.878,28.758,1.705
1746584661.10,0.169,-0.165,0.114,-1.106,-0.068,-0.831,-25.454,28.490,1.485
1746584661.12,0.153,-0.123,0.157,-1.080,-0.064,-0.690,-26.970,28.348,1.432
1746584661.14,0.046,-0.144,0.062,-0.980,-0.196,-0.652,-28.352,28.129,1.424
1746584661.16,0.009,-0.162,0.013,-1.021,-0.082,-0.592,-29.684,27.891,1.453
1746584661.18,0.043,-0.121,0.041,-1.137,0.125,-0.467,-31.070,27.955,1.643
1746584661.20,0.024,-0.056,0.027,-1.148,0.169,-0.382,-32.457,28.254,2.027
1746584661.22,0.028,-0.009,0.030,-1.160,0.093,-0.415,-33.819,28.568,2.440
1746584661.24,0.076,-0.010,-0.004,-1.175,-0.032,-0.426,-35.228,28.731,2.777
1746584661.26,0.077,-0.040,-0.011,-1.161,-0.112,-0.430,-36.619,28.825,3.195
1746584661.28,-0.027,-0.083,-0.040,-1.160,-0.185,-0.476,-38.047,28.785,3.586
1746584661.30,-0.036,-0.069,-0.021,-1.164,-0.084,-0.476,-39.463,28.751,3.949
1746584661.32,-0.011,-0.031,-0.004,-1.264,0.018,-0.509,-40.937,28.860,4.337
1746584661.34,0.006,-0.036,0.004,-1.272,0.154,-0.521,-42.519,29.133,4.690
1746584661.36,0.004,-0.041,-0.063,-1.106,0.075,-0.531,-43.992,29.430,5.068
1746584661.38,-0.014,-0.044,-0.089,-1.015,-0.168,-0.592,-45.345,29.389,5.267
1746584661.40,0.013,-0.091,-0.027,-1.095,-0.151,-0.595,-46.733,29.172,5.425
1746584661.42,0.046,-0.111,-0.101,-1.105,-0.143,-0.589,-48.158,29.047,5.548
1746584661.44,0.039,-0.096,-0.015,-1.114,-0.274,-0.632,-49.604,28.834,5.744
1746584661.46,-0.002,-0.045,-0.031,-1.095,-0.399,-0.711,-51.073,28.338,5.797
1746584661.48,-0.016,-0.007,-0.038,-1.124,-0.343,-0.749,-52.594,27.733,5.743
1746584661.50,-0.037,-0.012,0.034,-1.071,-0.425,-0.784,-54.113,27.025,5.579
1746584661.52,0.003,-0.036,0.012,-1.022,-0.390,-0.702,-55.558,26.233,5.338
1746584661.54,0.089,-0.042,0.044,-1.247,-0.483,-0.534,-57.013,25.615,5.392
1746584661.56,0.077,-0.001,0.056,-1.368,-0.379,-0.462,-58.629,25.348,5.755
1746584661.58,-0.002,0.040,0.006,-1.258,-0.363,-0.507,-60.227,25.205,6.060
1746584661.60,-0.085,0.041,0.002,-1.050,-0.523,-0.608,-61.693,24.659,6.017
1746584661.62,-0.069,-0.010,-0.023,-0.988,-0.550,-0.636,-63.027,23.656,5.597
1746584661.64,0.015,-0.107,-0.007,-1.076,-0.361,-0.498,-64.370,22.832,5.267
1746584661.66,0.083,-0.156,0.003,-1.175,-0.382,-0.213,-65.716,22.679,5.530
1746584661.68,0.062,-0.137,0.063,-1.274,-0.618,0.073,-67.039,23.240,6.764
1746584661.70,0.022,-0.057,-0.001,-1.256,-0.707,0.118,-68.314,24.176,8.610
1746584661.72,-0.013,0.005,-0.024,-1.316,-0.756,-0.017,-69.615,25.067,10.450
1746584661.74,-0.043,-0.007,0.014,-1.272,-0.892,-0.127,-71.007,25.739,12.159
1746584661.76,-0.075,-0.017,-0.014,-1.011,-1.032,-0.289,-72.275,25.695,13.275
1746584661.78,-0.092,-0.018,-0.047,-0.979,-0.955,-0.506,-73.474,24.721,13.480
1746584661.80,-0.065,-0.028,-0.030,-1.063,-0.674,-0.585,-74.807,23.409,13.072
1746584661.82,-0.031,-0.072,0.073,-1.153,-0.778,-0.350,-76.185,22.511,12.957
1746584661.84,-0.010,-0.069,0.096,-1.251,-0.946,-0.003,-77.532,23.031,14.508
1746584661.86,0.007,-0.077,0.143,-1.280,-1.037,0.181,-78.812,25.303,18.000
1746584661.88,-0.036,-0.019,0.036,-1.178,-0.736,0.021,-79.998,28.298,22.109
1746584661.90,-0.055,-0.017,0.006,-1.164,-0.375,-0.190,-81.212,31.036,25.511
1746584661.92,-0.019,-0.085,0.033,-1.196,-0.350,-0.105,-82.452,34.635,29.530
1746584661.94,-0.003,-0.087,0.051,-1.088,-0.474,0.044,-83.513,40.503,35.932
1746584661.96,-0.055,-0.024,-0.020,-0.975,-0.203,0.081,-84.298,48.268,44.165
1746584661.98,-0.030,-0.026,0.047,-0.904,0.101,0.112,-84.859,57.987,53.954
1746584662.00,-0.006,-0.062,0.080,-0.855,0.186,0.132,-85.178,69.075,64.919
1746584662.02,-0.017,-0.050,0.037,-0.842,0.131,0.123,-85.284,81.061,76.743
1746584662.04,-0.032,-0.009,-0.021,-0.661,-0.085,0.080,-85.223,91.646,87.338
1746584662.05,-0.073,0.038,-0.092,-0.433,-0.272,0.043,-85.096,98.664,94.595
1746584662.08,-0.112,0.092,-0.145,-0.267,-0.270,0.031,-84.987,102.715,98.994
1746584662.10,-0.082,0.113,-0.053,-0.092,0.068,0.057,-84.890,104.703,101.136
1746584662.11,-0.046,0.067,0.057,0.114,0.563,0.104,-84.805,104.721,100.780
1746584662.13,-0.033,-0.001,0.113,0.206,0.682,0.144,-84.712,102.945,98.237
1746584662.15,-0.071,-0.024,0.055,0.031,0.367,0.085,-84.605,101.605,96.261
1746584662.17,-0.081,-0.039,-0.049,-0.137,-0.074,-0.092,-84.591,102.609,97.118
1746584662.19,0.016,-0.044,-0.006,-0.108,-0.138,-0.107,-84.687,104.358,99.033
1746584662.21,0.056,0.023,0.051,-0.075,-0.110,-0.013,-84.722,105.388,100.190
1746584662.23,0.003,0.041,-0.049,-0.144,-0.312,-0.017,-84.696,106.512,101.550
1746584662.25,-0.043,-0.012,-0.065,-0.130,-0.431,-0.047,-84.684,107.890,103.386
1746584662.27,-0.041,-0.008,0.000,-0.055,-0.322,-0.039,-84.700,108.750,104.691
1746584662.29,-0.038,-0.013,0.006,0.028,-0.177,-0.012,-84.725,108.677,104.900
1746584662.31,-0.031,0.005,-0.014,0.065,-0.127,0.039,-84.733,107.820,104.205
1746584662.33,-0.039,0.061,-0.012,0.086,-0.112,0.053,-84.725,106.315,102.838
1746584662.35,-0.072,0.033,0.013,0.067,-0.009,-0.016,-84.738,105.285,101.882
1746584662.37,-0.050,-0.034,0.059,0.063,0.167,-0.030,-84.809,104.769,101.276
1746584662.39,-0.010,-0.070,0.085,0.080,0.248,0.003,-84.850,104.296,100.540
1746584662.41,0.013,-0.056,0.127,0.110,0.107,0.059,-84.859,103.143,99.164
1746584662.43,-0.034,0.001,0.048,-0.027,-0.146,0.095,-84.791,102.341,98.374
1746584662.45,-0.101,0.034,-0.035,-0.031,-0.376,0.020,-84.714,102.662,99.010
1746584662.47,-0.104,0.025,0.028,0.180,-0.327,-0.044,-84.754,101.566,98.337
1746584662.49,-0.085,0.036,0.065,0.283,-0.222,-0.042,-84.841,98.646,95.702
1746584662.51,-0.084,0.023,0.034,0.306,-0.230,-0.085,-84.954,94.955,92.258
1746584662.53,-0.061,-0.019,0.045,0.334,-0.069,-0.086,-85.078,90.615,88.094
1746584662.55,-0.036,-0.027,0.050,0.322,0.039,-0.048,-85.143,86.166,83.621
1746584662.57,-0.034,-0.003,0.013,0.260,-0.089,-0.043,-85.156,82.189,79.643
1746584662.59,-0.033,0.002,0.031,0.237,-0.165,-0.078,-85.178,78.644,76.248
1746584662.61,-0.026,-0.005,0.036,0.295,-0.093,-0.079,-85.201,74.748,72.495
1746584662.63,-0.011,-0.003,-0.021,0.403,0.023,-0.034,-85.147,69.979,67.750
1746584662.65,-0.017,0.008,-0.028,0.494,0.112,0.005,-84.961,64.559,62.220
1746584662.67,-0.061,0.031,-0.059,0.576,0.100,0.001,-84.666,58.817,56.324
1746584662.69,-0.103,0.018,-0.030,0.673,0.184,-0.043,-84.282,52.716,50.049
1746584662.71,-0.108,-0.029,0.083,0.724,0.393,-0.098,-83.823,46.622,43.597
1746584662.73,-0.078,-0.043,0.107,0.829,0.594,-0.092,-83.274,41.096,37.458
1746584662.75,-0.049,-0.018,0.047,0.986,0.704,-0.055,-82.507,36.079,31.651
1746584662.77,-0.045,-0.004,0.044,0.952,0.684,-0.080,-81.613,31.943,26.658
1746584662.79,-0.038,0.009,0.039,0.808,0.766,-0.115,-80.804,28.837,22.706
1746584662.81,-0.032,0.014,0.023,0.739,0.892,-0.128,-80.091,26.634,19.488
1746584662.83,-0.052,-0.028,0.133,0.677,0.906,-0.156,-79.437,24.921,16.712
1746584662.85,-0.044,-0.027,0.104,0.888,0.959,-0.124,-78.713,23.372,14.027
1746584662.87,-0.054,0.022,0.050,1.017,0.778,-0.138,-77.746,21.743,11.308
1746584662.89,-0.042,0.043,-0.087,0.964,0.356,-0.193,-76.735,19.745,8.621
1746584662.91,-0.013,0.017,-0.004,0.815,0.558,-0.148,-75.851,18.063,6.431
1746584662.93,0.000,-0.032,0.075,0.769,0.961,-0.060,-75.024,17.470,4.868
1746584662.95,-0.017,-0.044,-0.040,0.753,0.555,0.034,-74.230,17.427,3.886
1746584662.97,-0.040,-0.033,-0.035,1.044,0.500,0.033,-73.232,17.068,2.940
1746584662.99,-0.024,-0.047,-0.098,0.971,0.494,0.005,-72.073,16.634,1.855
1746584663.01,0.079,-0.059,-0.056,0.669,0.582,0.036,-71.189,16.430,1.062
1746584663.03,0.131,-0.057,0.091,0.623,0.957,0.209,-70.466,17.055,0.796
1746584663.05,0.133,-0.057,-0.055,0.887,0.725,0.466,-69.556,18.456,1.117
1746584663.07,0.047,-0.033,-0.087,0.851,0.199,0.493,-68.376,19.417,1.707
1746584663.09,0.046,-0.064,-0.003,0.646,0.565,0.421,-67.409,20.303,2.195
1746584663.11,0.066,-0.106,-0.054,0.522,0.766,0.529,-66.609,21.705,2.881
1746584663.13,0.032,-0.070,-0.079,0.871,0.551,0.559,-65.682,23.226,3.643
1746584663.15,-0.042,-0.036,-0.104,1.206,-0.288,0.460,-64.326,23.475,3.736
1746584663.17,0.019,-0.052,-0.003,1.014,-0.123,0.452,-62.911,22.989,3.631
1746584663.19,0.163,-0.080,0.077,0.547,0.484,0.580,-61.873,23.609,4.021
1746584663.21,0.146,-0.071,-0.015,0.625,0.211,0.752,-61.011,24.870,4.956
1746584663.23,0.046,0.011,-0.073,1.005,-0.234,0.735,-59.775,25.555,5.745
1746584663.25,-0.115,0.040,-0.031,1.101,-0.214,0.477,-58.378,25.354,5.929
1746584663.27,-0.144,-0.036,0.013,0.923,0.084,0.502,-57.093,25.288,5.883
1746584663.29,-0.126,-0.005,0.045,0.675,0.129,0.674,-55.996,25.747,6.279
1746584663.31,-0.042,0.096,0.032,0.627,0.169,0.766,-54.957,26.512,7.039
1746584663.33,0.029,0.114,0.065,0.827,0.556,0.579,-53.913,27.442,7.638
1746584663.35,0.011,-0.062,-0.062,1.199,0.141,0.414,-52.594,27.781,7.511
1746584663.37,0.007,-0.174,0.037,0.954,0.060,0.602,-51.206,27.698,7.353
1746584663.39,0.046,-0.080,0.027,0.753,0.009,0.723,-50.027,28.082,7.761
1746584663.41,-0.018,0.036,0.022,0.780,-0.010,0.675,-48.856,28.424,8.208
1746584663.43,-0.107,0.125,-0.035,0.797,-0.025,0.528,-47.750,28.586,8.480
1746584663.45,-0.091,0.040,0.051,0.908,0.106,0.458,-46.652,28.675,8.507
1746584663.47,-0.070,-0.015,-0.058,1.024,-0.006,0.534,-45.389,28.696,8.446
1746584663.49,-0.070,0.053,-0.067,0.902,0.080,0.489,-44.144,28.692,8.435
1746584663.51,-0.075,0.055,-0.077,0.933,0.039,0.437,-42.987,28.731,8.382
1746584663.53,-0.017,-0.029,0.020,1.088,0.133,0.401,-41.744,28.722,8.199
1746584663.55,0.041,-0.129,0.076,1.221,0.001,0.383,-40.380,28.602,7.878
1746584663.57,0.082,-0.085,-0.021,1.348,-0.278,0.293,-38.894,28.127,7.419
1746584663.59,0.039,0.028,0.023,1.082,0.061,0.246,-37.488,27.638,6.893
1746584663.61,-0.007,0.066,0.054,0.832,0.117,0.449,-36.383,27.672,6.704
1746584663.63,-0.068,0.073,0.071,0.922,0.179,0.557,-35.228,27.868,6.784
1746584663.65,-0.074,-0.028,0.066,1.036,0.060,0.538,-33.942,28.081,6.818
1746584663.67,-0.023,-0.072,-0.009,1.167,-0.004,0.404,-32.559,27.987,6.679
1746584663.69,0.008,0.013,-0.002,1.039,0.115,0.314,-31.248,27.893,6.397
1746584663.71,0.043,0.054,0.038,0.884,0.092,0.524,-30.068,27.958,6.284
1746584663.73,0.037,0.069,0.066,0.878,0.032,0.617,-28.879,28.109,6.431
1746584663.75,-0.047,-0.067,0.057,0.958,-0.133,0.585,-27.631,28.102,6.577
1746584663.77,-0.016,-0.158,0.036,1.102,0.049,0.473,-26.292,28.030,6.572
1746584663.79,-0.025,-0.047,-0.002,1.032,0.222,0.431,-24.980,28.135,6.425
1746584663.81,-0.008,0.088,0.016,0.994,0.236,0.540,-23.703,28.356,6.343
1746584663.83,0.076,0.049,0.047,0.930,0.206,0.621,-22.418,28.666,6.429
1746584663.85,0.035,-0.071,0.032,0.977,0.021,0.615,-21.133,28.820,6.536
1746584663.87,-0.036,-0.117,-0.002,1.091,-0.014,0.494,-19.799,28.820,6.538
1746584663.89,-0.041,-0.072,-0.072,1.240,-0.025,0.419,-18.385,28.756,6.329
1746584663.91,-0.007,0.058,0.102,1.188,0.043,0.447,-16.938,28.705,6.058
1746584663.93,-0.048,0.032,0.099,1.210,-0.060,0.461,-15.470,28.606,5.860
1746584663.95,-0.034,-0.132,0.040,1.158,0.073,0.548,-13.989,28.584,5.715
1746584663.97,-0.035,-0.084,-0.032,1.125,0.082,0.458,-12.569,28.599,5.546
1746584663.99,-0.025,0.017,-0.096,1.258,0.072,0.404,-11.142,28.664,5.295
1746584664.01,-0.008,0.023,0.013,1.270,0.168,0.462,-9.646,28.751,4.967
1746584664.03,-0.064,0.039,0.014,1.362,0.029,0.534,-8.049,28.817,4.674
1746584664.05,-0.174,0.073,0.089,1.394,0.173,0.551,-6.370,28.910,4.482
1746584664.07,-0.094,-0.023,-0.011,1.319,0.291,0.490,-4.698,29.093,4.153
1746584664.09,0.054,-0.082,-0.094,1.377,0.025,0.310,-3.127,29.210,3.726
1746584664.11,0.094,-0.094,-0.024,1.478,-0.103,0.255,-1.547,29.121,3.179
1746584664.13,0.068,-0.105,0.009,1.552,-0.097,0.296,0.122,28.997,2.523
1746584664.15,-0.043,-0.035,0.086,1.572,-0.001,0.351,1.863,28.936,1.877
1746584664.17,-0.089,0.040,0.130,1.441,0.232,0.401,3.580,29.131,1.314
1746584664.19,-0.070,0.013,0.056,1.391,0.398,0.428,5.213,29.506,0.852
1746584664.21,0.068,-0.014,-0.030,1.380,0.385,0.443,6.815,29.986,0.394
1746584664.23,0.147,-0.023,-0.099,1.396,0.326,0.509,8.467,30.464,-0.063
1746584664.25,0.110,0.004,-0.110,1.397,0.270,0.569,10.159,30.859,-0.470
1746584664.27,0.028,-0.059,-0.094,1.315,0.360,0.622,11.858,31.225,-0.793
1746584664.29,-0.005,-0.043,-0.115,1.232,0.447,0.643,13.460,31.741,-1.105
1746584664.31,-0.029,-0.050,-0.087,1.104,0.584,0.612,14.965,32.376,-1.348
1746584664.33,0.045,-0.078,-0.126,1.046,0.550,0.651,16.391,33.038,-1.524
1746584664.35,0.086,-0.018,-0.151,0.994,0.427,0.612,17.762,33.619,-1.711
1746584664.37,0.079,-0.037,-0.134,0.917,0.397,0.594,19.053,34.084,-1.905
1746584664.39,0.001,-0.055,-0.146,0.853,0.442,0.588,20.263,34.559,-2.059
1746584664.41,-0.027,-0.071,-0.094,0.808,0.504,0.480,21.401,35.107,-2.250
1746584664.43,0.076,-0.115,-0.055,0.669,0.543,0.406,22.375,35.748,-2.496
1746584664.45,0.079,-0.105,-0.087,0.513,0.536,0.400,23.199,36.375,-2.671
1746584664.47,0.043,-0.137,-0.112,0.263,0.277,0.378,23.828,36.815,-2.724
1746584664.49,0.113,-0.143,-0.092,0.055,0.416,0.372,24.211,37.081,-2.602
1746584664.51,0.056,-0.049,-0.165,-0.069,0.402,0.340,24.459,37.380,-2.362
1746584664.53,0.072,-0.004,-0.209,-0.192,0.352,0.313,24.556,37.662,-2.063
1746584664.55,0.063,0.067,-0.243,-0.219,0.229,0.228,24.562,37.796,-1.770
1746584664.57,-0.001,0.004,-0.223,-0.225,0.161,0.104,24.480,37.881,-1.560
1746584664.59,-0.010,-0.008,-0.183,-0.212,0.107,-0.011,24.311,37.937,-1.473
1746584664.61,-0.012,0.052,-0.171,-0.176,0.004,-0.111,24.091,37.958,-1.515
1746584664.63,-0.045,0.071,-0.134,-0.118,-0.100,-0.212,23.846,37.931,-1.681
1746584664.65,-0.041,0.023,-0.084,-0.073,-0.146,-0.253,23.595,37.850,-1.976
1746584664.67,-0.033,0.030,-0.054,-0.033,-0.214,-0.272,23.366,37.724,-2.312
1746584664.69,-0.063,-0.011,0.029,-0.004,-0.185,-0.278,23.152,37.595,-2.679
1746584664.71,-0.026,0.004,0.048,0.040,-0.170,-0.232,22.992,37.498,-3.059
1746584664.73,-0.032,0.002,0.054,0.064,-0.139,-0.194,22.893,37.415,-3.414
1746584664.75,-0.033,-0.007,0.066,0.075,-0.108,-0.134,22.843,37.365,-3.735
1746584664.77,0.024,-0.027,0.063,0.073,-0.062,-0.047,22.849,37.325,-3.988
1746584664.79,-0.013,-0.021,0.061,0.075,-0.061,0.014,22.909,37.278,-4.160
1746584664.81,-0.005,-0.023,0.067,0.081,-0.023,0.059,23.008,37.240,-4.284
1746584664.83,-0.019,-0.008,0.059,0.088,0.034,0.105,23.149,37.245,-4.369
1746584664.85,-0.022,-0.005,0.036,0.097,0.086,0.130,23.319,37.302,-4.418
1746584664.87,0.002,-0.006,0.010,0.103,0.053,0.133,23.503,37.368,-4.464
1746584664.89,0.032,0.005,-0.030,0.113,0.007,0.129,23.698,37.389,-4.518
1746584664.91,-0.040,0.021,-0.053,0.082,-0.051,0.061,23.869,37.363,-4.604
1746584664.92,0.031,-0.009,-0.110,0.066,-0.044,0.009,23.962,37.331,-4.726
1746584664.94,0.053,-0.042,-0.129,0.022,-0.114,-0.078,23.979,37.269,-4.888
1746584664.96,0.039,-0.085,-0.152,-0.047,-0.167,-0.223,23.876,37.161,-5.121
1746584664.98,0.172,-0.154,-0.251,-0.181,-0.274,-0.349,23.569,37.003,-5.419
1746584665.00,0.134,-0.133,-0.141,-0.404,-0.339,-0.479,23.029,36.722,-5.688
1746584665.02,0.123,-0.147,-0.234,-0.618,-0.297,-0.560,22.205,36.426,-5.904
1746584665.04,0.152,-0.168,-0.180,-0.901,-0.274,-0.621,21.115,36.120,-6.015
1746584665.06,0.251,-0.111,-0.267,-1.113,-0.321,-0.595,19.767,35.750,-5.938
1746584665.08,0.098,-0.086,-0.178,-1.317,-0.293,-0.639,18.231,35.293,-5.733
1746584665.10,0.117,-0.054,-0.242,-1.477,-0.301,-0.629,16.502,34.850,-5.420
1746584665.12,0.096,-0.067,-0.166,-1.588,-0.309,-0.671,14.639,34.403,-5.035
1746584665.14,0.087,-0.064,-0.108,-1.718,-0.261,-0.731,12.629,33.973,-4.635
1746584665.16,0.083,-0.018,-0.177,-1.790,-0.290,-0.736,10.496,33.588,-4.219
1746584665.18,0.025,0.028,-0.186,-1.859,-0.285,-0.703,8.311,33.187,-3.727
1746584665.20,0.037,0.043,-0.155,-1.924,-0.262,-0.689,6.054,32.795,-3.192
1746584665.22,0.054,-0.031,0.004,-1.913,-0.278,-0.692,3.784,32.436,-2.631
1746584665.24,0.018,-0.100,0.056,-1.946,-0.206,-0.661,1.514,32.123,-2.079
1746584665.26,-0.043,-0.031,-0.002,-2.128,-0.015,-0.526,-0.811,31.980,-1.366
1746584665.28,0.057,0.057,-0.188,-2.166,-0.033,-0.461,-3.199,32.041,-0.479
1746584665.30,0.096,-0.034,-0.023,-2.129,-0.169,-0.454,-5.550,31.985,0.444
1746584665.32,0.054,-0.113,-0.020,-2.053,-0.205,-0.498,-7.860,31.868,1.229
1746584665.34,-0.116,-0.062,0.045,-2.062,0.068,-0.543,-10.168,31.892,1.986
1746584665.36,-0.102,0.014,-0.022,-1.951,0.101,-0.647,-12.476,32.125,2.711
1746584665.38,-0.010,-0.014,0.005,-1.803,-0.072,-0.697,-14.713,32.308,3.205
1746584665.40,-0.076,-0.061,0.010,-1.672,-0.249,-0.777,-16.827,32.184,3.619
1746584665.42,-0.130,-0.078,0.021,-1.598,-0.241,-0.840,-18.902,31.972,3.900
1746584665.44,-0.142,-0.125,0.037,-1.423,-0.265,-0.910,-20.901,31.714,3.975
1746584665.46,-0.073,-0.127,0.030,-1.361,-0.236,-0.962,-22.805,31.375,4.016
1746584665.48,-0.043,-0.147,-0.027,-1.206,-0.209,-0.995,-24.642,31.054,3.947
1746584665.50,0.006,-0.165,0.026,-1.240,-0.239,-1.021,-26.432,30.659,3.729
1746584665.52,0.017,-0.190,0.076,-1.187,-0.214,-1.022,-28.229,30.248,3.546
1746584665.54,0.027,-0.138,0.046,-1.184,-0.156,-1.005,-29.954,29.830,3.314
1746584665.56,-0.023,-0.063,0.078,-1.171,-0.072,-0.927,-31.696,29.537,3.150
1746584665.58,0.011,-0.009,0.036,-1.165,0.043,-0.799,-33.328,29.390,2.984
1746584665.60,0.073,-0.066,0.014,-1.148,-0.061,-0.685,-34.895,29.334,2.889
1746584665.62,0.091,-0.118,0.038,-1.142,-0.038,-0.723,-36.409,29.235,3.004
1746584665.64,0.015,-0.126,0.093,-1.318,-0.060,-0.811,-38.071,29.109,3.066
1746584665.66,-0.016,-0.077,-0.005,-1.253,-0.044,-0.762,-39.811,29.005,3.166
1746584665.68,0.001,-0.003,-0.081,-1.261,-0.053,-0.684,-41.445,28.900,3.302
1746584665.70,0.013,-0.007,0.032,-1.411,0.119,-0.679,-43.162,28.995,3.390
1746584665.72,0.018,-0.080,0.021,-1.320,0.183,-0.692,-44.920,29.261,3.504
1746584665.74,0.055,-0.103,0.035,-1.261,0.149,-0.667,-46.579,29.485,3.555
1746584665.76,0.091,-0.080,-0.056,-1.252,0.067,-0.627,-48.181,29.692,3.655
1746584665.78,0.069,-0.068,0.011,-1.369,0.086,-0.658,-49.834,29.895,3.924
1746584665.80,0.029,-0.074,-0.019,-1.408,-0.051,-0.741,-51.623,30.065,4.093
1746584665.82,0.003,-0.058,-0.020,-1.239,-0.127,-0.812,-53.388,29.945,4.096
1746584665.84,-0.028,-0.048,-0.027,-1.056,-0.169,-0.888,-54.993,29.495,3.747
1746584665.86,0.066,-0.073,0.013,-1.159,-0.266,-0.870,-56.566,28.838,3.246
1746584665.88,0.163,-0.090,0.038,-1.351,-0.246,-0.769,-58.282,28.314,3.114
1746584665.90,0.150,-0.061,0.063,-1.438,-0.235,-0.690,-60.079,28.100,3.169
1746584665.92,0.063,-0.012,0.042,-1.346,-0.323,-0.707,-61.875,27.901,3.305
1746584665.94,-0.006,0.007,-0.035,-1.128,-0.523,-0.768,-63.510,27.231,3.085
1746584665.96,-0.024,-0.019,-0.050,-1.026,-0.660,-0.763,-64.992,26.043,2.533
1746584665.98,-0.000,-0.072,0.000,-1.157,-0.652,-0.673,-66.460,24.783,1.986
1746584666.00,0.012,-0.125,0.138,-1.341,-0.752,-0.419,-68.028,24.039,2.020
1746584666.02,-0.036,-0.116,0.115,-1.284,-0.923,-0.138,-69.543,23.929,2.943
1746584666.04,-0.068,-0.043,-0.024,-1.247,-0.972,-0.070,-70.888,24.232,4.419
1746584666.06,-0.077,-0.041,-0.062,-1.319,-0.956,-0.176,-72.274,24.567,5.923
1746584666.08,-0.057,-0.080,0.006,-1.378,-1.004,-0.225,-73.790,24.892,7.427
1746584666.10,-0.032,-0.099,0.042,-1.313,-0.984,-0.188,-75.282,25.304,9.040
1746584666.12,-0.014,-0.076,0.051,-1.274,-0.955,-0.130,-76.687,26.149,11.045
1746584666.14,-0.016,-0.035,0.060,-1.181,-0.858,-0.136,-78.014,27.332,13.323
1746584666.16,-0.073,0.040,-0.040,-0.954,-0.600,-0.258,-79.198,28.376,15.258
1746584666.18,-0.101,0.027,-0.051,-0.962,-0.375,-0.272,-80.290,29.105,16.532
1746584666.20,-0.059,-0.076,0.027,-1.087,-0.545,-0.104,-81.412,31.047,18.998
1746584666.22,-0.037,-0.103,0.035,-1.186,-0.845,0.010,-82.522,35.010,23.807
1746584666.24,0.022,-0.080,0.084,-1.326,-0.970,-0.019,-83.655,41.382,31.284
1746584666.26,0.053,-0.065,0.077,-1.244,-0.896,-0.161,-84.771,50.162,41.196
1746584666.28,0.095,-0.065,0.061,-1.018,-0.655,-0.227,-85.705,60.419,52.389
1746584666.30,0.112,-0.095,0.040,-0.919,-0.517,-0.099,-86.325,73.019,65.653
1746584666.32,0.097,-0.094,0.014,-0.928,-0.624,0.161,-86.462,88.944,82.262
1746584666.34,0.022,-0.047,-0.023,-0.944,-0.580,0.413,-86.005,103.869,97.918
1746584666.36,-0.056,0.017,-0.064,-0.898,-0.491,0.520,-85.145,113.948,108.635
1746584666.38,-0.151,0.070,-0.032,-0.748,-0.388,0.536,-84.173,119.603,114.827
1746584666.40,-0.269,0.103,-0.017,-0.473,-0.268,0.433,-83.321,122.107,117.711
1746584666.42,-0.331,0.110,0.007,-0.174,-0.216,0.188,-82.825,122.774,118.654
1746584666.44,-0.284,0.113,0.049,-0.046,-0.143,0.021,-82.681,122.858,118.947
1746584666.46,-0.176,0.110,0.021,-0.076,0.014,-0.015,-82.646,123.189,119.382
1746584666.48,-0.028,0.052,-0.007,0.075,0.295,0.028,-82.632,123.539,119.542
1746584666.50,-0.020,-0.024,0.011,0.314,0.418,0.092,-82.702,122.119,117.689
1746584666.52,-0.102,-0.038,0.085,0.265,0.350,0.100,-82.789,119.672,114.762
1746584666.54,-0.078,-0.007,0.082,0.072,0.272,0.043,-82.806,118.437,113.166
1746584666.56,-0.021,-0.004,0.024,0.068,0.172,0.035,-82.801,118.079,112.547
1746584666.58,-0.029,0.014,0.021,0.102,0.157,0.002,-82.829,117.452,111.744
1746584666.60,-0.034,-0.009,0.036,0.062,0.267,0.020,-82.869,117.001,111.042
1746584666.62,-0.008,-0.044,0.020,0.079,0.220,0.029,-82.872,116.670,110.411
1746584666.64,0.021,-0.024,0.035,0.066,0.181,0.053,-82.876,116.025,109.549
1746584666.66,0.013,0.027,0.010,-0.030,0.162,0.077,-82.814,115.870,109.180
1746584666.68,-0.024,0.026,-0.034,0.044,0.004,0.031,-82.756,115.946,109.160
1746584666.70,-0.029,-0.009,0.019,0.153,-0.026,0.008,-82.796,115.174,108.406
1746584666.72,-0.034,0.008,0.043,0.150,-0.029,0.045,-82.816,113.944,107.189
1746584666.74,-0.062,0.026,0.023,0.124,-0.087,0.026,-82.813,112.763,106.063
1746584666.76,-0.058,-0.005,0.065,0.196,-0.049,0.028,-82.878,111.220,104.601
1746584666.78,-0.070,-0.020,0.108,0.245,0.070,0.081,-82.927,109.222,102.573
1746584666.80,-0.109,-0.018,0.091,0.232,0.162,0.136,-82.901,107.110,100.300
1746584666.82,-0.151,0.007,0.015,0.194,0.146,0.107,-82.839,105.262,98.258
1746584666.84,-0.119,0.022,0.002,0.300,0.168,-0.000,-82.859,103.457,96.255
1746584666.86,-0.045,-0.003,0.076,0.429,0.227,-0.051,-83.000,100.756,93.293
1746584666.88,-0.002,-0.023,0.086,0.410,0.132,-0.021,-83.120,97.024,89.315
1746584666.90,0.019,-0.024,0.068,0.314,-0.024,-0.034,-83.185,93.654,85.862
1746584666.92,-0.003,-0.015,0.038,0.243,-0.216,-0.054,-83.251,90.910,83.225
1746584666.94,-0.063,0.017,-0.025,0.233,-0.453,-0.056,-83.306,88.236,80.933
1746584666.96,-0.088,0.027,0.004,0.298,-0.378,-0.101,-83.377,85.154,78.344
1746584666.98,-0.074,-0.005,0.073,0.427,0.022,-0.147,-83.471,81.236,74.618
1746584667.00,-0.050,-0.027,0.074,0.527,0.317,-0.166,-83.545,76.417,69.545
1746584667.02,-0.029,-0.034,0.038,0.599,0.323,-0.160,-83.544,70.848,63.550
1746584667.04,-0.020,-0.050,0.014,0.662,0.199,-0.127,-83.422,64.740,57.107
1746584667.06,-0.053,-0.049,0.043,0.670,0.188,-0.134,-83.189,58.644,50.756
1746584667.08,-0.076,-0.017,0.016,0.746,0.232,-0.170,-82.882,52.641,44.476
1746584667.10,-0.075,0.018,0.027,0.832,0.452,-0.194,-82.452,46.621,38.029
1746584667.12,-0.085,0.017,0.079,0.929,0.789,-0.207,-81.894,41.056,31.700
1746584667.14,-0.075,0.005,0.025,1.101,0.960,-0.165,-81.116,36.097,25.648
1746584667.16,-0.073,0.005,-0.043,1.136,0.870,-0.150,-80.152,31.886,20.308
1746584667.18,-0.066,0.001,-0.040,1.066,0.996,-0.146,-79.129,28.633,15.961
1746584667.20,-0.037,-0.027,0.072,0.961,1.078,-0.229,-78.223,26.292,12.314
1746584667.22,0.066,-0.060,0.061,1.123,0.950,-0.218,-77.272,24.062,8.855
1746584667.24,0.143,-0.017,0.045,1.306,0.813,-0.108,-76.070,21.960,5.678
1746584667.26,0.160,0.030,-0.257,1.496,0.416,0.100,-74.558,20.516,3.432
1746584667.28,0.074,0.054,-0.084,1.151,0.453,-0.007,-73.096,19.372,1.800
1746584667.30,0.079,-0.037,0.058,1.020,0.824,-0.088,-71.977,18.668,0.388
1746584667.32,0.043,-0.086,0.125,0.985,0.840,-0.012,-70.916,18.367,-0.748
1746584667.34,0.037,-0.041,0.057,0.996,0.695,0.210,-69.806,18.504,-1.492
1746584667.36,0.002,0.001,-0.078,0.971,0.410,0.405,-68.606,19.149,-1.584
1746584667.38,-0.048,-0.015,-0.169,0.741,0.274,0.424,-67.531,19.737,-1.084
1746584667.40,-0.025,-0.062,-0.033,0.746,0.858,0.309,-66.590,20.640,-0.613
1746584667.42,0.047,-0.054,0.040,0.718,0.767,0.349,-65.693,21.746,-0.418
1746584667.44,0.140,-0.040,0.067,1.039,0.587,0.470,-64.616,22.561,-0.029
1746584667.46,0.152,-0.080,-0.069,0.867,0.175,0.560,-63.295,23.268,0.386
1746584667.48,0.156,-0.105,-0.069,0.671,0.314,0.541,-62.264,23.971,1.116
1746584667.50,0.148,-0.067,-0.046,0.609,0.155,0.499,-61.368,24.744,1.843
1746584667.52,0.085,-0.000,-0.101,0.767,-0.236,0.440,-60.440,24.990,2.402
1746584667.54,0.003,0.064,0.041,1.022,-0.057,0.294,-59.347,24.700,2.512
1746584667.56,-0.156,0.021,-0.064,1.301,-0.486,0.200,-58.010,23.950,2.087
1746584667.58,-0.218,-0.078,-0.101,1.153,-0.441,0.389,-56.560,22.881,1.731
1746584667.60,-0.071,-0.076,-0.016,0.838,0.209,0.551,-55.304,22.862,2.017
1746584667.62,-0.025,-0.056,0.017,0.747,0.218,0.603,-54.240,23.561,2.627
1746584667.64,-0.018,-0.035,0.000,0.919,-0.065,0.574,-53.110,23.967,3.213
1746584667.66,-0.021,-0.013,-0.024,1.147,-0.089,0.354,-51.790,23.847,3.355
1746584667.68,-0.026,-0.030,-0.045,0.917,0.120,0.272,-50.541,23.618,3.191
1746584667.70,-0.001,-0.023,0.031,0.774,0.223,0.407,-49.537,23.812,3.271
1746584667.72,0.052,0.001,0.042,0.872,-0.024,0.523,-48.467,24.092,3.574
1746584667.74,0.041,0.026,0.046,0.908,-0.087,0.516,-47.284,24.132,3.891
1746584667.75,0.005,-0.031,0.042,0.978,0.018,0.463,-46.075,24.164,4.086
1746584667.77,0.020,-0.067,0.062,0.832,0.225,0.550,-44.872,24.389,4.320
1746584667.79,0.079,0.024,0.052,0.549,0.275,0.591,-43.892,24.930,4.789
1746584667.81,0.028,0.077,-0.000,0.594,0.113,0.640,-43.025,25.518,5.408
1746584667.83,-0.060,0.095,-0.004,0.793,0.032,0.527,-42.017,25.847,5.860
1746584667.85,-0.059,0.021,0.061,0.947,0.016,0.465,-40.884,25.932,6.029
1746584667.87,-0.073,-0.052,0.005,0.985,-0.052,0.517,-39.606,25.886,6.128
1746584667.89,-0.018,-0.019,-0.004,0.815,0.080,0.521,-38.419,25.997,6.295
1746584667.91,-0.025,0.005,-0.019,0.733,0.144,0.555,-37.381,26.254,6.579
1746584667.93,-0.062,-0.019,-0.025,0.875,0.186,0.490,-36.292,26.545,6.826
1746584667.95,-0.075,-0.079,0.015,1.065,0.061,0.387,-35.081,26.689,6.820
1746584667.97,-0.079,-0.045,-0.008,1.142,-0.124,0.387,-33.738,26.488,6.637
1746584667.99,-0.021,0.015,0.030,0.979,0.073,0.435,-32.439,26.361,6.525
1746584668.01,0.051,0.001,-0.017,0.815,0.081,0.544,-31.285,26.467,6.619
1746584668.03,0.067,-0.030,0.051,0.869,0.136,0.545,-30.158,26.699,6.829
1746584668.05,-0.018,-0.129,0.092,0.914,0.007,0.580,-28.949,26.839,6.991
1746584668.07,-0.010,-0.162,0.079,0.902,0.075,0.543,-27.727,26.945,7.153
1746584668.09,0.002,-0.012,0.059,0.878,0.105,0.571,-26.543,27.132,7.281
1746584668.11,-0.063,0.046,0.004,0.915,0.009,0.625,-25.316,27.241,7.450
1746584668.13,-0.045,-0.013,-0.037,0.827,0.181,0.639,-24.101,27.421,7.677
1746584668.15,-0.108,-0.020,-0.051,0.944,0.164,0.534,-22.909,27.730,7.818
1746584668.17,-0.047,-0.046,0.023,0.997,0.235,0.471,-21.653,27.933,7.793
1746584668.19,0.008,-0.037,0.014,1.051,0.034,0.463,-20.367,28.029,7.696
1746584668.21,-0.041,-0.017,0.013,1.051,0.064,0.537,-19.033,28.078,7.624
1746584668.23,-0.064,-0.011,-0.021,1.066,0.001,0.524,-17.685,28.119,7.581
1746584668.25,-0.001,-0.018,-0.001,1.120,0.017,0.488,-16.315,28.098,7.467
1746584668.27,0.011,-0.007,-0.049,1.303,-0.200,0.400,-14.845,27.912,7.220
1746584668.29,-0.014,-0.030,-0.027,1.308,-0.059,0.449,-13.287,27.676,6.909
1746584668.31,-0.089,0.068,0.055,1.309,-0.037,0.445,-11.711,27.548,6.614
1746584668.33,-0.057,0.016,0.030,1.229,0.061,0.469,-10.184,27.499,6.347
1746584668.35,0.055,0.024,-0.031,1.155,0.105,0.556,-8.699,27.569,6.160
1746584668.37,0.069,0.041,-0.023,1.114,-0.044,0.573,-7.247,27.554,6.070
1746584668.39,0.014,0.027,0.002,1.156,0.074,0.584,-5.788,27.553,5.992
1746584668.41,-0.036,0.043,0.071,1.135,0.211,0.611,-4.320,27.724,5.912
1746584668.43,-0.018,0.033,-0.008,1.172,0.342,0.747,-2.796,28.059,5.901
1746584668.45,-0.032,0.042,0.029,1.146,0.450,0.761,-1.213,28.537,5.942
1746584668.47,-0.025,-0.106,-0.005,1.051,0.333,0.692,0.290,28.997,5.981
1746584668.49,0.078,-0.026,-0.049,1.146,0.249,0.685,1.753,29.330,5.976
1746584668.51,0.064,0.033,-0.043,1.166,0.085,0.722,3.290,29.503,5.895
1746584668.53,-0.080,0.122,-0.057,1.190,0.175,0.674,4.868,29.616,5.848
1746584668.55,-0.074,0.025,-0.105,1.323,0.163,0.545,6.449,29.824,5.638
1746584668.57,0.066,-0.088,-0.083,1.361,0.059,0.359,8.033,30.024,5.185
1746584668.59,0.095,-0.092,-0.076,1.323,0.071,0.320,9.563,30.145,4.627
1746584668.61,0.015,-0.028,-0.095,1.280,0.097,0.404,11.051,30.310,4.095
1746584668.63,-0.053,0.006,-0.053,1.284,0.198,0.392,12.536,30.560,3.614
1746584668.65,-0.071,-0.070,0.002,1.207,0.242,0.258,13.967,30.885,3.083
1746584668.67,0.098,-0.130,-0.048,1.122,0.183,0.258,15.249,31.239,2.487
1746584668.69,0.130,-0.099,-0.091,1.043,0.147,0.351,16.486,31.517,1.989
1746584668.71,0.024,-0.062,-0.051,0.941,0.216,0.404,17.682,31.787,1.616
1746584668.73,0.001,-0.060,-0.007,0.857,0.367,0.454,18.814,32.166,1.344
1746584668.75,0.008,-0.045,-0.019,0.787,0.424,0.441,19.882,32.651,1.140
1746584668.77,0.057,-0.065,-0.057,0.677,0.339,0.416,20.850,33.104,0.961
1746584668.79,0.142,-0.039,-0.130,0.587,0.259,0.483,21.724,33.414,0.860
1746584668.81,0.030,-0.014,-0.166,0.535,0.233,0.481,22.568,33.639,0.841
1746584668.83,-0.047,0.022,-0.106,0.465,0.169,0.368,23.314,33.846,0.800
1746584668.85,0.066,0.001,-0.157,0.414,0.096,0.288,23.925,33.983,0.684
1746584668.87,0.088,0.033,-0.188,0.397,0.006,0.238,24.480,34.041,0.525
1746584668.89,0.073,0.064,-0.205,0.350,-0.035,0.190,24.976,34.041,0.340
1746584668.91,0.028,0.016,-0.204,0.258,-0.045,0.120,25.360,34.015,0.149
1746584668.93,0.014,0.019,-0.195,0.196,-0.038,0.042,25.626,33.995,-0.065
1746584668.95,0.014,-0.021,-0.165,0.143,-0.022,-0.057,25.786,34.020,-0.317
1746584668.97,0.043,-0.064,-0.117,0.068,-0.046,-0.146,25.824,34.059,-0.628
1746584668.99,0.041,-0.071,-0.107,-0.023,-0.099,-0.195,25.732,34.055,-0.943
1746584669.01,0.035,-0.038,-0.081,-0.091,-0.097,-0.212,25.551,34.012,-1.224
1746584669.03,0.012,-0.020,-0.046,-0.141,-0.099,-0.218,25.304,33.964,-1.483
1746584669.05,0.008,-0.022,-0.001,-0.196,-0.106,-0.208,25.004,33.886,-1.705
1746584669.07,0.008,-0.009,0.003,-0.206,-0.087,-0.161,24.694,33.793,-1.866
1746584669.09,-0.027,-0.001,-0.003,-0.193,-0.089,-0.115,24.418,33.695,-1.968
1746584669.11,-0.027,-0.005,0.028,-0.171,-0.087,-0.088,24.186,33.588,-2.043
1746584669.13,-0.071,-0.008,0.058,-0.126,-0.099,-0.113,23.983,33.480,-2.141
1746584669.15,-0.033,-0.008,0.048,-0.060,-0.147,-0.110,23.829,33.365,-2.298
1746584669.17,-0.041,-0.026,0.060,-0.004,-0.176,-0.116,23.736,33.216,-2.492
1746584669.19,-0.052,-0.011,0.037,0.034,-0.239,-0.132,23.682,33.027,-2.729
1746584669.21,-0.035,-0.040,0.044,0.035,-0.228,-0.120,23.648,32.820,-2.969
1746584669.23,-0.003,-0.035,-0.004,0.013,-0.251,-0.102,23.620,32.611,-3.199
1746584669.25,0.025,-0.041,-0.014,-0.029,-0.209,-0.063,23.544,32.438,-3.297
1746584669.27,-0.048,-0.024,-0.039,-0.133,-0.168,-0.112,23.433,32.225,-3.427
1746584669.29,0.035,-0.025,-0.127,-0.194,-0.171,-0.129,23.203,32.051,-3.525
1746584669.31,0.053,-0.000,-0.098,-0.178,-0.197,-0.163,22.886,31.967,-3.552
1746584669.33,0.002,-0.082,-0.128,-0.257,-0.198,-0.287,22.548,31.782,-3.740
1746584669.35,0.084,-0.151,-0.143,-0.460,-0.239,-0.384,22.002,31.587,-3.940
1746584669.37,0.134,-0.093,-0.264,-0.556,-0.328,-0.404,21.269,31.291,-4.103
1746584669.39,0.061,-0.101,-0.184,-0.745,-0.209,-0.399,20.396,30.983,-4.160
1746584669.41,0.036,-0.053,-0.213,-0.943,-0.136,-0.422,19.323,30.764,-4.118
1746584669.43,0.088,-0.105,-0.218,-1.161,-0.148,-0.471,18.032,30.537,-3.986
1746584669.45,0.195,-0.055,-0.281,-1.265,-0.317,-0.475,16.555,30.214,-3.778
1746584669.47,0.123,-0.069,-0.165,-1.424,-0.353,-0.452,14.965,29.751,-3.497
1746584669.49,0.072,-0.001,-0.104,-1.571,-0.300,-0.360,13.212,29.308,-3.031
1746584669.51,-0.008,-0.002,-0.085,-1.609,-0.202,-0.386,11.433,28.874,-2.510
1746584669.53,0.003,-0.032,-0.048,-1.631,-0.044,-0.505,9.556,28.671,-2.059
1746584669.55,-0.000,0.019,-0.014,-1.631,0.042,-0.549,7.636,28.634,-1.695
1746584669.57,0.088,-0.012,-0.068,-1.659,-0.007,-0.438,5.706,28.625,-1.294
1746584669.59,0.051,0.052,-0.051,-1.659,-0.069,-0.418,3.821,28.536,-0.780
1746584669.61,-0.051,0.016,0.035,-1.638,-0.045,-0.522,1.895,28.431,-0.314
1746584669.63,0.064,-0.102,0.018,-1.635,-0.027,-0.431,-0.018,28.392,0.132
1746584669.65,0.017,0.003,0.021,-1.530,-0.067,-0.463,-1.850,28.367,0.611
1746584669.67,-0.074,0.023,0.014,-1.427,-0.076,-0.573,-3.618,28.272,0.963
1746584669.69,-0.079,-0.031,-0.008,-1.370,-0.113,-0.669,-5.357,28.198,1.123
1746584669.71,-0.067,0.016,0.001,-1.333,-0.024,-0.673,-7.082,28.129,1.249
1746584669.73,-0.027,0.042,-0.014,-1.255,-0.099,-0.684,-8.747,28.057,1.344
1746584669.75,0.002,-0.037,0.057,-1.227,-0.129,-0.723,-10.371,27.925,1.408
1746584669.77,0.075,-0.079,-0.039,-1.240,-0.120,-0.641,-11.984,27.745,1.447
1746584669.79,0.014,-0.017,-0.050,-1.250,-0.174,-0.582,-13.568,27.614,1.612
1746584669.81,0.006,-0.000,-0.040,-1.215,-0.225,-0.618,-15.136,27.397,1.771
1746584669.83,0.006,-0.076,0.057,-1.152,-0.373,-0.698,-16.678,27.036,1.837
1746584669.85,0.036,-0.177,0.008,-1.105,-0.511,-0.674,-18.188,26.487,1.795
1746584669.87,0.056,-0.176,-0.021,-1.242,-0.267,-0.493,-19.657,25.990,1.899
1746584669.89,-0.002,-0.162,-0.019,-1.293,-0.187,-0.358,-21.183,25.887,2.249
1746584669.91,-0.023,-0.148,0.100,-1.288,-0.076,-0.448,-22.707,25.783,2.633
1746584669.93,-0.022,-0.220,0.055,-1.227,-0.111,-0.565,-24.273,25.741,2.869
1746584669.95,0.058,-0.126,0.021,-1.247,-0.108,-0.498,-25.798,25.635,3.053
1746584669.97,-0.000,0.084,-0.002,-1.201,-0.212,-0.414,-27.292,25.524,3.362
1746584669.99,-0.084,0.164,-0.030,-1.198,-0.245,-0.397,-28.728,25.330,3.687
1746584670.01,-0.032,0.060,0.097,-1.159,-0.104,-0.365,-30.137,25.259,4.054
1746584670.03,-0.020,-0.109,0.028,-1.050,-0.216,-0.456,-31.482,25.169,4.338
1746584670.05,-0.014,-0.128,-0.021,-1.034,-0.198,-0.536,-32.781,24.884,4.452
1746584670.07,-0.098,-0.070,-0.029,-1.063,-0.149,-0.566,-34.147,24.641,4.525
1746584670.09,-0.135,-0.029,-0.009,-1.040,-0.002,-0.583,-35.509,24.488,4.545
1746584670.11,-0.063,-0.064,-0.000,-1.029,0.155,-0.572,-36.856,24.497,4.563
1746584670.13,0.060,-0.126,-0.061,-0.941,0.138,-0.552,-38.143,24.587,4.573
1746584670.15,0.118,-0.137,-0.090,-1.011,0.006,-0.594,-39.409,24.562,4.556
1746584670.17,0.060,-0.130,-0.045,-1.124,-0.107,-0.604,-40.815,24.397,4.560
1746584670.19,-0.010,-0.089,-0.013,-1.146,0.058,-0.593,-42.275,24.273,4.611
1746584670.21,0.007,-0.041,-0.029,-1.210,0.098,-0.595,-43.777,24.329,4.689
1746584670.23,0.075,-0.015,-0.057,-1.161,-0.040,-0.620,-45.310,24.283,4.760
1746584670.25,0.094,0.001,-0.027,-1.102,-0.009,-0.660,-46.784,24.113,4.736
1746584670.27,0.043,-0.012,-0.007,-1.097,-0.120,-0.686,-48.234,23.839,4.609
1746584670.29,-0.012,-0.034,-0.028,-1.144,-0.314,-0.652,-49.726,23.359,4.471
1746584670.31,-0.004,-0.042,-0.045,-1.141,-0.289,-0.593,-51.197,22.821,4.385
1746584670.33,0.027,-0.049,0.030,-1.244,-0.245,-0.536,-52.704,22.431,4.426
1746584670.35,0.039,-0.049,0.001,-1.195,-0.352,-0.556,-54.252,22.065,4.524
1746584670.37,0.041,-0.017,-0.083,-0.987,-0.523,-0.642,-55.648,21.310,4.358
1746584670.39,0.041,-0.015,0.009,-1.173,-0.601,-0.681,-57.034,20.220,3.988
1746584670.41,0.051,-0.056,0.106,-1.528,-0.532,-0.588,-58.743,19.289,3.811
1746584670.43,0.044,-0.088,0.090,-1.508,-0.405,-0.422,-60.614,18.811,4.031
1746584670.45,0.054,-0.049,-0.012,-1.242,-0.408,-0.313,-62.225,18.580,4.409
1746584670.47,0.042,-0.025,0.001,-1.163,-0.571,-0.276,-63.618,18.252,4.817
1746584670.49,0.008,-0.049,0.001,-1.194,-0.707,-0.303,-64.994,17.737,5.195
1746584670.51,-0.011,-0.087,-0.017,-1.277,-0.773,-0.294,-66.444,17.093,5.539
1746584670.53,-0.016,-0.094,-0.026,-1.336,-0.884,-0.174,-67.957,16.557,6.119
1746584670.55,-0.019,-0.090,0.051,-1.425,-1.006,0.019,-69.490,16.409,7.252
1746584670.57,-0.064,-0.089,0.082,-1.363,-1.100,0.119,-71.009,16.721,9.020
1746584670.58,-0.069,-0.033,-0.031,-1.142,-0.918,-0.003,-72.352,17.055,10.744
1746584670.61,-0.022,0.009,-0.015,-1.143,-0.703,-0.178,-73.605,16.975,11.749
1746584670.62,-0.017,0.001,0.121,-1.321,-0.702,-0.184,-75.012,16.941,12.642
1746584670.64,-0.025,-0.000,0.083,-1.311,-0.774,-0.086,-76.524,17.238,13.961
1746584670.66,-0.033,-0.048,0.068,-1.218,-0.529,0.105,-77.886,18.456,16.122
1746584670.68,-0.062,-0.049,-0.039,-1.232,-0.175,0.191,-79.131,21.238,19.398
1746584670.70,-0.045,-0.050,-0.017,-1.225,-0.215,0.164,-80.350,25.165,23.647
1746584670.72,-0.015,-0.050,0.015,-1.079,-0.256,0.061,-81.469,29.413,28.361
1746584670.74,0.017,-0.034,0.041,-0.854,-0.193,-0.009,-82.401,33.298,32.621
1746584670.76,0.003,-0.052,0.000,-0.775,-0.065,0.034,-83.139,37.312,36.822
1746584670.78,-0.007,-0.100,-0.030,-0.735,-0.003,0.091,-83.761,42.676,42.242
1746584670.80,0.001,-0.088,-0.018,-0.555,-0.131,0.150,-84.189,48.502,48.176
1746584670.82,0.003,0.002,0.009,-0.480,-0.023,0.287,-84.352,54.387,54.209
1746584670.84,-0.012,0.054,0.009,-0.450,0.199,0.361,-84.320,61.139,60.877
1746584670.86,-0.044,0.067,0.009,-0.382,0.211,0.303,-84.174,67.339,66.856
1746584670.88,-0.054,0.046,0.048,-0.354,0.199,0.177,-84.059,72.250,71.564
1746584670.90,-0.075,0.001,0.096,-0.412,0.150,0.116,-84.022,76.832,75.967
1746584670.92,-0.084,-0.017,0.111,-0.504,0.132,0.124,-83.981,82.143,81.147
1746584670.94,-0.124,0.011,0.040,-0.512,0.016,0.082,-83.908,87.927,86.864
1746584670.96,-0.150,0.059,-0.120,-0.379,-0.206,0.000,-83.859,92.623,91.705
1746584670.98,-0.147,0.096,-0.145,-0.218,-0.167,-0.074,-83.880,95.519,94.871
1746584671.00,-0.068,0.061,0.017,-0.110,0.175,-0.091,-83.961,97.418,96.771
1746584671.02,0.007,-0.021,0.090,0.035,0.189,-0.083,-84.047,98.153,97.256
1746584671.04,0.057,-0.061,0.114,-0.087,0.120,-0.096,-84.153,98.428,97.374
1746584671.06,0.084,-0.059,0.019,-0.340,0.057,-0.007,-84.180,101.147,99.984
1746584671.08,0.028,-0.030,-0.081,-0.284,-0.285,0.109,-84.025,104.568,103.532
1746584671.10,-0.039,0.012,-0.011,-0.103,-0.366,0.085,-83.861,105.695,105.099
1746584671.12,-0.055,0.018,0.096,-0.055,0.033,0.115,-83.731,106.032,105.615
1746584671.14,-0.098,0.011,0.046,0.018,0.064,0.108,-83.593,105.942,105.438
1746584671.16,-0.144,0.031,-0.004,0.052,-0.027,0.036,-83.519,105.364,104.834
1746584671.18,-0.131,0.030,-0.006,0.195,-0.090,-0.011,-83.548,104.104,103.643
1746584671.20,-0.054,-0.013,0.071,0.257,0.081,0.020,-83.616,101.788,101.331
1746584671.22,0.012,-0.025,0.033,0.225,0.148,0.086,-83.616,99.532,98.899
1746584671.24,-0.008,-0.010,0.082,0.216,0.012,0.096,-83.566,97.288,96.551
1746584671.26,-0.041,-0.013,0.122,0.127,-0.009,0.052,-83.528,95.477,94.727
1746584671.28,-0.060,-0.008,0.056,0.041,-0.119,0.030,-83.502,94.705,94.006
1746584671.30,-0.046,0.022,-0.010,0.085,-0.248,-0.012,-83.497,94.055,93.576
1746584671.32,-0.019,0.003,0.045,0.185,-0.190,0.002,-83.514,92.563,92.324
1746584671.34,-0.028,-0.001,0.070,0.178,-0.232,0.037,-83.510,90.782,90.762
1746584671.36,-0.042,0.026,0.073,0.099,-0.309,0.068,-83.466,89.410,89.684
1746584671.38,-0.069,0.027,0.043,0.135,-0.425,0.067,-83.406,87.970,88.655
1746584671.40,-0.104,0.009,0.042,0.223,-0.375,0.058,-83.335,85.807,86.958
1746584671.42,-0.124,-0.009,0.100,0.291,-0.141,0.053,-83.243,83.089,84.526
1746584671.44,-0.127,-0.005,0.115,0.336,-0.027,0.033,-83.142,80.051,81.541
1746584671.46,-0.107,0.022,0.054,0.362,-0.078,0.005,-83.043,76.824,78.344
1746584671.48,-0.078,-0.005,0.015,0.442,-0.125,0.001,-82.925,73.126,74.742
1746584671.50,-0.055,-0.023,0.026,0.531,-0.061,0.013,-82.737,68.831,70.526
1746584671.52,-0.026,-0.044,0.020,0.643,0.033,0.042,-82.443,64.214,65.891
1746584671.54,-0.014,-0.043,-0.004,0.784,0.088,0.057,-82.006,59.210,60.761
1746584671.56,-0.036,-0.012,0.030,0.793,0.188,0.013,-81.466,54.262,55.609
1746584671.58,-0.078,0.004,0.077,0.760,0.339,-0.097,-80.959,49.848,50.849
1746584671.60,-0.089,0.016,0.069,0.818,0.549,-0.170,-80.477,45.662,46.098
1746584671.62,-0.100,0.013,0.079,0.948,0.831,-0.234,-79.906,41.495,41.065
1746584671.64,-0.112,0.034,-0.003,1.175,0.908,-0.338,-79.171,36.987,35.455
1746584671.66,-0.150,0.047,0.032,1.147,0.887,-0.481,-78.322,32.223,29.532
1746584671.68,-0.110,0.020,-0.004,1.076,0.818,-0.446,-77.516,27.989,24.254
1746584671.70,-0.052,-0.040,0.065,1.007,1.077,-0.323,-76.640,25.046,20.113
1746584671.72,0.039,-0.015,-0.001,1.034,0.870,-0.283,-75.722,23.015,16.837
1746584671.74,0.176,-0.014,-0.044,1.061,0.900,-0.117,-74.697,21.366,14.166
1746584671.76,0.203,-0.021,-0.106,0.938,0.776,0.107,-73.635,20.900,12.747
1746584671.78,0.054,-0.036,-0.143,1.024,0.602,0.153,-72.542,20.904,12.109
1746584671.80,0.037,-0.073,-0.010,1.094,0.952,0.037,-71.358,20.727,11.127
1746584671.82,0.080,-0.092,0.083,0.984,1.036,0.011,-70.245,20.764,9.980
1746584671.84,0.092,-0.120,-0.037,0.912,0.588,0.226,-69.212,20.948,9.292
1746584671.86,0.039,-0.097,-0.115,0.886,0.405,0.454,-68.081,21.454,9.377
1746584671.88,0.010,-0.064,0.107,0.609,1.064,0.468,-67.095,22.712,9.927
1746584671.90,0.056,-0.040,-0.082,0.775,0.798,0.445,-66.204,24.309,10.364
1746584671.92,0.068,0.050,-0.093,0.970,0.076,0.401,-65.072,24.795,10.517
1746584671.94,0.066,0.064,0.029,1.030,0.130,0.316,-63.858,24.686,10.355
1746584671.96,-0.044,-0.045,-0.075,0.919,-0.169,0.327,-62.690,24.338,10.112
1746584671.98,0.022,-0.114,0.008,0.826,0.121,0.479,-61.585,24.321,10.209
1746584672.00,0.052,-0.059,-0.037,0.748,-0.026,0.492,-60.555,24.647,10.571
1746584672.02,0.030,0.029,-0.021,1.072,0.106,0.418,-59.405,24.803,10.693
1746584672.04,0.027,0.047,0.080,1.183,0.088,0.312,-58.040,24.603,10.415
1746584672.06,-0.053,-0.029,-0.117,1.197,-0.246,0.337,-56.639,24.121,9.968
1746584672.08,0.022,-0.085,0.055,0.863,0.140,0.548,-55.363,23.992,9.985
1746584672.10,0.147,-0.094,0.023,0.722,0.155,0.724,-54.237,24.641,10.513
1746584672.12,0.113,-0.018,0.057,0.702,0.135,0.703,-53.158,25.329,11.235
1746584672.14,0.008,0.059,0.111,0.740,0.164,0.522,-52.115,25.918,11.748
1746584672.16,-0.037,0.038,0.016,0.947,0.041,0.509,-51.011,26.112,11.898
1746584672.18,-0.065,-0.004,-0.085,0.814,0.054,0.695,-49.765,26.317,12.172
1746584672.20,-0.020,0.021,-0.011,0.599,0.195,0.693,-48.700,26.920,12.766
1746584672.22,-0.015,0.047,0.063,0.646,0.050,0.574,-47.767,27.444,13.273
1746584672.24,-0.036,0.027,-0.039,0.933,-0.233,0.500,-46.684,27.485,13.444
1746584672.26,-0.073,-0.010,-0.038,0.927,-0.155,0.490,-45.465,27.210,13.480
1746584672.28,-0.146,-0.065,-0.057,0.908,0.107,0.480,-44.281,27.200,13.471
1746584672.30,-0.133,-0.091,-0.007,0.722,0.319,0.583,-43.177,27.551,13.646
1746584672.32,-0.007,-0.060,0.023,0.823,0.263,0.523,-42.111,28.054,13.891
1746584672.34,0.009,-0.043,-0.005,1.023,0.244,0.428,-40.925,28.294,13.849
1746584672.36,0.043,-0.062,0.047,1.021,0.300,0.491,-39.648,28.537,13.714
1746584672.38,0.122,-0.035,0.028,0.936,0.176,0.548,-38.362,28.809,13.681
1746584672.40,0.133,0.004,0.065,0.800,0.063,0.541,-37.210,28.977,13.756
1746584672.42,0.034,-0.056,0.048,0.813,0.080,0.601,-36.097,29.162,13.898
1746584672.44,-0.037,-0.067,0.048,0.814,0.100,0.647,-34.932,29.399,14.111
1746584672.46,-0.070,-0.010,-0.019,0.933,-0.007,0.581,-33.731,29.504,14.253
1746584672.48,-0.067,0.043,-0.042,0.884,0.192,0.526,-32.475,29.623,14.246
1746584672.50,-0.080,0.071,0.010,0.769,0.208,0.530,-31.393,29.932,14.309
1746584672.52,-0.047,0.059,0.026,0.968,0.028,0.579,-30.221,30.106,14.345
1746584672.54,-0.046,0.013,0.023,1.061,-0.177,0.518,-28.887,30.016,14.287
1746584672.56,-0.040,-0.070,-0.004,1.087,-0.231,0.347,-27.577,29.653,14.056
1746584672.58,-0.055,-0.054,-0.053,1.131,-0.071,0.235,-26.319,29.292,13.664
1746584672.60,-0.042,0.035,0.010,0.968,0.140,0.322,-25.117,29.165,13.301
1746584672.62,0.050,0.075,0.060,0.999,0.034,0.440,-23.926,29.223,13.145
1746584672.64,0.032,0.018,0.140,1.084,-0.093,0.437,-22.643,29.140,12.988
1746584672.66,0.077,-0.112,0.090,1.037,-0.056,0.467,-21.329,28.958,12.826
1746584672.68,0.064,-0.096,0.017,1.019,0.036,0.457,-20.057,28.935,12.714
1746584672.70,0.034,0.024,0.017,1.070,0.005,0.497,-18.746,28.913,12.611
1746584672.72,-0.012,0.014,0.006,1.057,-0.136,0.482,-17.407,28.814,12.463
1746584672.74,-0.027,-0.027,0.086,0.999,-0.029,0.482,-16.116,28.707,12.339
1746584672.76,-0.042,-0.005,-0.011,1.082,-0.142,0.410,-14.831,28.549,12.212
1746584672.78,-0.018,-0.023,-0.046,1.093,-0.016,0.530,-13.481,28.434,11.983
1746584672.80,-0.038,-0.003,-0.001,1.123,-0.014,0.419,-12.109,28.398,11.753
1746584672.82,-0.002,-0.025,0.031,1.127,0.107,0.420,-10.746,28.405,11.490
1746584672.84,-0.019,0.057,0.028,1.186,-0.006,0.423,-9.366,28.418,11.226
1746584672.86,0.028,0.051,-0.023,1.266,-0.051,0.483,-7.893,28.363,11.006
1746584672.88,-0.030,0.046,-0.042,1.274,-0.070,0.438,-6.347,28.296,10.722
1746584672.90,-0.062,0.009,-0.016,1.281,0.101,0.415,-4.837,28.287,10.341
1746584672.92,-0.027,-0.001,-0.021,1.315,-0.001,0.377,-3.313,28.326,9.892
1746584672.94,0.005,-0.015,0.061,1.341,-0.073,0.400,-1.773,28.230,9.433
1746584672.96,-0.052,0.014,-0.040,1.312,-0.061,0.445,-0.195,28.154,9.075
1746584672.98,0.002,0.008,-0.103,1.321,0.190,0.605,1.404,28.227,8.806
1746584673.00,-0.095,-0.085,-0.031,1.334,0.247,0.399,3.010,28.437,8.503
1746584673.02,-0.014,-0.117,0.020,1.302,0.332,0.418,4.537,28.790,8.023
1746584673.04,-0.006,-0.009,-0.075,1.316,0.307,0.451,6.086,29.185,7.561
1746584673.06,-0.046,0.079,-0.084,1.238,0.261,0.464,7.632,29.527,7.158
1746584673.08,-0.062,0.042,-0.121,1.193,0.192,0.489,9.103,29.803,6.778
1746584673.10,0.083,-0.035,-0.077,1.184,0.233,0.421,10.521,30.094,6.361
1746584673.12,0.063,-0.081,-0.104,1.202,0.158,0.431,11.964,30.367,5.928
1746584673.14,0.048,0.004,-0.012,1.122,0.247,0.378,13.355,30.617,5.486
1746584673.16,-0.008,0.015,-0.081,1.047,0.275,0.480,14.674,30.965,5.110
1746584673.18,0.025,0.003,-0.059,1.003,0.420,0.489,15.961,31.425,4.797
1746584673.20,0.078,-0.062,-0.071,0.967,0.375,0.422,17.183,31.963,4.430
1746584673.22,0.137,-0.065,-0.085,0.891,0.356,0.456,18.336,32.419,4.088
1746584673.24,0.038,-0.055,-0.117,0.836,0.361,0.487,19.463,32.832,3.821
1746584673.26,-0.026,-0.032,-0.093,0.762,0.409,0.432,20.519,33.300,3.571
1746584673.28,0.026,-0.068,-0.068,0.686,0.336,0.353,21.450,33.771,3.278
1746584673.30,0.113,-0.038,-0.092,0.591,0.231,0.305,22.257,34.136,2.959
1746584673.32,0.072,-0.066,-0.152,0.537,0.143,0.292,22.994,34.369,2.689
1746584673.34,-0.031,-0.032,-0.088,0.428,0.097,0.161,23.597,34.529,2.393
1746584673.36,0.054,-0.079,-0.153,0.395,0.100,0.080,24.059,34.739,2.041
1746584673.38,0.061,-0.062,-0.162,0.332,0.112,0.025,24.431,34.935,1.658
1746584673.40,0.058,-0.055,-0.172,0.210,0.052,-0.015,24.694,35.121,1.295
1746584673.42,0.071,-0.063,-0.105,0.060,-0.004,-0.030,24.796,35.190,1.004
1746584673.44,0.055,-0.064,-0.063,-0.041,0.027,-0.037,24.783,35.213,0.791
1746584673.46,0.046,-0.052,-0.048,-0.124,0.126,-0.022,24.686,35.296,0.658
1746584673.47,0.061,-0.015,-0.053,-0.202,0.131,0.021,24.527,35.391,0.616
1746584673.49,0.022,0.003,-0.048,-0.264,0.031,0.028,24.332,35.396,0.664
1746584673.51,0.006,0.007,-0.025,-0.251,0.043,0.025,24.102,35.357,0.728
1746584673.53,-0.039,0.009,0.014,-0.236,0.084,0.019,23.887,35.334,0.768
1746584673.55,-0.049,0.018,-0.025,-0.198,0.047,0.015,23.695,35.348,0.794
1746584673.57,-0.035,0.037,0.009,-0.162,0.055,0.023,23.536,35.347,0.805
1746584673.59,-0.027,0.033,0.010,-0.101,0.053,0.037,23.433,35.356,0.786
1746584673.61,-0.045,0.045,0.007,-0.036,0.049,0.038,23.397,35.377,0.736
1746584673.63,-0.103,0.047,0.040,-0.007,0.055,0.002,23.385,35.390,0.633
1746584673.65,-0.020,0.056,-0.039,0.084,0.024,0.006,23.415,35.440,0.482
1746584673.67,-0.039,0.007,0.004,0.137,0.012,-0.074,23.501,35.489,0.242
1746584673.69,-0.047,-0.021,-0.034,0.128,-0.074,-0.182,23.534,35.548,-0.108
1746584673.71,0.008,-0.049,-0.082,0.109,-0.144,-0.278,23.483,35.534,-0.539
1746584673.73,0.116,-0.059,-0.170,0.066,-0.310,-0.352,23.359,35.408,-1.054
1746584673.75,0.093,-0.093,-0.097,-0.058,-0.221,-0.364,23.121,35.244,-1.531
1746584673.77,0.054,-0.093,-0.136,-0.254,-0.110,-0.369,22.740,35.129,-1.902
1746584673.79,0.127,-0.066,-0.203,-0.454,-0.116,-0.384,22.177,35.077,-2.135
1746584673.81,0.208,-0.077,-0.239,-0.656,-0.123,-0.366,21.397,34.934,-2.220
1746584673.83,0.118,-0.076,-0.199,-0.830,-0.153,-0.397,20.456,34.714,-2.171
1746584673.85,0.094,-0.089,-0.192,-0.974,-0.220,-0.446,19.340,34.449,-2.051
1746584673.87,0.087,-0.092,-0.149,-1.126,-0.223,-0.523,18.035,34.115,-1.895
1746584673.89,0.120,-0.069,-0.213,-1.208,-0.294,-0.560,16.579,33.739,-1.721
1746584673.91,0.060,-0.050,-0.181,-1.250,-0.355,-0.572,15.057,33.293,-1.529
1746584673.93,0.018,-0.049,-0.077,-1.348,-0.346,-0.620,13.444,32.839,-1.333
1746584673.95,0.095,-0.031,-0.030,-1.469,-0.325,-0.599,11.709,32.388,-1.098
1746584673.97,0.087,-0.009,-0.069,-1.517,-0.187,-0.452,9.945,32.032,-0.719
1746584673.99,-0.079,0.025,-0.022,-1.476,-0.096,-0.549,8.201,31.790,-0.302
1746584674.01,0.037,0.007,-0.026,-1.432,-0.097,-0.545,6.453,31.652,0.001
1746584674.03,0.005,0.013,-0.030,-1.435,-0.149,-0.537,4.742,31.501,0.351
1746584674.05,0.049,-0.006,-0.072,-1.402,-0.251,-0.553,3.044,31.246,0.665
1746584674.07,-0.022,0.002,-0.026,-1.430,-0.279,-0.551,1.332,30.934,0.966
1746584674.09,-0.071,-0.034,-0.016,-1.508,-0.083,-0.480,-0.406,30.706,1.338
1746584674.11,0.050,0.006,-0.031,-1.517,-0.090,-0.481,-2.172,30.658,1.791
1746584674.13,0.145,-0.079,0.074,-1.503,-0.095,-0.551,-3.958,30.548,2.191
1746584674.15,0.016,-0.112,-0.030,-1.470,-0.137,-0.536,-5.733,30.459,2.554
1746584674.17,-0.073,0.004,-0.045,-1.493,-0.057,-0.523,-7.508,30.355,2.945
1746584674.19,0.002,0.046,-0.056,-1.504,0.018,-0.479,-9.257,30.405,3.386
1746584674.21,0.001,-0.047,0.013,-1.450,-0.054,-0.542,-11.024,30.464,3.822
1746584674.23,-0.058,-0.086,-0.057,-1.361,-0.181,-0.698,-12.761,30.348,4.085
1746584674.25,-0.117,-0.046,-0.049,-1.264,-0.051,-0.788,-14.480,30.205,4.181
1746584674.27,-0.044,-0.016,-0.045,-1.265,0.094,-0.846,-16.197,30.204,4.185
1746584674.29,0.059,-0.047,-0.023,-1.232,0.005,-0.910,-17.934,30.246,4.134
1746584674.31,0.020,-0.071,-0.028,-1.207,-0.179,-1.015,-19.686,30.043,3.976
1746584674.33,-0.068,-0.081,0.008,-1.164,-0.106,-0.996,-21.443,29.742,3.732
1746584674.35,-0.075,-0.075,0.026,-1.088,-0.138,-0.954,-23.115,29.479,3.494
1746584674.37,-0.001,-0.070,-0.014,-1.079,-0.167,-0.923,-24.704,29.150,3.248
1746584674.39,-0.002,-0.108,-0.051,-1.103,-0.120,-0.943,-26.302,28.824,3.004
1746584674.41,-0.004,-0.156,0.052,-1.204,-0.010,-0.931,-27.981,28.608,2.783
1746584674.43,0.096,-0.183,0.035,-1.151,0.032,-0.756,-29.630,28.496,2.664
1746584674.45,0.196,-0.144,0.108,-1.278,0.039,-0.538,-31.206,28.567,2.823
1746584674.47,0.165,-0.134,-0.014,-1.259,-0.007,-0.517,-32.753,28.684,3.177
1746584674.49,0.068,-0.165,0.023,-1.291,0.032,-0.642,-34.352,28.796,3.463
1746584674.51,-0.010,-0.206,0.087,-1.331,-0.097,-0.642,-36.027,28.806,3.699
1746584674.53,-0.075,-0.196,0.028,-0.944,-0.225,-0.633,-37.547,28.634,3.867
1746584674.55,-0.003,-0.115,-0.135,-0.909,-0.233,-0.600,-38.752,28.213,3.835
1746584674.57,0.084,-0.094,0.053,-1.296,0.284,-0.659,-40.198,28.208,3.931
1746584674.59,0.212,-0.140,0.006,-1.458,0.244,-0.550,-41.953,28.683,4.289
1746584674.61,0.224,-0.111,0.030,-1.458,0.084,-0.362,-43.648,29.197,4.949
1746584674.63,0.052,0.001,-0.047,-1.428,-0.071,-0.464,-45.305,29.639,5.717
1746584674.65,-0.131,0.109,-0.091,-1.280,-0.375,-0.832,-47.026,29.533,6.078
1746584674.67,-0.165,0.131,-0.152,-1.093,-0.708,-1.020,-48.727,28.571,5.803
1746584674.69,-0.119,0.089,-0.133,-1.157,-0.641,-0.917,-50.367,27.288,5.355
1746584674.71,-0.064,0.018,0.004,-1.395,-0.274,-0.795,-52.101,26.491,5.173
1746584674.73,0.042,-0.076,0.124,-1.623,-0.061,-0.682,-54.030,26.343,5.369
1746584674.75,0.104,-0.116,0.165,-1.726,-0.127,-0.550,-56.058,26.596,5.932
1746584674.77,0.066,-0.074,0.144,-1.699,-0.111,-0.532,-58.094,26.958,6.662
1746584674.79,0.088,-0.027,-0.080,-1.468,0.132,-0.586,-59.984,27.413,7.313
1746584674.81,0.106,-0.022,-0.087,-1.545,-0.048,-0.658,-61.825,27.785,7.705
1746584674.83,0.084,-0.091,0.011,-1.633,-0.514,-0.648,-63.783,27.845,8.204
1746584674.85,0.038,-0.147,0.015,-1.518,-0.901,-0.544,-65.710,27.508,8.747
1746584674.87,-0.007,-0.153,-0.034,-1.387,-1.095,-0.399,-67.420,26.988,9.447
1746584674.89,-0.031,-0.191,-0.021,-1.494,-1.190,-0.265,-69.042,26.671,10.601
1746584674.91,-0.051,-0.188,-0.088,-1.629,-1.075,-0.191,-70.762,26.961,12.401
1746584674.93,-0.046,-0.156,-0.104,-1.558,-1.124,-0.129,-72.473,27.763,14.691
1746584674.95,-0.008,-0.091,0.096,-1.556,-1.420,-0.000,-74.068,28.924,17.429
1746584674.97,-0.009,0.073,0.124,-1.464,-1.293,-0.094,-75.595,30.387,20.607
1746584674.99,0.025,0.114,0.068,-1.300,-0.976,-0.265,-77.052,31.711,23.291
1746584675.01,0.047,0.001,0.059,-1.336,-0.811,-0.360,-78.496,32.928,25.552
1746584675.03,0.036,-0.109,0.010,-1.440,-1.009,-0.359,-80.058,34.788,28.472
1746584675.05,0.051,-0.173,0.055,-1.437,-1.250,-0.206,-81.583,37.867,32.917
1746584675.07,0.073,-0.168,0.099,-1.321,-1.171,0.007,-82.864,43.386,39.914
1746584675.09,0.028,-0.121,0.080,-1.178,-0.664,0.162,-83.751,51.800,49.465
1746584675.11,-0.006,-0.090,0.070,-1.158,-0.139,0.326,-84.228,63.457,61.633
1746584675.13,-0.057,-0.041,-0.001,-1.064,0.204,0.442,-84.244,77.093,75.264
1746584675.15,-0.113,0.032,-0.063,-0.604,-0.098,0.327,-83.916,87.191,85.287
1746584675.17,-0.113,0.068,0.061,-0.284,-0.582,0.158,-83.663,91.032,89.585
1746584675.19,-0.159,0.091,0.066,-0.506,-0.377,0.219,-83.446,94.075,93.245
1746584675.21,-0.243,0.107,-0.115,-0.427,-0.229,0.239,-83.098,98.598,98.107
1746584675.23,-0.217,0.087,0.023,0.002,-0.015,0.079,-82.883,100.045,99.757
1746584675.25,-0.123,0.050,0.219,0.115,0.441,0.032,-82.851,99.414,98.858
1746584675.27,-0.101,0.019,0.184,-0.007,0.418,-0.023,-82.848,99.418,98.325
1746584675.29,-0.052,-0.021,0.069,-0.143,0.153,-0.058,-82.888,100.530,99.111
1746584675.31,-0.065,0.001,0.004,-0.190,-0.023,-0.030,-82.894,102.277,100.824
1746584675.33,-0.073,0.029,0.047,-0.036,0.097,-0.068,-82.917,103.497,102.026
1746584675.35,-0.022,0.001,0.125,0.044,0.337,-0.058,-82.998,103.696,101.978
1746584675.37,0.036,-0.030,0.048,-0.042,0.251,-0.023,-83.042,104.148,102.047
1746584675.39,0.040,-0.018,-0.007,-0.104,-0.061,0.035,-83.016,104.922,102.722
1746584675.41,-0.037,0.022,0.001,-0.110,-0.200,0.090,-82.908,105.625,103.609
1746584675.43,-0.107,0.040,0.020,-0.006,-0.006,0.061,-82.805,106.066,104.183
1746584675.45,-0.142,0.028,0.038,0.172,0.119,0.064,-82.751,105.373,103.407
1746584675.47,-0.148,0.022,0.042,0.278,0.169,0.001,-82.769,103.390,101.238
1746584675.49,-0.112,-0.000,0.083,0.337,0.164,-0.094,-82.899,100.980,98.608
1746584675.51,-0.056,-0.009,0.149,0.364,0.142,-0.088,-83.091,98.051,95.484
1746584675.53,-0.051,0.023,0.081,0.274,0.031,-0.022,-83.211,95.242,92.539
1746584675.55,-0.068,0.039,-0.007,0.243,-0.099,-0.048,-83.276,92.901,90.239
1746584675.57,-0.031,-0.015,0.098,0.301,-0.027,-0.048,-83.348,90.205,87.602
1746584675.59,-0.023,-0.066,0.178,0.306,-0.059,0.007,-83.365,87.112,84.518
1746584675.61,-0.059,-0.036,0.140,0.208,-0.241,0.043,-83.308,84.417,81.972
1746584675.63,-0.099,0.024,0.070,0.132,-0.366,0.002,-83.257,82.517,80.427
1746584675.65,-0.102,0.053,0.065,0.197,-0.243,-0.065,-83.269,80.642,78.909
1746584675.67,-0.101,0.051,0.075,0.370,-0.038,-0.110,-83.308,77.649,76.055
1746584675.69,-0.113,0.033,0.057,0.536,0.058,-0.138,-83.316,73.070,71.417
1746584675.71,-0.111,-0.012,0.041,0.636,0.078,-0.137,-83.235,67.253,65.484
1746584675.73,-0.069,-0.039,0.063,0.646,0.205,-0.127,-83.052,61.349,59.391
1746584675.75,-0.022,-0.050,0.089,0.660,0.384,-0.129,-82.786,55.947,53.599
1746584675.77,-0.011,-0.054,0.097,0.728,0.384,-0.148,-82.449,50.874,48.020
1746584675.79,0.001,-0.014,-0.045,0.977,0.165,-0.161,-81.931,45.097,41.859
1746584675.81,-0.018,0.010,-0.057,0.976,0.049,-0.254,-81.217,38.796,35.408
1746584675.83,-0.050,-0.034,0.080,0.761,0.394,-0.347,-80.641,33.615,29.925
1746584675.85,-0.028,-0.061,-0.014,0.903,0.698,-0.220,-80.032,29.739,25.343
1746584675.87,-0.045,-0.012,-0.066,1.086,0.801,-0.078,-79.094,26.877,21.541
1746584675.89,-0.073,0.016,-0.033,1.081,0.798,-0.086,-78.006,24.741,18.433
1746584675.91,-0.059,-0.008,-0.056,1.169,0.732,-0.102,-76.891,22.831,15.566
1746584675.93,-0.029,0.007,-0.143,1.260,0.641,-0.065,-75.629,21.116,13.015
1746584675.95,0.018,-0.006,0.043,1.008,0.921,-0.026,-74.401,20.026,10.953
1746584675.97,0.068,-0.082,0.095,0.863,1.155,0.107,-73.426,20.164,9.853
1746584675.99,0.074,-0.107,-0.109,1.255,0.884,0.315,-72.229,20.755,9.190
1746584676.01,0.017,-0.047,-0.149,1.389,0.560,0.324,-70.615,20.958,8.606
1746584676.03,-0.016,0.016,-0.011,1.111,0.477,0.072,-69.214,20.762,7.764
1746584676.05,-0.003,-0.010,-0.034,0.906,0.434,0.022,-68.126,20.267,6.709
1746584676.07,0.064,-0.053,0.164,0.839,0.964,0.171,-67.173,20.473,6.064
1746584676.09,0.098,-0.034,0.130,1.078,0.905,0.332,-66.074,21.362,5.799
1746584676.11,0.083,0.023,-0.168,1.206,0.009,0.507,-64.618,21.788,5.663
1746584676.13,0.027,0.039,0.004,0.796,0.081,0.516,-63.351,21.998,5.967
1746584676.15,0.009,-0.034,0.059,0.767,0.585,0.460,-62.327,22.737,6.344
1746584676.17,0.068,-0.107,0.044,0.707,0.344,0.551,-61.336,23.692,6.752
1746584676.19,0.185,-0.094,0.077,0.861,0.030,0.640,-60.280,24.363,7.324
1746584676.21,0.167,-0.024,0.017,1.492,-0.211,0.578,-58.757,24.463,7.581
1746584676.23,0.021,-0.006,-0.177,1.287,-0.436,0.416,-56.968,23.655,7.377
1746584676.25,0.031,-0.110,0.096,0.793,0.492,0.491,-55.731,23.722,7.411
1746584676.27,-0.001,-0.142,0.004,0.749,0.215,0.770,-54.650,24.626,8.062
1746584676.28,-0.020,0.010,0.087,0.803,0.244,0.820,-53.465,25.479,8.984
1746584676.31,-0.024,0.088,0.062,1.135,0.089,0.619,-52.125,26.114,9.484
1746584676.33,-0.055,0.000,-0.006,1.249,0.089,0.535,-50.581,26.066,9.379
1746584676.34,0.008,-0.099,-0.077,0.876,0.352,0.719,-49.167,26.431,9.589
1746584676.36,0.015,-0.046,0.016,0.778,0.428,0.722,-47.979,27.308,10.112
1746584676.38,-0.034,0.050,0.037,0.886,0.125,0.577,-46.799,27.853,10.433
1746584676.40,-0.037,0.042,0.087,0.972,0.171,0.587,-45.559,28.087,10.550
1746584676.42,-0.089,-0.038,-0.078,1.294,0.061,0.607,-44.072,28.234,10.525
1746584676.44,-0.061,-0.052,-0.033,1.121,0.298,0.626,-42.499,28.349,10.497
1746584676.46,0.002,-0.016,0.032,0.985,0.307,0.614,-41.123,28.821,10.581
1746584676.48,0.022,0.022,0.075,1.029,0.048,0.608,-39.786,29.064,10.707
1746584676.50,-0.005,0.044,-0.033,1.089,-0.195,0.658,-38.363,28.967,10.756
1746584676.52,-0.046,0.060,-0.000,1.089,-0.069,0.605,-36.940,28.893,10.849
1746584676.54,-0.111,-0.013,-0.021,1.124,0.063,0.508,-35.511,28.808,10.792
1746584676.56,-0.120,-0.043,-0.046,1.080,0.207,0.531,-34.120,28.920,10.705
1746584676.58,-0.077,-0.017,0.010,1.130,0.319,0.499,-32.742,29.170,10.621
1746584676.60,-0.051,-0.025,0.080,1.193,0.137,0.426,-31.321,29.326,10.416
1746584676.62,-0.036,-0.065,0.066,1.276,-0.093,0.381,-29.872,29.130,10.083
1746584676.64,-0.014,-0.062,-0.044,1.167,0.213,0.411,-28.409,29.001,9.736
1746584676.66,0.013,-0.001,-0.005,0.923,0.482,0.544,-27.111,29.398,9.607
1746584676.68,-0.000,0.045,0.066,0.949,0.105,0.608,-25.874,29.813,9.672
1746584676.70,-0.025,-0.031,0.052,1.050,-0.127,0.654,-24.521,29.759,9.719
1746584676.72,0.019,-0.097,0.001,1.094,0.060,0.612,-23.095,29.735,9.737
1746584676.74,-0.065,-0.047,-0.007,1.192,0.107,0.538,-21.635,29.812,9.627
1746584676.76,-0.053,-0.020,0.031,1.212,0.134,0.523,-20.145,29.897,9.425
1746584676.78,0.006,0.013,0.087,1.240,0.062,0.495,-18.637,29.964,9.189
1746584676.80,0.020,-0.067,0.049,1.337,-0.154,0.566,-17.050,29.811,8.906
1746584676.82,-0.032,-0.137,0.011,1.328,0.018,0.498,-15.433,29.673,8.644
1746584676.84,-0.062,-0.061,-0.012,1.286,0.202,0.507,-13.849,29.737,8.336
1746584676.86,-0.042,0.046,-0.030,1.346,0.185,0.475,-12.281,29.926,8.008
1746584676.88,0.050,0.004,0.010,1.475,0.022,0.435,-10.619,30.005,7.522
1746584676.90,0.098,-0.047,0.098,1.497,-0.288,0.447,-8.890,29.771,7.042
1746584676.92,0.041,-0.030,0.124,1.446,-0.191,0.509,-7.158,29.412,6.607
1746584676.94,-0.097,0.021,0.074,1.372,-0.035,0.530,-5.447,29.252,6.305
1746584676.96,-0.030,0.075,0.039,1.390,0.091,0.576,-3.799,29.259,6.012
1746584676.98,0.038,0.009,0.014,1.499,0.162,0.591,-2.020,29.477,5.722
1746584677.00,0.096,-0.013,0.030,1.551,0.012,0.664,-0.161,29.507,5.352
1746584677.02,-0.000,0.052,-0.025,1.521,0.096,0.788,1.779,29.546,5.108
1746584677.04,-0.193,-0.008,-0.053,1.398,0.267,0.692,3.639,29.759,4.901
1746584677.06,-0.041,-0.028,-0.079,1.346,0.512,0.617,5.354,30.202,4.636
1746584677.08,0.108,0.002,-0.156,1.426,0.170,0.522,7.048,30.568,4.235
1746584677.10,0.112,0.029,-0.111,1.400,0.171,0.621,8.768,30.782,3.847
1746584677.12,-0.024,0.046,-0.068,1.309,0.268,0.602,10.437,31.107,3.495
1746584677.14,-0.027,-0.021,-0.104,1.204,0.370,0.580,12.030,31.483,3.193
1746584677.16,0.111,-0.037,-0.161,1.221,0.423,0.531,13.538,31.999,2.877
1746584677.18,0.142,-0.022,-0.142,1.178,0.240,0.483,15.002,32.445,2.455
1746584677.20,0.129,-0.073,-0.082,1.062,0.189,0.596,16.408,32.713,2.140
1746584677.22,-0.031,-0.080,-0.057,0.975,0.357,0.544,17.742,33.028,1.914
1746584677.24,-0.027,-0.085,-0.061,0.935,0.443,0.486,18.984,33.525,1.667
1746584677.26,0.074,-0.096,-0.092,0.855,0.329,0.399,20.126,34.047,1.345
1746584677.28,0.158,-0.113,-0.097,0.750,0.291,0.408,21.133,34.454,1.036
1746584677.30,0.075,-0.045,-0.150,0.694,0.240,0.435,22.092,34.772,0.808
1746584677.32,0.008,-0.065,-0.051,0.604,0.378,0.435,22.980,35.118,0.633
1746584677.34,-0.042,-0.073,-0.032,0.456,0.363,0.352,23.735,35.547,0.507
1746584677.36,0.087,-0.107,-0.058,0.354,0.396,0.315,24.329,35.961,0.399
1746584677.38,0.067,-0.065,-0.085,0.243,0.368,0.299,24.802,36.351,0.332
1746584677.40,0.067,-0.028,-0.130,0.148,0.203,0.286,25.185,36.607,0.345
1746584677.42,0.078,0.006,-0.130,0.095,0.112,0.271,25.485,36.698,0.402
1746584677.44,-0.018,-0.022,-0.102,0.073,0.121,0.165,25.710,36.759,0.408
1746584677.46,0.055,-0.023,-0.145,0.081,0.101,0.123,25.876,36.854,0.346
1746584677.48,0.042,0.008,-0.096,0.040,0.050,0.060,26.005,36.933,0.246
1746584677.50,0.007,-0.005,-0.068,-0.004,0.060,0.012,26.037,36.977,0.119
1746584677.52,0.037,0.043,-0.078,-0.019,0.059,-0.011,26.024,37.044,-0.017
1746584677.54,0.047,0.004,-0.081,-0.086,0.036,-0.012,25.980,37.092,-0.124
1746584677.56,0.049,-0.013,-0.068,-0.219,0.018,-0.041,25.821,37.099,-0.163
1746584677.58,0.077,-0.010,-0.139,-0.274,-0.068,-0.097,25.534,37.007,-0.153
1746584677.60,0.025,-0.034,-0.096,-0.284,-0.142,-0.172,25.205,36.849,-0.184
1746584677.62,0.040,-0.089,-0.120,-0.326,-0.208,-0.284,24.766,36.653,-0.302
1746584677.64,0.055,-0.140,-0.102,-0.383,-0.256,-0.412,24.205,36.416,-0.511
1746584677.66,0.113,-0.123,-0.115,-0.473,-0.325,-0.482,23.512,36.108,-0.748
1746584677.68,0.109,-0.107,-0.133,-0.654,-0.198,-0.443,22.678,35.842,-0.915
1746584677.70,0.072,-0.068,-0.116,-0.895,-0.091,-0.412,21.690,35.616,-0.875
1746584677.72,0.161,-0.050,-0.191,-1.068,-0.106,-0.410,20.493,35.440,-0.657
1746584677.74,0.150,-0.057,-0.134,-1.174,-0.190,-0.442,19.172,35.141,-0.375
1746584677.76,0.112,-0.038,-0.152,-1.251,-0.272,-0.442,17.743,34.736,-0.041
1746584677.78,0.006,0.007,-0.130,-1.341,-0.225,-0.488,16.224,34.315,0.328
1746584677.80,0.027,0.007,-0.255,-1.354,-0.277,-0.580,14.596,33.939,0.657
1746584677.82,0.060,0.019,-0.185,-1.357,-0.385,-0.627,12.943,33.498,0.904
1746584677.84,0.006,-0.026,-0.085,-1.418,-0.391,-0.727,11.187,32.995,1.107
1746584677.86,-0.001,-0.016,-0.043,-1.416,-0.304,-0.750,9.367,32.555,1.260
1746584677.88,0.001,0.059,-0.144,-1.446,-0.270,-0.743,7.538,32.212,1.408
1746584677.90,-0.044,0.041,-0.037,-1.515,-0.114,-0.736,5.654,31.960,1.619
1746584677.92,0.042,0.007,-0.089,-1.481,-0.234,-0.854,3.719,31.744,1.759
1746584677.94,0.096,-0.132,0.070,-1.550,-0.172,-0.775,1.753,31.482,1.881
1746584677.96,0.015,-0.060,-0.007,-1.572,-0.047,-0.624,-0.179,31.388,2.162
1746584677.98,-0.100,0.028,-0.065,-1.549,0.059,-0.699,-2.082,31.385,2.474
1746584678.00,-0.068,-0.015,-0.050,-1.524,0.087,-0.763,-4.021,31.516,2.697
1746584678.02,0.032,-0.046,-0.011,-1.514,0.064,-0.786,-5.965,31.609,2.867
1746584678.04,0.094,-0.073,-0.001,-1.490,-0.093,-0.719,-7.877,31.634,3.084
1746584678.06,0.044,-0.067,0.068,-1.438,-0.103,-0.734,-9.733,31.518,3.304
1746584678.08,-0.045,-0.045,-0.042,-1.375,-0.198,-0.727,-11.533,31.390,3.496
1746584678.10,-0.094,0.040,-0.005,-1.393,0.015,-0.726,-13.313,31.279,3.679
1746584678.12,-0.009,0.072,0.028,-1.380,0.020,-0.701,-15.086,31.374,3.891
1746584678.14,-0.001,-0.019,0.053,-1.230,-0.142,-0.755,-16.808,31.326,4.066
1746584678.16,0.002,-0.143,-0.011,-1.156,-0.322,-0.847,-18.429,31.016,4.069
1746584678.18,0.016,-0.159,0.066,-1.231,-0.154,-0.761,-20.084,30.674,4.058
1746584678.20,-0.047,-0.096,0.124,-1.214,-0.027,-0.649,-21.696,30.610,4.185
1746584678.22,-0.116,-0.074,0.134,-1.040,-0.010,-0.597,-23.169,30.635,4.349
1746584678.24,-0.067,-0.146,0.015,-0.957,-0.128,-0.552,-24.467,30.526,4.452
1746584678.26,0.065,-0.201,0.091,-1.053,0.096,-0.394,-25.762,30.564,4.706
1746584678.28,0.104,-0.208,0.047,-1.101,0.049,-0.316,-27.001,30.797,5.149
1746584678.30,0.084,-0.199,0.034,-1.009,0.149,-0.352,-28.239,31.063,5.614
1746584678.32,0.092,-0.094,-0.035,-1.095,0.154,-0.505,-29.496,31.361,5.952
1746584678.34,0.060,-0.012,-0.004,-1.199,0.090,-0.508,-30.946,31.601,6.296
1746584678.36,-0.019,0.033,0.021,-1.061,-0.069,-0.451,-32.341,31.760,6.678
1746584678.38,-0.041,0.046,-0.102,-0.923,-0.134,-0.485,-33.551,31.693,6.962
1746584678.40,-0.042,0.006,-0.078,-1.132,0.054,-0.562,-34.859,31.730,7.214
1746584678.42,-0.105,-0.045,-0.038,-1.198,0.070,-0.593,-36.347,31.901,7.528
1746584678.44,-0.093,-0.016,-0.046,-1.139,0.168,-0.596,-37.846,32.127,7.826
1746584678.46,-0.020,0.021,-0.022,-1.216,0.372,-0.601,-39.338,32.550,8.158
