Time,AccX,AccY,AccZ,GyroX,GyroY,GyroZ,Pitch,Roll,Yaw
1747601258.55,-0.007,-0.005,-0.008,-0.015,0.018,0.005,-87.842,87.243,41.391
1747601258.57,-0.006,-0.006,0.006,0.004,0.041,0.008,-87.841,87.484,41.588
1747601258.59,-0.005,0.001,-0.003,0.013,0.040,0.008,-87.826,87.010,41.064
1747601258.61,-0.009,-0.002,0.000,-0.015,0.002,-0.000,-87.819,86.667,40.704
1747601258.63,-0.005,-0.007,0.008,-0.020,0.036,0.001,-87.827,86.973,40.991
1747601258.65,-0.005,0.001,0.005,-0.021,0.074,0.000,-87.829,87.761,41.715
1747601258.67,-0.004,0.004,-0.012,0.012,0.032,-0.009,-87.838,87.782,41.673
1747601258.69,-0.001,-0.005,0.000,-0.037,0.000,-0.001,-87.850,88.187,42.060
1747601258.71,0.006,-0.003,0.001,-0.019,0.012,0.005,-87.852,89.348,43.217
1747601258.73,-0.001,-0.007,-0.014,-0.001,0.006,-0.014,-87.861,89.675,43.533
1747601258.75,0.016,0.001,-0.018,0.037,-0.004,0.002,-87.869,89.084,42.930
1747601258.77,0.004,0.006,-0.027,0.021,-0.053,0.027,-87.851,87.915,41.799
1747601258.79,-0.005,-0.011,-0.031,0.030,-0.015,0.034,-87.812,86.988,40.915
1747601258.81,-0.025,0.003,0.009,-0.000,0.081,-0.000,-87.786,86.609,40.496
1747601258.83,-0.012,-0.006,-0.003,0.030,0.057,-0.007,-87.790,85.965,39.765
1747601258.85,0.011,0.007,-0.017,0.050,-0.006,0.007,-87.783,84.330,38.105
1747601258.87,0.012,0.008,0.003,0.030,0.045,0.034,-87.749,82.455,36.211
1747601258.89,-0.032,-0.004,-0.009,0.015,0.079,0.010,-87.727,81.998,35.686
1747601258.91,-0.033,-0.007,0.021,-0.024,0.036,0.011,-87.735,82.406,36.023
1747601258.93,-0.014,0.000,0.022,-0.003,-0.010,0.029,-87.706,82.517,36.120
1747601258.95,-0.012,-0.009,0.012,-0.012,0.007,0.045,-87.663,82.835,36.449
1747601258.97,-0.013,-0.012,0.026,0.009,0.093,0.057,-87.610,83.303,36.857
1747601258.99,-0.033,0.018,0.004,0.037,0.044,0.037,-87.581,82.897,36.388
1747601259.01,-0.012,0.015,0.019,-0.003,0.091,0.043,-87.542,83.032,36.450
1747601259.03,-0.036,0.016,0.013,0.018,0.087,0.026,-87.515,83.212,36.517
1747601259.05,-0.007,-0.030,0.008,-0.020,0.065,0.035,-87.492,83.733,36.947
1747601259.07,0.036,-0.020,0.011,-0.015,0.004,0.017,-87.475,84.729,37.900
1747601259.09,0.048,0.019,-0.015,0.028,-0.081,-0.003,-87.475,84.662,37.879
1747601259.11,0.031,0.024,-0.030,0.020,-0.148,-0.027,-87.496,83.975,37.323
1747601259.13,0.012,-0.012,-0.015,0.011,-0.142,-0.018,-87.527,83.378,36.896
1747601259.15,0.005,-0.012,-0.013,0.054,-0.127,-0.019,-87.536,82.513,36.182
1747601259.17,0.005,0.011,-0.004,0.078,-0.148,-0.000,-87.521,80.506,34.329
1747601259.19,-0.015,0.004,-0.007,0.065,-0.176,0.024,-87.471,78.189,32.201
1747601259.21,-0.035,-0.016,0.018,0.054,-0.119,0.012,-87.429,76.558,30.747
1747601259.23,-0.009,-0.003,0.036,0.063,-0.034,-0.005,-87.404,75.095,29.365
1747601259.25,-0.012,0.016,0.033,0.065,-0.052,-0.021,-87.396,73.378,27.680
1747601259.27,-0.024,0.011,0.022,0.070,-0.106,-0.001,-87.387,71.520,25.918
1747601259.29,-0.019,-0.015,0.027,0.094,-0.081,-0.003,-87.378,69.659,24.164
1747601259.31,-0.017,-0.014,0.017,0.147,-0.070,-0.015,-87.358,67.376,21.957
1747601259.33,-0.007,0.014,-0.001,0.222,-0.081,-0.012,-87.302,63.552,18.221
1747601259.35,0.011,0.021,0.014,0.243,-0.094,0.004,-87.205,58.868,13.628
1747601259.37,-0.005,-0.006,0.014,0.324,-0.068,0.011,-87.045,54.037,8.880
1747601259.39,-0.067,-0.023,0.016,0.426,-0.074,-0.016,-86.805,48.085,3.003
1747601259.41,-0.100,0.007,-0.015,0.556,-0.004,-0.042,-86.439,41.032,-4.007
1747601259.43,-0.105,0.027,-0.021,0.666,0.158,-0.032,-85.907,34.139,-11.008
1747601259.45,-0.072,0.015,-0.017,0.737,0.186,0.019,-85.226,28.768,-16.598
1747601259.47,-0.013,0.015,0.006,0.788,0.257,0.100,-84.413,25.245,-20.370
1747601259.49,-0.017,-0.011,0.071,0.755,0.325,0.164,-83.546,23.540,-22.450
1747601259.51,-0.073,-0.074,0.021,0.734,0.197,0.176,-82.687,22.584,-23.702
1747601259.53,-0.043,-0.056,0.015,0.835,0.138,0.166,-81.795,21.626,-24.857
1747601259.55,0.055,0.044,0.027,1.013,0.229,0.147,-80.734,20.477,-26.235
1747601259.57,0.029,0.091,-0.006,1.046,-0.061,0.122,-79.563,19.074,-27.762
1747601259.59,-0.001,-0.026,0.052,0.900,0.130,0.177,-78.448,18.040,-28.815
1747601259.61,0.001,-0.084,0.078,0.892,0.294,0.265,-77.413,17.947,-29.254
1747601259.63,0.053,-0.011,0.098,0.835,0.265,0.332,-76.353,18.406,-29.224
1747601259.65,0.053,0.058,0.049,0.877,0.019,0.265,-75.322,18.604,-29.248
1747601259.67,0.056,0.071,0.075,0.839,-0.071,0.277,-74.292,18.515,-29.384
1747601259.69,-0.070,0.018,0.099,0.774,-0.132,0.247,-73.317,18.380,-29.474
1747601259.71,-0.088,-0.029,0.051,0.760,-0.078,0.272,-72.394,18.211,-29.550
1747601259.73,-0.053,0.027,0.042,0.780,-0.017,0.246,-71.471,18.251,-29.543
1747601259.75,-0.050,0.064,-0.025,0.834,0.088,0.153,-70.535,18.063,-29.823
1747601259.77,-0.103,0.022,-0.079,0.948,0.083,0.049,-69.524,17.621,-30.481
1747601259.79,-0.110,-0.047,-0.111,0.972,0.314,0.015,-68.437,17.018,-31.381
1747601259.81,-0.068,-0.093,-0.008,0.770,0.661,0.061,-67.479,16.936,-32.158
1747601259.83,-0.032,-0.107,-0.084,0.648,0.578,0.251,-66.664,17.475,-32.389
1747601259.85,0.209,-0.087,0.039,0.673,0.546,0.364,-65.856,18.436,-32.126
1747601259.87,0.303,-0.020,-0.089,0.920,0.124,0.353,-64.840,19.031,-31.936
1747601259.89,0.160,0.041,0.002,0.842,-0.023,0.213,-63.785,19.050,-32.020
1747601259.91,0.004,0.027,-0.095,0.917,-0.171,0.160,-62.758,18.610,-32.391
1747601259.93,0.012,-0.046,0.029,0.869,-0.073,0.194,-61.749,18.251,-32.702
1747601259.95,0.030,-0.109,-0.053,0.822,-0.162,0.295,-60.730,18.045,-32.839
1747601259.97,0.049,-0.096,-0.031,0.813,-0.062,0.346,-59.719,18.004,-32.747
1747601259.99,-0.030,-0.015,0.063,0.681,0.053,0.338,-58.781,18.175,-32.550
1747601260.01,-0.113,0.060,0.053,0.609,-0.031,0.408,-57.974,18.475,-32.226
1747601260.03,0.020,0.103,0.013,0.758,-0.073,0.422,-57.093,18.774,-31.814
1747601260.05,-0.029,0.126,-0.067,0.898,-0.238,0.251,-56.044,18.687,-31.702
1747601260.07,-0.146,0.101,-0.067,0.971,-0.193,0.017,-54.975,18.123,-32.047
1747601260.09,-0.123,-0.025,0.054,0.853,0.081,-0.025,-53.969,17.524,-32.681
1747601260.11,0.050,-0.189,0.071,0.455,0.197,0.242,-53.235,17.571,-32.873
1747601260.13,0.176,-0.095,0.037,0.427,-0.022,0.468,-52.653,18.030,-32.441
1747601260.15,0.144,0.142,0.005,0.649,-0.311,0.441,-51.915,18.272,-31.907
1747601260.17,-0.084,0.223,-0.060,0.863,-0.452,0.203,-50.966,17.902,-31.764
1747601260.19,-0.150,0.102,0.009,0.882,-0.139,0.044,-49.949,17.317,-32.080
1747601260.21,-0.120,-0.128,-0.024,0.604,0.124,0.099,-49.101,17.098,-32.370
1747601260.23,-0.047,-0.202,0.010,0.466,0.266,0.261,-48.481,17.390,-32.316
1747601260.25,-0.013,0.023,-0.025,0.580,0.153,0.246,-47.837,17.753,-32.154
1747601260.27,0.016,0.127,-0.081,0.709,-0.066,0.109,-47.057,17.775,-32.189
1747601260.29,0.039,0.053,-0.025,0.717,-0.103,-0.069,-46.266,17.397,-32.537
1747601260.31,0.018,-0.090,-0.018,0.596,-0.134,-0.028,-45.561,16.933,-32.971
1747601260.33,0.092,-0.162,-0.063,0.427,-0.158,0.173,-44.988,16.698,-33.096
1747601260.35,0.108,-0.059,0.018,0.450,-0.215,0.293,-44.441,16.625,-32.911
1747601260.37,0.063,0.083,-0.026,0.570,-0.391,0.237,-43.793,16.400,-32.719
1747601260.39,0.055,0.113,0.001,0.643,-0.409,0.121,-43.048,15.911,-32.724
1747601260.41,-0.025,0.020,0.006,0.613,-0.309,0.054,-42.335,15.424,-32.877
1747601260.43,-0.100,-0.082,-0.006,0.569,-0.197,0.136,-41.659,15.039,-32.986
1747601260.45,-0.009,-0.099,-0.017,0.572,-0.205,0.171,-40.987,14.861,-32.960
1747601260.47,0.027,0.003,0.001,0.641,-0.342,0.106,-40.273,14.535,-32.978
1747601260.49,0.007,0.028,0.012,0.690,-0.406,0.057,-39.511,13.992,-33.118
1747601260.51,-0.031,-0.028,-0.015,0.640,-0.258,0.083,-38.732,13.500,-33.257
1747601260.53,-0.055,-0.087,-0.040,0.628,-0.065,0.081,-38.019,13.291,-33.354
1747601260.55,-0.068,-0.072,0.016,0.626,-0.007,0.143,-37.285,13.229,-33.399
1747601260.57,-0.002,0.078,0.033,0.654,-0.102,0.093,-36.547,13.161,-33.434
1747601260.59,0.069,0.150,0.039,0.659,-0.282,0.103,-35.793,12.890,-33.521
1747601260.61,0.013,0.111,-0.012,0.628,-0.289,0.151,-35.024,12.510,-33.553
1747601260.63,-0.055,0.050,-0.056,0.552,-0.114,0.159,-34.338,12.312,-33.516
1747601260.65,-0.058,0.014,0.012,0.549,-0.043,0.156,-33.681,12.275,-33.457
1747601260.67,0.018,0.028,0.036,0.528,-0.108,0.125,-33.052,12.212,-33.391
1747601260.68,0.069,0.064,0.027,0.547,-0.235,0.163,-32.417,12.032,-33.284
1747601260.71,0.043,0.077,-0.001,0.471,-0.201,0.216,-31.793,11.824,-33.122
1747601260.72,0.005,0.038,-0.088,0.378,-0.139,0.258,-31.266,11.743,-32.843
1747601260.74,0.002,0.007,-0.013,0.424,-0.140,0.217,-30.763,11.691,-32.572
1747601260.76,-0.026,-0.018,0.002,0.407,-0.211,0.173,-30.254,11.555,-32.392
1747601260.78,-0.008,-0.047,-0.037,0.412,-0.226,0.161,-29.759,11.353,-32.197
1747601260.80,-0.023,-0.011,-0.045,0.390,-0.183,0.105,-29.279,11.151,-32.043
1747601260.82,-0.091,0.019,-0.019,0.459,-0.097,0.050,-28.796,10.980,-31.965
1747601260.84,-0.101,-0.027,-0.054,0.401,-0.044,-0.028,-28.315,10.864,-31.961
1747601260.86,-0.076,-0.030,-0.036,0.411,0.023,-0.056,-27.877,10.780,-32.032
1747601260.88,-0.074,0.025,-0.021,0.428,0.007,-0.132,-27.421,10.701,-32.169
1747601260.90,-0.010,0.046,-0.000,0.418,-0.024,-0.147,-26.970,10.558,-32.360
1747601260.92,0.063,0.015,-0.001,0.386,-0.054,-0.073,-26.540,10.411,-32.496
1747601260.94,0.116,0.048,-0.010,0.384,-0.052,0.004,-26.118,10.280,-32.528
1747601260.96,0.078,0.033,-0.045,0.305,-0.003,0.038,-25.734,10.226,-32.503
1747601260.98,0.055,-0.037,-0.044,0.197,-0.010,0.154,-25.436,10.250,-32.346
1747601261.00,0.050,0.049,0.009,0.198,-0.011,0.131,-25.190,10.303,-32.118
1747601261.02,-0.008,0.045,0.001,0.221,-0.055,0.111,-24.926,10.303,-31.936
1747601261.04,0.006,0.020,-0.054,0.189,-0.072,0.087,-24.673,10.263,-31.773
1747601261.06,-0.022,0.050,-0.072,0.144,-0.022,0.074,-24.465,10.234,-31.627
1747601261.08,-0.035,0.012,-0.014,0.150,-0.036,0.018,-24.294,10.201,-31.504
1747601261.10,-0.028,-0.020,-0.007,0.152,0.019,-0.035,-24.132,10.178,-31.463
1747601261.12,-0.041,0.008,0.023,0.140,0.133,-0.062,-23.986,10.229,-31.457
1747601261.14,-0.009,0.039,-0.035,0.138,0.089,-0.096,-23.839,10.303,-31.513
1747601261.16,0.052,0.063,-0.055,0.070,-0.019,-0.128,-23.746,10.283,-31.605
1747601261.18,0.063,-0.001,-0.093,-0.043,-0.033,-0.100,-23.756,10.170,-31.688
1747601261.20,0.139,-0.022,-0.066,-0.130,-0.027,0.000,-23.864,10.115,-31.661
1747601261.22,0.171,-0.001,-0.063,-0.175,0.002,0.082,-24.022,10.137,-31.505
1747601261.24,0.103,-0.050,-0.100,-0.253,0.006,0.137,-24.234,10.213,-31.235
1747601261.26,0.080,-0.057,-0.109,-0.355,-0.001,0.108,-24.546,10.332,-30.957
1747601261.28,0.076,-0.020,-0.123,-0.463,-0.092,0.136,-24.982,10.377,-30.642
1747601261.30,0.045,0.031,-0.058,-0.466,-0.108,0.094,-25.492,10.364,-30.339
1747601261.32,-0.039,-0.002,-0.097,-0.477,0.062,0.079,-25.985,10.417,-30.064
1747601261.34,-0.105,0.001,-0.095,-0.625,0.202,0.063,-26.585,10.672,-29.766
1747601261.36,-0.074,0.032,-0.060,-0.746,0.269,-0.036,-27.359,11.052,-29.509
1747601261.38,-0.042,0.023,-0.094,-0.786,0.099,-0.135,-28.241,11.304,-29.348
1747601261.40,-0.000,-0.048,-0.076,-0.821,0.015,-0.183,-29.176,11.354,-29.274
1747601261.42,-0.007,-0.085,-0.071,-0.891,0.082,-0.236,-30.181,11.376,-29.252
1747601261.44,-0.029,-0.088,-0.050,-0.988,0.174,-0.189,-31.277,11.505,-29.217
1747601261.46,-0.058,-0.032,-0.030,-1.051,0.211,-0.161,-32.464,11.748,-29.101
1747601261.48,-0.027,0.033,-0.042,-1.106,0.196,-0.167,-33.709,12.037,-28.938
1747601261.50,-0.020,0.027,-0.006,-1.055,0.239,-0.243,-34.969,12.303,-28.846
1747601261.52,0.003,-0.067,-0.078,-1.055,0.196,-0.253,-36.202,12.532,-28.853
1747601261.54,0.016,-0.119,-0.055,-1.083,0.248,-0.211,-37.451,12.783,-28.831
1747601261.56,-0.023,-0.088,-0.043,-1.168,0.259,-0.176,-38.746,13.135,-28.734
1747601261.58,-0.036,-0.037,0.042,-1.226,0.327,-0.168,-40.133,13.581,-28.555
1747601261.60,0.022,-0.002,0.024,-1.198,0.325,-0.116,-41.521,14.097,-28.320
1747601261.62,0.090,-0.008,-0.027,-1.198,0.249,-0.107,-42.881,14.643,-28.019
1747601261.64,0.109,-0.050,-0.058,-1.251,0.159,-0.105,-44.252,15.094,-27.695
1747601261.66,0.068,-0.056,-0.021,-1.252,0.109,-0.128,-45.681,15.513,-27.337
1747601261.68,-0.001,-0.035,-0.030,-1.326,0.070,-0.110,-47.126,15.862,-26.963
1747601261.70,-0.032,0.013,0.024,-1.350,0.105,-0.129,-48.641,16.309,-26.516
1747601261.72,-0.102,0.054,-0.008,-1.333,0.080,-0.161,-50.146,16.719,-26.128
1747601261.74,-0.072,0.056,-0.018,-1.397,0.130,-0.166,-51.696,17.194,-25.708
1747601261.76,-0.023,0.034,-0.027,-1.384,0.126,-0.202,-53.273,17.705,-25.279
1747601261.78,-0.020,0.024,-0.002,-1.394,0.097,-0.285,-54.873,18.153,-24.923
1747601261.80,-0.031,-0.009,0.021,-1.390,0.088,-0.349,-56.489,18.469,-24.709
1747601261.82,0.032,-0.059,0.003,-1.421,0.043,-0.309,-58.138,18.786,-24.465
1747601261.84,0.089,-0.071,0.006,-1.394,-0.030,-0.275,-59.767,19.159,-24.091
1747601261.86,0.054,-0.040,-0.047,-1.372,-0.144,-0.328,-61.369,19.395,-23.741
1747601261.88,0.020,-0.016,-0.016,-1.322,-0.129,-0.377,-62.952,19.494,-23.509
1747601261.90,-0.027,-0.016,-0.002,-1.398,-0.097,-0.379,-64.550,19.561,-23.328
1747601261.92,-0.011,-0.052,0.026,-1.396,-0.032,-0.332,-66.216,19.828,-23.008
1747601261.94,0.042,-0.085,-0.019,-1.318,0.003,-0.274,-67.784,20.317,-22.555
1747601261.96,0.088,-0.107,-0.084,-1.237,-0.110,-0.254,-69.244,20.842,-22.029
1747601261.98,0.106,-0.078,-0.123,-1.291,-0.124,-0.273,-70.701,21.368,-21.356
1747601262.00,0.041,-0.039,-0.063,-1.298,-0.093,-0.292,-72.187,21.954,-20.606
1747601262.02,-0.011,-0.022,-0.017,-1.242,-0.145,-0.294,-73.672,22.618,-19.770
1747601262.04,0.000,-0.052,-0.030,-1.210,-0.121,-0.306,-75.082,23.302,-18.895
1747601262.06,-0.015,-0.071,-0.029,-1.180,-0.139,-0.337,-76.486,23.981,-18.038
1747601262.08,-0.012,-0.009,-0.057,-1.137,-0.131,-0.340,-77.850,24.678,-17.168
1747601262.10,-0.057,0.051,-0.017,-1.202,-0.060,-0.353,-79.208,25.540,-16.189
1747601262.12,-0.076,-0.003,0.024,-1.213,0.030,-0.356,-80.646,26.984,-14.691
1747601262.14,-0.027,-0.060,0.046,-1.258,0.181,-0.340,-82.063,29.063,-12.712
1747601262.16,-0.019,-0.010,0.078,-1.204,0.062,-0.326,-83.481,32.512,-9.409
1747601262.18,-0.067,0.049,0.004,-0.995,-0.102,-0.408,-84.761,35.974,-5.877
1747601262.20,-0.024,0.038,-0.055,-0.791,-0.008,-0.424,-85.848,38.529,-3.250
1747601262.22,-0.070,0.014,-0.033,-0.875,0.117,-0.413,-86.874,42.541,0.712
1747601262.24,-0.118,-0.030,0.032,-1.013,0.436,-0.386,-87.948,53.789,11.672
1747601262.26,-0.071,-0.051,0.018,-0.964,0.580,-0.272,-88.724,87.669,44.969
1747601262.28,0.010,-0.043,0.070,-0.867,0.621,-0.133,-88.548,134.136,90.726
1747601262.30,0.034,0.035,0.031,-0.675,0.552,-0.122,-87.898,154.811,110.750
1747601262.32,-0.003,0.061,0.015,-0.587,0.510,-0.225,-87.295,165.596,120.927
1747601262.34,-0.032,0.006,-0.012,-0.552,0.409,-0.262,-86.718,173.709,128.521
1747601262.36,-0.007,-0.054,0.011,-0.550,0.397,-0.256,-86.099,179.546,133.914
1747601262.38,0.048,-0.048,0.034,-0.424,0.414,-0.203,-85.527,-176.614,137.304
1747601262.40,0.053,0.030,0.032,-0.347,0.284,-0.174,-85.082,-174.004,139.495
1747601262.42,0.041,0.042,0.019,-0.249,-0.112,-0.081,-84.711,-172.714,140.704
1747601262.44,-0.007,-0.011,0.034,-0.178,-0.201,-0.112,-84.475,-172.244,141.379
1747601262.46,-0.061,-0.034,0.070,-0.121,-0.157,-0.151,-84.270,-171.137,142.701
1747601262.48,-0.074,0.011,0.055,-0.027,-0.022,-0.110,-84.166,-169.839,144.118
1747601262.50,-0.055,0.012,0.089,-0.087,0.063,-0.065,-84.096,-169.003,144.901
1747601262.52,-0.072,-0.044,0.065,-0.210,0.085,-0.064,-83.917,-168.591,145.247
1747601262.54,-0.028,-0.051,0.029,-0.162,0.083,-0.053,-83.671,-168.276,145.468
1747601262.56,0.046,-0.008,0.063,-0.070,0.197,0.013,-83.526,-168.071,145.506
1747601262.58,0.000,0.015,0.011,0.068,0.082,0.038,-83.507,-168.159,145.239
1747601262.60,-0.032,0.053,-0.064,0.219,-0.095,0.024,-83.653,-168.015,145.394
1747601262.62,0.006,0.017,-0.013,0.146,-0.202,0.021,-83.877,-167.927,145.652
1747601262.64,0.047,-0.044,0.015,0.051,-0.223,-0.027,-83.956,-168.099,145.730
1747601262.66,0.079,-0.015,-0.001,0.179,-0.231,-0.059,-84.051,-167.631,146.465
1747601262.68,0.029,0.057,0.055,0.256,-0.236,0.004,-84.320,-166.859,147.501
1747601262.70,-0.083,0.029,0.069,0.245,-0.309,0.055,-84.607,-166.886,147.777
1747601262.72,-0.113,-0.059,0.000,0.149,-0.137,0.002,-84.845,-167.060,147.896
1747601262.74,-0.032,-0.075,0.063,0.097,0.136,-0.007,-84.957,-166.687,148.247
1747601262.76,-0.006,0.017,0.004,0.252,-0.014,0.035,-85.147,-166.237,148.600
1747601262.78,-0.028,0.061,0.014,0.332,-0.068,0.122,-85.500,-166.290,148.621
1747601262.80,-0.062,0.014,0.073,0.340,-0.127,0.137,-85.925,-167.297,147.724
1747601262.82,-0.060,-0.034,0.112,0.301,-0.042,0.086,-86.301,-168.004,147.116
1747601262.84,0.001,-0.047,0.099,0.346,-0.063,0.136,-86.680,-168.756,146.420
1747601262.86,0.015,-0.031,0.088,0.478,-0.219,0.170,-87.169,-170.684,144.629
1747601262.88,-0.001,-0.007,0.025,0.591,-0.440,0.169,-87.807,-173.389,142.314
1747601262.90,0.014,0.012,0.023,0.643,-0.397,0.206,-88.527,-179.116,137.089
1747601262.92,-0.002,0.035,0.021,0.747,-0.303,0.202,-89.290,161.640,118.219
1747601262.94,-0.078,0.043,0.002,0.829,-0.304,0.157,-89.519,63.561,20.483
1747601262.96,-0.089,0.034,-0.072,0.956,-0.221,0.136,-88.615,25.012,-17.739
1747601262.98,0.010,0.007,-0.009,1.077,0.020,0.238,-87.468,18.070,-24.588
1747601263.00,0.008,-0.038,0.055,0.982,0.082,0.301,-86.219,17.150,-25.580
1747601263.02,-0.014,-0.077,0.010,0.997,0.138,0.263,-85.069,17.115,-25.746
1747601263.04,-0.004,-0.041,-0.019,1.088,0.220,0.228,-83.854,16.457,-26.632
1747601263.06,-0.031,0.039,0.007,1.114,0.090,0.223,-82.547,15.775,-27.671
1747601263.08,-0.082,0.056,-0.025,0.947,-0.124,0.225,-81.337,15.125,-28.356
1747601263.10,0.070,-0.113,0.145,0.965,0.436,0.244,-80.238,15.213,-28.571
1747601263.12,0.076,-0.066,-0.016,0.992,0.078,0.302,-79.053,15.486,-28.761
1747601263.14,0.030,0.063,-0.021,1.010,-0.217,0.346,-77.867,15.708,-28.521
1747601263.16,-0.004,0.116,0.051,1.100,-0.145,0.216,-76.619,15.479,-28.614
1747601263.18,-0.080,0.024,0.082,1.070,0.091,0.027,-75.378,14.648,-29.528
1747601263.20,-0.295,-0.074,-0.033,1.044,0.014,-0.017,-74.209,13.580,-30.808
1747601263.22,-0.295,-0.068,-0.084,0.903,0.414,0.174,-73.102,13.177,-31.486
1747601263.24,-0.132,0.048,0.067,0.839,0.971,0.213,-72.084,13.967,-31.592
1747601263.26,0.061,0.042,0.129,0.825,1.113,0.313,-71.095,15.369,-31.513
1747601263.28,0.160,-0.048,0.004,0.823,0.545,0.411,-70.077,16.729,-31.139
1747601263.30,0.231,-0.086,-0.076,0.921,0.102,0.389,-68.994,17.529,-30.673
1747601263.32,0.141,-0.058,-0.151,0.937,-0.230,0.197,-67.871,17.412,-30.669
1747601263.34,0.054,-0.027,-0.021,1.032,-0.152,0.094,-66.761,16.768,-31.138
1747601263.36,-0.033,-0.014,-0.025,0.994,0.076,0.142,-65.576,16.187,-31.695
1747601263.38,-0.002,-0.034,-0.014,0.843,0.237,0.301,-64.525,16.298,-31.804
1747601263.40,0.081,-0.058,-0.000,0.864,0.121,0.351,-63.482,16.690,-31.593
1747601263.42,0.080,-0.063,-0.051,0.953,-0.013,0.315,-62.370,16.915,-31.431
1747601263.44,-0.044,-0.041,-0.083,0.943,-0.070,0.221,-61.246,16.784,-31.483
1747601263.46,-0.054,-0.015,0.011,0.915,0.072,0.190,-60.183,16.637,-31.661
1747601263.48,-0.027,0.017,-0.068,0.928,0.190,0.211,-59.082,16.638,-31.834
1747601263.50,-0.008,0.014,0.008,0.876,0.200,0.232,-58.024,16.801,-31.937
1747601263.52,0.073,-0.046,0.014,0.860,0.098,0.329,-57.010,16.980,-31.891
1747601263.54,0.175,-0.032,0.018,0.941,-0.075,0.254,-55.900,17.059,-31.874
1747601263.56,0.134,-0.003,0.009,0.715,-0.231,0.230,-54.922,16.865,-31.896
1747601263.58,0.024,0.021,-0.043,0.733,-0.370,0.275,-54.053,16.537,-31.835
1747601263.60,-0.071,0.068,0.025,0.814,-0.342,0.237,-53.128,16.185,-31.755
1747601263.62,-0.107,0.114,0.081,0.879,-0.056,0.108,-52.126,15.843,-31.897
1747601263.64,-0.114,0.088,0.024,0.753,0.034,0.068,-51.181,15.650,-32.166
1747601263.66,-0.049,0.022,-0.022,0.604,0.002,0.135,-50.429,15.559,-32.312
1747601263.68,0.022,0.040,0.052,0.697,-0.034,0.115,-49.679,15.481,-32.384
1747601263.70,-0.061,0.113,0.041,0.800,-0.120,0.031,-48.824,15.212,-32.615
1747601263.72,-0.012,0.069,0.053,0.769,-0.038,0.013,-47.943,14.856,-32.953
1747601263.74,0.134,-0.034,-0.028,0.597,-0.017,0.122,-47.164,14.713,-33.141
1747601263.76,0.157,-0.049,-0.039,0.408,-0.195,0.247,-46.573,14.645,-33.054
1747601263.78,0.126,-0.015,0.069,0.530,-0.367,0.390,-45.981,14.555,-32.734
1747601263.80,0.081,-0.018,-0.021,0.662,-0.442,0.460,-45.193,14.407,-32.286
1747601263.82,0.036,0.004,-0.058,0.751,-0.434,0.322,-44.286,14.139,-31.932
1747601263.84,-0.042,0.030,-0.061,0.663,-0.346,0.146,-43.430,13.751,-31.861
1747601263.86,-0.159,-0.013,-0.081,0.644,-0.318,0.127,-42.680,13.336,-31.908
1747601263.88,-0.219,-0.012,0.021,0.685,-0.198,0.116,-41.913,13.012,-31.946
1747601263.90,-0.219,0.026,-0.023,0.743,-0.068,0.002,-41.100,12.769,-32.089
1747601263.91,-0.081,0.002,-0.011,0.797,-0.062,-0.100,-40.245,12.485,-32.432
1747601263.93,0.043,-0.027,0.023,0.751,-0.051,-0.136,-39.417,12.139,-32.854
1747601263.95,0.036,-0.051,0.025,0.672,-0.016,-0.090,-38.653,11.858,-33.250
1747601263.97,0.060,-0.089,0.015,0.657,-0.024,0.042,-37.914,11.683,-33.480
1747601263.99,0.130,-0.034,0.023,0.711,-0.117,0.056,-37.134,11.549,-33.595
1747601264.01,0.109,0.039,0.031,0.763,-0.299,0.081,-36.288,11.249,-33.712
1747601264.03,0.059,0.004,0.014,0.741,-0.333,0.111,-35.433,10.814,-33.776
1747601264.05,0.056,-0.059,-0.049,0.709,-0.139,0.130,-34.571,10.537,-33.804
1747601264.07,0.020,-0.085,-0.025,0.559,-0.075,0.228,-33.825,10.463,-33.729
1747601264.09,0.086,0.011,0.021,0.566,-0.104,0.329,-33.148,10.516,-33.482
1747601264.11,0.107,0.108,0.007,0.555,-0.240,0.363,-32.446,10.494,-33.159
1747601264.13,0.063,0.060,-0.022,0.588,-0.303,0.402,-31.732,10.376,-32.784
1747601264.15,-0.003,-0.007,-0.035,0.544,-0.277,0.376,-31.010,10.242,-32.399
1747601264.17,-0.048,-0.073,-0.105,0.508,-0.170,0.238,-30.354,10.140,-32.110
1747601264.19,-0.088,-0.133,-0.123,0.461,-0.158,0.152,-29.764,10.003,-31.996
1747601264.21,-0.094,-0.050,-0.004,0.428,-0.106,0.109,-29.243,9.901,-31.868
1747601264.23,-0.079,0.075,0.010,0.457,-0.078,0.080,-28.733,9.804,-31.776
1747601264.25,-0.056,0.124,-0.006,0.497,-0.107,0.033,-28.172,9.679,-31.722
1747601264.27,-0.028,0.060,-0.103,0.460,-0.099,-0.017,-27.632,9.514,-31.745
1747601264.29,0.002,-0.007,-0.076,0.450,-0.125,-0.052,-27.127,9.332,-31.782
1747601264.31,-0.008,0.008,-0.054,0.444,-0.073,-0.092,-26.627,9.109,-31.877
1747601264.33,-0.075,0.045,0.019,0.376,0.034,0.010,-26.175,9.037,-31.927
1747601264.35,-0.087,0.139,0.054,0.359,0.109,0.063,-25.761,9.114,-31.849
1747601264.37,-0.065,0.159,0.023,0.362,0.077,0.029,-25.329,9.224,-31.801
1747601264.39,0.005,0.013,-0.074,0.308,0.000,-0.030,-24.955,9.245,-31.780
1747601264.41,0.001,-0.056,-0.082,0.291,-0.020,-0.173,-24.643,9.145,-31.882
1747601264.43,-0.101,-0.069,-0.026,0.244,0.052,-0.186,-24.370,9.034,-32.061
1747601264.45,-0.092,0.027,0.037,0.306,0.129,-0.167,-24.111,9.030,-32.239
1747601264.47,-0.028,0.044,0.030,0.332,0.116,-0.135,-23.752,9.081,-32.412
1747601264.49,0.063,0.007,-0.101,0.292,0.126,-0.125,-23.432,9.131,-32.560
1747601264.51,0.008,-0.017,-0.070,0.222,0.122,-0.106,-23.162,9.191,-32.671
1747601264.53,-0.002,-0.021,0.016,0.176,0.134,-0.081,-22.959,9.285,-32.768
1747601264.55,0.075,0.003,0.017,0.184,0.059,-0.037,-22.770,9.348,-32.822
1747601264.57,0.087,0.046,0.026,0.157,0.054,-0.050,-22.582,9.369,-32.850
1747601264.59,0.034,-0.007,-0.053,0.106,0.008,-0.005,-22.436,9.384,-32.862
1747601264.61,0.118,-0.019,-0.037,0.041,-0.105,0.092,-22.348,9.343,-32.764
1747601264.63,0.133,0.007,-0.026,-0.010,-0.097,0.113,-22.311,9.290,-32.557
1747601264.65,0.032,-0.025,-0.071,-0.111,-0.025,0.169,-22.361,9.301,-32.314
1747601264.67,0.004,0.014,-0.089,-0.191,0.031,0.171,-22.507,9.408,-32.009
1747601264.69,-0.020,0.056,-0.046,-0.194,0.015,0.139,-22.690,9.555,-31.708
1747601264.71,-0.047,0.059,-0.108,-0.229,-0.000,0.044,-22.890,9.622,-31.475
1747601264.73,-0.115,0.040,-0.108,-0.305,0.084,-0.097,-23.193,9.684,-31.379
1747601264.75,-0.090,0.030,-0.081,-0.352,0.104,-0.174,-23.582,9.757,-31.414
1747601264.77,0.047,0.028,-0.088,-0.396,0.039,-0.157,-24.036,9.772,-31.495
1747601264.79,0.130,0.010,-0.130,-0.517,0.069,-0.084,-24.563,9.808,-31.473
1747601264.81,0.078,0.017,-0.091,-0.618,0.148,-0.035,-25.222,9.963,-31.353
1747601264.83,0.055,0.003,-0.055,-0.730,0.169,-0.032,-25.974,10.216,-31.192
1747601264.85,0.074,-0.028,-0.105,-0.797,0.066,-0.062,-26.847,10.396,-31.031
1747601264.87,0.010,-0.034,-0.128,-0.862,-0.040,-0.119,-27.790,10.448,-30.917
1747601264.89,-0.012,-0.088,-0.054,-0.957,0.029,-0.119,-28.838,10.450,-30.819
1747601264.91,0.019,-0.134,-0.034,-1.047,0.109,-0.082,-29.987,10.585,-30.682
1747601264.93,0.014,-0.127,-0.025,-1.089,0.141,-0.047,-31.201,10.828,-30.453
1747601264.95,0.023,-0.070,-0.022,-1.151,0.161,-0.052,-32.458,11.121,-30.199
1747601264.97,0.048,-0.033,-0.052,-1.193,0.114,-0.006,-33.781,11.428,-29.899
1747601264.99,0.043,-0.011,-0.043,-1.201,0.077,0.023,-35.126,11.733,-29.523
1747601265.01,-0.002,-0.031,0.003,-1.171,0.113,-0.032,-36.445,12.034,-29.160
1747601265.03,-0.010,-0.089,-0.025,-1.204,0.093,-0.034,-37.773,12.332,-28.844
1747601265.05,0.031,-0.079,0.011,-1.256,0.101,-0.002,-39.157,12.678,-28.471
1747601265.07,0.008,-0.009,-0.010,-1.254,0.044,0.040,-40.554,13.045,-28.020
1747601265.09,-0.009,0.057,-0.063,-1.274,-0.001,0.027,-41.941,13.396,-27.505
1747601265.11,-0.019,0.044,-0.019,-1.330,0.070,-0.038,-43.388,13.744,-27.022
1747601265.13,-0.085,-0.006,0.031,-1.280,0.130,-0.124,-44.865,14.136,-26.637
1747601265.15,-0.113,-0.029,-0.054,-1.300,0.100,-0.165,-46.329,14.463,-26.366
1747601265.17,-0.086,-0.032,-0.032,-1.319,0.110,-0.201,-47.827,14.765,-26.123
1747601265.19,-0.057,-0.026,-0.001,-1.320,0.125,-0.230,-49.351,15.065,-25.901
1747601265.21,0.017,-0.005,-0.005,-1.318,0.226,-0.217,-50.870,15.444,-25.678
1747601265.23,0.036,0.004,-0.024,-1.324,0.229,-0.230,-52.388,15.937,-25.429
1747601265.25,0.027,-0.012,0.005,-1.353,0.206,-0.207,-53.931,16.418,-25.157
1747601265.27,0.020,-0.008,0.027,-1.339,0.179,-0.235,-55.483,16.938,-24.862
1747601265.29,0.013,0.019,0.025,-1.303,0.081,-0.276,-57.014,17.344,-24.606
1747601265.31,0.003,0.027,-0.004,-1.294,0.003,-0.336,-58.521,17.559,-24.463
1747601265.33,0.010,-0.009,0.001,-1.298,-0.016,-0.389,-60.061,17.632,-24.430
1747601265.35,0.065,-0.055,-0.009,-1.329,-0.036,-0.369,-61.622,17.672,-24.423
1747601265.37,0.086,-0.069,-0.016,-1.320,-0.112,-0.320,-63.172,17.744,-24.316
1747601265.39,0.067,-0.070,0.005,-1.302,-0.086,-0.277,-64.714,17.919,-24.061
1747601265.41,0.022,-0.069,-0.014,-1.330,-0.103,-0.316,-66.238,18.124,-23.800
1747601265.43,-0.008,-0.067,-0.003,-1.327,-0.103,-0.308,-67.799,18.305,-23.541
1747601265.45,-0.029,-0.033,-0.007,-1.352,-0.026,-0.302,-69.364,18.660,-23.184
1747601265.47,-0.047,0.002,-0.086,-1.319,-0.125,-0.326,-70.923,18.979,-22.838
1747601265.49,0.024,-0.005,0.019,-1.237,0.005,-0.312,-72.429,19.336,-22.465
1747601265.51,0.030,-0.016,0.019,-1.181,-0.030,-0.308,-73.837,19.715,-22.150
1747601265.53,-0.023,-0.015,0.036,-1.151,-0.034,-0.292,-75.215,20.193,-21.628
1747601265.55,-0.119,-0.011,-0.063,-1.062,-0.097,-0.328,-76.514,20.532,-21.187
1747601265.57,-0.074,-0.057,-0.007,-1.001,0.132,-0.333,-77.766,20.798,-20.914
1747601265.59,-0.013,-0.049,-0.024,-1.061,0.254,-0.291,-78.951,21.393,-20.544
1747601265.61,-0.019,-0.003,0.043,-1.305,0.328,-0.319,-80.368,22.860,-19.407
1747601265.63,0.015,0.017,0.072,-1.135,0.080,-0.191,-81.789,24.946,-17.544
1747601265.65,0.077,0.021,0.055,-1.010,-0.025,-0.125,-82.945,27.957,-14.514
1747601265.67,0.008,0.024,0.010,-0.850,-0.022,-0.303,-83.978,30.652,-11.792
1747601265.69,-0.130,-0.008,-0.050,-0.901,-0.078,-0.435,-85.045,32.064,-10.305
1747601265.71,-0.147,-0.027,-0.025,-0.862,0.102,-0.453,-86.194,33.758,-8.607
1747601265.73,-0.100,-0.013,-0.038,-0.889,0.373,-0.386,-87.264,36.942,-5.672
1747601265.75,-0.013,-0.049,-0.044,-0.930,0.378,-0.282,-88.316,48.923,5.830
1747601265.77,0.098,-0.051,-0.124,-0.848,0.350,-0.116,-88.943,85.122,41.660
1747601265.79,0.130,0.030,-0.060,-0.816,0.398,-0.102,-88.727,132.508,88.618
1747601265.81,0.058,0.007,-0.031,-0.775,0.379,-0.160,-88.052,156.362,112.036
1747601265.83,-0.006,-0.019,-0.031,-0.780,0.220,-0.209,-87.274,168.206,123.535
1747601265.85,-0.037,0.035,-0.006,-0.635,0.029,-0.316,-86.496,175.811,131.010
1747601265.87,0.015,0.018,-0.028,-0.444,0.057,-0.350,-85.899,-178.088,137.103
1747601265.89,0.038,-0.034,0.036,-0.496,0.080,-0.271,-85.351,-173.790,141.313
1747601265.91,-0.048,-0.055,0.014,-0.460,-0.119,-0.188,-84.761,-171.619,143.524
1747601265.93,-0.049,-0.016,0.005,-0.361,0.021,-0.103,-84.267,-170.748,144.471
1747601265.95,-0.034,0.043,-0.022,-0.350,0.212,-0.083,-83.865,-170.301,144.800
1747601265.97,-0.047,0.049,0.016,-0.279,0.321,-0.100,-83.473,-169.664,145.134
1747601265.99,-0.054,-0.007,0.068,-0.134,0.376,-0.051,-83.231,-168.801,145.581
1747601266.01,-0.018,-0.032,0.016,0.022,0.044,0.024,-83.158,-168.553,145.557
1747601266.03,-0.005,-0.021,0.056,0.035,0.024,0.008,-83.227,-168.630,145.477
1747601266.05,0.000,-0.000,0.084,-0.021,0.045,0.038,-83.226,-168.749,145.306
1747601266.07,-0.022,0.010,0.016,0.070,-0.042,-0.005,-83.248,-168.915,145.137
1747601266.09,-0.015,0.021,0.070,0.075,-0.023,-0.003,-83.317,-168.625,145.463
1747601266.11,-0.038,-0.001,0.059,-0.020,-0.115,0.043,-83.331,-168.877,145.305
1747601266.13,-0.042,-0.062,0.067,-0.139,0.032,-0.001,-83.162,-169.478,144.772
1747601266.15,0.029,-0.053,0.025,-0.082,0.071,-0.051,-82.992,-169.305,144.862
1747601266.17,0.010,0.059,-0.043,0.102,-0.001,-0.083,-82.961,-168.568,145.560
1747601266.19,-0.041,0.070,-0.086,0.157,0.024,-0.005,-83.099,-167.806,146.325
1747601266.21,-0.031,-0.001,-0.012,0.042,0.002,0.080,-83.196,-167.955,146.151
1747601266.23,0.039,-0.045,-0.006,0.053,0.083,0.058,-83.245,-168.578,145.489
1747601266.25,0.096,-0.023,0.045,0.090,0.128,0.044,-83.335,-168.821,145.108
1747601266.27,0.048,0.013,0.033,0.189,0.004,0.030,-83.527,-168.672,145.168
1747601266.29,-0.036,0.012,0.057,0.218,-0.027,0.064,-83.767,-168.693,145.177
1747601266.31,-0.104,0.003,0.058,0.206,0.043,0.038,-84.027,-168.829,145.044
1747601266.33,-0.092,-0.019,0.059,0.160,0.067,0.006,-84.225,-168.711,145.082
1747601266.35,-0.048,-0.029,0.026,0.220,0.040,0.038,-84.429,-168.540,145.208
1747601266.37,0.001,-0.031,0.067,0.217,0.112,0.083,-84.678,-168.649,144.998
1747601266.39,0.040,-0.001,0.017,0.323,-0.009,0.109,-84.976,-169.024,144.558
1747601266.41,0.044,0.046,0.034,0.428,-0.149,0.151,-85.405,-169.765,143.904
1747601266.43,-0.013,0.027,0.038,0.500,-0.267,0.147,-85.954,-171.033,142.871
1747601266.45,-0.058,-0.014,0.013,0.636,-0.335,0.115,-86.612,-172.239,142.014
1747601266.47,-0.031,-0.009,0.026,0.627,-0.180,0.122,-87.360,-173.338,141.222
1747601266.49,-0.013,0.001,0.017,0.766,-0.104,0.122,-88.141,-174.980,139.730
1747601266.51,0.012,0.004,0.042,0.908,-0.061,0.224,-89.121,178.260,133.068
1747601266.53,-0.001,-0.009,0.119,0.907,-0.120,0.351,-89.608,66.995,21.890
1747601266.55,-0.128,-0.025,0.054,1.067,-0.113,0.305,-88.521,30.569,-14.377
1747601266.57,-0.198,-0.018,0.042,1.084,0.184,0.189,-87.272,22.187,-22.795
1747601266.59,-0.179,0.004,0.041,1.012,0.358,0.133,-86.075,18.205,-27.122
1747601266.61,-0.040,0.036,-0.019,0.864,0.101,0.184,-85.005,16.468,-29.241
1747601266.63,0.143,-0.014,0.067,0.766,0.174,0.291,-84.045,16.567,-29.389
1747601266.65,0.127,-0.059,0.053,0.871,0.074,0.334,-83.071,17.494,-28.722
1747601266.67,0.001,-0.028,-0.031,1.097,-0.033,0.308,-81.873,17.569,-28.760
1747601266.69,0.006,0.026,-0.084,1.076,-0.028,0.275,-80.569,17.176,-29.237
1747601266.71,0.039,-0.001,-0.071,1.007,-0.125,0.275,-79.331,16.705,-29.716
1747601266.73,0.124,-0.068,0.022,0.827,0.012,0.452,-78.219,17.084,-29.364
1747601266.75,0.121,-0.070,0.041,0.908,0.100,0.543,-77.118,18.364,-28.212
1747601266.77,-0.048,-0.014,-0.001,1.112,-0.190,0.473,-75.818,19.074,-27.550
1747601266.79,-0.204,0.033,-0.101,1.092,-0.252,0.282,-74.479,18.837,-27.616
1747601266.81,-0.136,0.034,-0.102,0.979,0.173,0.132,-73.271,18.085,-28.355
1747601266.83,-0.035,-0.016,0.138,0.861,0.568,0.214,-72.217,18.157,-28.927
1747601266.85,0.000,-0.052,0.066,0.736,0.500,0.433,-71.242,18.895,-28.829
1747601266.87,0.160,-0.064,-0.010,1.022,0.210,0.523,-70.148,19.972,-28.249
1747601266.89,0.204,0.000,-0.133,1.237,-0.148,0.354,-68.725,20.100,-28.179
1747601266.91,0.044,0.045,-0.100,1.179,-0.367,0.055,-67.323,19.120,-28.878
1747601266.93,-0.155,-0.018,-0.041,0.839,0.029,0.055,-66.228,18.078,-29.743
1747601266.95,-0.123,-0.095,0.004,0.821,0.153,0.250,-65.288,17.948,-30.055
1747601266.97,0.069,-0.075,-0.000,0.931,0.015,0.367,-64.249,18.176,-29.934
1747601266.99,0.155,-0.008,-0.007,1.108,-0.095,0.317,-63.023,18.162,-29.899
1747601267.01,0.037,0.056,-0.083,1.188,-0.129,0.209,-61.618,17.746,-30.186
1747601267.03,-0.141,0.029,0.076,0.856,0.033,0.130,-60.482,17.422,-30.537
1747601267.05,-0.094,-0.088,-0.044,0.641,0.061,0.282,-59.601,17.358,-30.628
1747601267.07,0.016,-0.043,0.056,0.913,-0.049,0.205,-58.714,17.498,-30.530
1747601267.08,-0.064,0.115,-0.063,1.317,-0.275,-0.023,-57.441,16.817,-31.084
1747601267.10,-0.116,0.152,-0.098,1.219,-0.062,-0.141,-56.022,15.792,-32.035
1747601267.13,-0.145,-0.007,0.079,0.761,0.452,-0.056,-54.994,15.413,-32.785
1747601267.14,-0.045,-0.153,-0.057,0.674,0.305,0.198,-54.176,15.638,-33.069
1747601267.16,0.049,-0.126,0.079,0.679,0.085,0.354,-53.376,16.037,-32.862
1747601267.18,0.157,0.042,-0.006,0.937,-0.099,0.290,-52.388,16.168,-32.666
1747601267.20,0.136,0.129,-0.004,1.026,-0.149,0.132,-51.205,15.887,-32.826
1747601267.22,0.069,0.080,0.034,0.739,-0.144,0.085,-50.195,15.526,-33.083
1747601267.24,0.024,-0.057,-0.041,0.564,-0.239,0.223,-49.463,15.241,-33.156
1747601267.26,0.005,-0.122,0.001,0.658,-0.236,0.324,-48.724,15.140,-32.920
1747601267.28,-0.044,-0.035,-0.066,0.863,-0.221,0.224,-47.781,14.963,-32.803
1747601267.30,0.028,0.012,0.020,0.900,-0.096,0.118,-46.739,14.686,-32.917
1747601267.32,0.117,-0.036,-0.010,0.636,-0.044,0.160,-45.828,14.541,-33.038
1747601267.34,0.090,-0.029,-0.014,0.436,-0.164,0.260,-45.214,14.505,-32.927
1747601267.36,0.063,0.028,0.057,0.629,-0.247,0.373,-44.547,14.498,-32.615
1747601267.38,-0.035,0.101,-0.019,0.769,-0.268,0.232,-43.669,14.337,-32.405
1747601267.40,-0.027,0.090,0.063,0.794,-0.104,0.055,-42.756,14.035,-32.508
1747601267.42,-0.010,0.004,-0.060,0.679,-0.078,0.030,-41.920,13.809,-32.740
1747601267.44,-0.047,-0.045,-0.092,0.552,-0.251,0.197,-41.229,13.551,-32.809
1747601267.46,-0.043,0.011,0.052,0.618,-0.133,0.226,-40.533,13.419,-32.662
1747601267.48,-0.105,0.113,0.012,0.677,-0.145,0.090,-39.770,13.291,-32.658
1747601267.50,-0.045,0.109,0.003,0.774,-0.294,0.019,-38.943,12.915,-32.837
1747601267.52,0.033,0.047,-0.013,0.743,-0.238,-0.051,-38.089,12.435,-33.098
1747601267.54,-0.125,-0.056,-0.066,0.586,-0.062,-0.027,-37.366,12.066,-33.381
1747601267.56,-0.164,-0.127,-0.026,0.529,0.161,0.067,-36.746,12.046,-33.499
1747601267.58,-0.005,-0.004,0.014,0.596,0.139,-0.050,-36.127,12.171,-33.640
1747601267.60,0.138,0.109,-0.003,0.674,-0.271,-0.097,-35.434,11.933,-33.949
1747601267.62,0.158,0.051,0.012,0.621,-0.375,0.011,-34.716,11.373,-34.191
1747601267.64,0.046,-0.084,-0.137,0.474,-0.253,0.126,-34.057,10.966,-34.265
1747601267.66,-0.043,-0.156,-0.039,0.331,0.003,0.234,-33.595,10.925,-34.102
1747601267.68,0.023,-0.083,-0.013,0.404,0.028,0.159,-33.152,11.091,-33.913
1747601267.70,0.094,0.002,-0.005,0.490,-0.227,0.111,-32.612,11.006,-33.866
1747601267.72,-0.026,0.016,-0.010,0.462,-0.275,0.103,-32.048,10.699,-33.848
1747601267.74,-0.083,-0.025,-0.045,0.371,-0.085,0.127,-31.544,10.515,-33.797
1747601267.76,0.027,0.000,-0.079,0.298,-0.034,0.127,-31.147,10.510,-33.717
1747601267.78,0.063,0.047,0.010,0.268,-0.110,0.156,-30.810,10.486,-33.594
1747601267.80,0.048,0.070,0.039,0.299,-0.168,0.193,-30.449,10.409,-33.444
1747601267.82,0.010,0.032,-0.072,0.215,-0.169,0.271,-30.103,10.311,-33.202
1747601267.84,-0.024,0.015,-0.095,0.189,-0.079,0.220,-29.835,10.321,-32.909
1747601267.86,-0.094,0.031,-0.003,0.203,-0.111,0.149,-29.574,10.319,-32.683
1747601267.88,-0.048,-0.003,0.011,0.241,-0.175,0.075,-29.299,10.194,-32.503
1747601267.90,-0.010,-0.044,-0.026,0.242,-0.134,0.051,-29.017,10.024,-32.397
1747601267.92,-0.012,0.003,-0.015,0.213,-0.052,0.052,-28.750,9.925,-32.319
1747601267.94,0.002,0.016,-0.018,0.197,-0.069,0.089,-28.506,9.882,-32.203
1747601267.96,0.053,-0.013,-0.065,0.146,-0.104,0.073,-28.301,9.812,-32.042
1747601267.98,-0.040,0.013,-0.034,0.159,-0.074,0.071,-28.117,9.726,-31.917
1747601268.00,-0.073,0.050,0.018,0.189,0.036,0.037,-27.910,9.713,-31.810
1747601268.02,-0.035,-0.006,0.014,0.188,0.080,-0.001,-27.705,9.777,-31.753
1747601268.04,0.021,-0.019,-0.024,0.148,0.092,0.010,-27.494,9.868,-31.689
1747601268.06,0.049,0.063,-0.027,0.164,0.015,0.021,-27.315,9.912,-31.620
1747601268.08,0.054,0.078,-0.044,0.080,-0.053,0.038,-27.193,9.868,-31.540
1747601268.10,0.029,0.013,-0.031,0.034,0.008,0.074,-27.138,9.835,-31.417
1747601268.12,0.025,0.036,-0.047,-0.022,0.017,0.091,-27.107,9.911,-31.235
1747601268.14,0.020,0.068,-0.051,-0.077,0.033,0.092,-27.151,10.003,-31.012
1747601268.16,-0.024,0.004,-0.108,-0.166,0.063,0.049,-27.284,10.122,-30.827
1747601268.18,0.035,0.002,-0.112,-0.294,0.040,0.029,-27.548,10.240,-30.662
1747601268.20,0.072,0.033,-0.047,-0.296,-0.036,0.032,-27.875,10.288,-30.486
1747601268.22,0.005,0.064,-0.025,-0.351,0.002,0.020,-28.240,10.307,-30.312
1747601268.24,-0.095,0.021,-0.088,-0.439,0.146,-0.000,-28.673,10.436,-30.135
1747601268.26,-0.067,-0.011,-0.162,-0.542,0.199,-0.089,-29.230,10.662,-29.993
1747601268.28,0.024,-0.048,-0.108,-0.588,0.055,-0.133,-29.886,10.819,-29.938
1747601268.30,0.070,-0.083,-0.050,-0.602,-0.032,-0.191,-30.590,10.788,-29.918
1747601268.32,0.008,-0.073,-0.026,-0.679,0.004,-0.182,-31.344,10.716,-29.960
1747601268.34,0.015,-0.032,-0.008,-0.748,0.111,-0.042,-32.170,10.791,-29.867
1747601268.36,0.119,0.022,-0.045,-0.832,0.172,0.058,-33.052,11.088,-29.592
1747601268.38,0.118,0.031,-0.080,-0.899,0.092,0.045,-34.016,11.423,-29.246
1747601268.40,0.082,-0.041,-0.008,-0.840,0.050,-0.042,-34.994,11.643,-28.941
1747601268.42,0.031,-0.126,-0.085,-0.858,-0.084,-0.093,-35.949,11.700,-28.774
1747601268.44,-0.000,-0.147,-0.037,-0.889,0.008,-0.063,-36.952,11.720,-28.583
1747601268.46,-0.096,-0.084,-0.038,-0.903,0.106,-0.087,-37.964,11.891,-28.376
1747601268.48,-0.124,-0.029,-0.034,-0.991,0.169,-0.078,-39.035,12.158,-28.202
1747601268.50,0.001,-0.031,-0.073,-1.069,0.149,-0.010,-40.214,12.507,-27.935
1747601268.52,0.136,-0.046,-0.010,-1.001,0.189,-0.021,-41.369,12.916,-27.569
1747601268.54,0.058,-0.023,-0.022,-0.994,0.113,-0.112,-42.483,13.251,-27.332
1747601268.56,-0.027,-0.020,-0.023,-1.099,0.060,-0.045,-43.667,13.518,-27.072
1747601268.58,-0.024,0.001,-0.030,-1.173,0.095,0.023,-44.935,13.899,-26.662
1747601268.60,0.011,0.007,-0.029,-1.176,0.085,0.021,-46.239,14.372,-26.146
1747601268.62,-0.009,0.009,-0.038,-1.118,0.046,-0.077,-47.508,14.761,-25.721
1747601268.64,-0.037,-0.022,-0.048,-1.160,0.033,-0.125,-48.780,15.063,-25.403
1747601268.66,-0.043,-0.036,-0.034,-1.213,0.051,-0.141,-50.134,15.353,-25.084
1747601268.68,-0.052,-0.046,-0.003,-1.225,0.132,-0.129,-51.519,15.720,-24.737
1747601268.70,-0.083,-0.004,-0.008,-1.259,0.193,-0.140,-52.915,16.220,-24.354
1747601268.72,-0.082,0.035,0.013,-1.289,0.284,-0.166,-54.366,16.838,-23.961
1747601268.74,-0.038,0.071,0.003,-1.297,0.266,-0.220,-55.835,17.476,-23.601
1747601268.76,0.034,0.075,0.031,-1.259,0.198,-0.265,-57.320,18.034,-23.301
1747601268.78,0.080,0.042,-0.004,-1.230,0.054,-0.284,-58.764,18.410,-23.049
1747601268.80,0.100,-0.019,-0.037,-1.224,-0.019,-0.368,-60.214,18.579,-22.900
1747601268.82,0.069,-0.074,-0.021,-1.220,-0.082,-0.410,-61.674,18.549,-22.904
1747601268.84,0.058,-0.101,-0.034,-1.302,-0.171,-0.355,-63.174,18.475,-22.856
1747601268.86,0.079,-0.079,-0.040,-1.332,-0.160,-0.314,-64.723,18.528,-22.692
1747601268.88,0.069,-0.046,-0.035,-1.306,-0.110,-0.319,-66.277,18.700,-22.410
1747601268.90,0.010,-0.035,-0.040,-1.191,-0.143,-0.348,-67.744,18.753,-22.277
1747601268.92,-0.013,-0.060,-0.046,-1.222,-0.223,-0.319,-69.172,18.760,-22.120
1747601268.94,0.004,-0.080,-0.092,-1.246,-0.023,-0.355,-70.599,18.806,-21.959
1747601268.96,0.025,-0.080,-0.008,-1.428,-0.022,-0.365,-72.202,19.170,-21.683
1747601268.98,-0.000,-0.051,-0.041,-1.330,-0.114,-0.308,-73.826,19.598,-21.152
1747601269.00,0.015,-0.019,0.019,-1.175,-0.056,-0.293,-75.289,20.118,-20.506
1747601269.02,0.003,0.007,-0.029,-1.080,0.057,-0.327,-76.613,20.569,-20.036
1747601269.04,-0.053,0.016,-0.029,-1.187,0.170,-0.398,-77.953,21.009,-19.731
1747601269.06,-0.074,-0.022,-0.011,-1.182,0.176,-0.397,-79.397,21.517,-19.415
1747601269.08,0.008,-0.068,0.070,-1.226,0.289,-0.284,-80.794,22.554,-18.613
1747601269.10,0.067,-0.042,0.151,-1.333,0.182,-0.247,-82.280,25.197,-16.279
1747601269.12,0.036,0.001,-0.089,-1.076,-0.128,-0.312,-83.647,27.932,-13.491
1747601269.14,0.033,0.042,0.021,-1.145,-0.025,-0.391,-84.928,30.244,-11.053
1747601269.16,-0.010,0.045,0.077,-1.179,0.048,-0.447,-86.322,34.423,-6.927
1747601269.18,-0.109,-0.019,-0.022,-1.111,-0.020,-0.446,-87.664,41.970,0.643
1747601269.20,-0.107,-0.060,0.022,-1.032,0.151,-0.414,-88.819,65.254,23.859
1747601269.22,-0.103,0.006,-0.018,-0.896,0.088,-0.419,-89.154,135.440,93.903
1747601269.24,-0.037,0.036,-0.022,-0.709,0.103,-0.425,-88.461,175.844,134.204
1747601269.26,0.018,0.024,-0.038,-0.597,0.381,-0.411,-87.736,-170.414,147.704
1747601269.28,0.024,-0.019,0.055,-0.725,0.459,-0.308,-86.890,-164.690,152.904
1747601269.30,-0.054,-0.046,-0.042,-0.656,0.256,-0.200,-86.050,-163.453,153.756
1747601269.32,-0.091,-0.038,0.006,-0.603,0.346,-0.183,-85.302,-163.112,153.766
1747601269.34,-0.052,-0.028,0.007,-0.499,0.596,-0.143,-84.643,-162.615,153.729
1747601269.36,0.017,0.005,-0.024,-0.328,0.667,-0.062,-84.158,-162.172,153.424
1747601269.38,0.053,0.045,-0.066,-0.235,0.555,0.009,-83.846,-162.156,152.722
1747601269.40,-0.005,0.019,-0.093,-0.196,0.378,0.003,-83.623,-162.455,151.887
1747601269.42,-0.032,0.006,-0.086,-0.093,0.299,-0.072,-83.451,-162.164,151.801
1747601269.44,-0.014,0.004,-0.031,-0.066,0.278,-0.074,-83.346,-161.370,152.283
1747601269.46,0.038,0.020,0.001,-0.079,0.430,-0.026,-83.242,-160.703,152.544
1747601269.48,0.050,0.019,-0.032,0.117,0.329,0.097,-83.264,-160.564,152.226
1747601269.50,0.031,-0.003,0.020,0.135,0.129,0.116,-83.473,-160.884,151.643
1747601269.52,0.010,-0.009,0.043,0.125,0.057,0.064,-83.634,-161.283,151.141
1747601269.54,-0.057,-0.031,0.063,0.062,0.039,0.081,-83.784,-161.465,150.920
1747601269.56,-0.083,-0.065,0.097,-0.107,0.102,0.042,-83.768,-162.321,149.998
1747601269.58,-0.065,-0.018,0.051,-0.069,0.199,-0.078,-83.664,-162.304,149.830
1747601269.60,-0.028,0.042,0.045,-0.029,0.216,-0.141,-83.545,-161.227,150.670
1747601269.62,-0.034,-0.213,-0.007,0.051,0.151,-0.163,-83.511,-159.248,152.442
1747601269.64,0.020,-0.113,-0.012,-0.071,0.003,0.044,-83.432,-158.583,153.017
1747601269.66,0.011,-0.050,-0.029,-0.037,-0.202,0.173,-83.402,-159.995,151.723
1747601269.68,0.017,0.027,0.016,0.013,-0.181,0.154,-83.440,-161.839,150.098
1747601269.70,0.002,0.075,0.040,0.106,-0.088,0.072,-83.548,-162.877,149.214
1747601269.72,-0.053,0.121,0.071,0.058,-0.047,-0.000,-83.656,-162.950,149.207
1747601269.74,-0.080,0.209,0.056,0.039,-0.109,-0.027,-83.686,-162.755,149.476
1747601269.76,-0.048,-0.017,0.051,0.103,-0.085,-0.015,-83.763,-162.424,149.957
1747601269.78,-0.005,-0.082,0.117,0.078,0.145,0.018,-83.865,-162.077,150.253
1747601269.80,-0.077,-0.020,0.031,0.147,0.103,0.043,-83.986,-161.886,150.281
1747601269.82,-0.080,0.023,-0.023,0.215,-0.013,0.092,-84.196,-161.809,150.313
1747601269.84,-0.015,0.020,0.009,0.253,-0.011,0.149,-84.497,-162.332,149.809
1747601269.86,-0.007,-0.003,0.056,0.258,-0.048,0.152,-84.797,-163.289,148.872
1747601269.88,0.027,-0.040,0.011,0.367,-0.283,0.141,-85.167,-164.123,148.219
1747601269.90,0.106,-0.038,0.007,0.498,-0.439,0.157,-85.686,-164.862,147.898
1747601269.92,0.111,0.008,0.000,0.635,-0.622,0.140,-86.350,-165.470,147.878
1747601269.94,0.037,0.093,-0.050,0.773,-0.874,0.104,-87.178,-165.041,149.191
1747601269.96,-0.095,0.070,0.074,0.664,-0.755,0.089,-88.010,-163.004,152.198
1747601269.98,-0.146,-0.060,0.064,0.640,-0.482,0.103,-88.740,-158.703,157.194
1747601270.00,-0.101,-0.114,0.017,0.776,-0.412,0.160,-89.501,-142.930,173.456
1747601270.02,0.010,0.002,-0.065,0.830,-0.219,0.189,-89.441,-10.205,-53.420
1747601270.04,0.066,0.106,-0.001,0.999,-0.229,0.219,-88.418,4.844,-38.169
1747601270.06,-0.056,0.038,-0.060,0.982,-0.213,0.173,-87.231,7.320,-35.405
1747601270.08,-0.127,-0.090,0.005,0.961,0.072,0.164,-86.140,7.854,-34.870
1747601270.10,-0.076,-0.091,0.001,1.186,0.244,0.252,-84.886,8.756,-34.278
1747601270.12,-0.011,-0.010,-0.056,1.246,0.018,0.300,-83.436,9.780,-33.523
1747601270.14,0.040,0.042,-0.029,1.038,0.161,0.352,-82.064,10.878,-32.560
1747601270.16,-0.013,-0.015,0.111,0.955,0.255,0.284,-80.914,12.102,-31.703
1747601270.18,-0.075,-0.116,0.024,1.002,0.105,0.388,-79.754,12.987,-31.104
1747601270.20,-0.022,-0.054,-0.058,1.316,0.003,0.504,-78.338,14.105,-30.114
1747601270.22,-0.001,0.099,-0.057,1.375,0.114,0.290,-76.720,14.485,-29.828
1747601270.24,-0.014,0.087,0.011,1.191,0.412,0.026,-75.243,14.040,-30.737
1747601270.26,-0.093,-0.104,0.016,1.023,0.344,0.161,-74.002,13.564,-31.759
1747601270.27,-0.071,-0.189,-0.057,0.856,0.350,0.503,-72.877,14.400,-31.392
1747601270.29,-0.002,-0.061,-0.021,0.942,0.295,0.535,-71.759,15.850,-30.341
1747601270.31,0.205,0.079,-0.014,1.328,0.324,0.350,-70.345,16.512,-30.043
1747601270.33,0.183,0.089,0.233,1.185,0.132,0.271,-68.887,16.656,-30.276
1747601270.35,-0.046,-0.009,-0.121,0.942,0.012,0.432,-67.555,16.671,-30.264
1747601270.37,-0.048,-0.083,0.033,0.937,0.078,0.487,-66.451,17.283,-29.680
1747601270.39,0.097,-0.023,0.030,1.164,0.058,0.431,-65.111,17.679,-29.335
1747601270.41,0.043,0.065,0.033,1.096,-0.145,0.311,-63.741,17.624,-29.350
1747601270.43,-0.050,0.039,0.039,1.010,-0.147,0.280,-62.504,17.336,-29.444
1747601270.45,-0.024,-0.013,0.016,0.860,-0.090,0.317,-61.400,17.217,-29.457
1747601270.47,0.057,-0.020,0.031,0.938,0.020,0.313,-60.309,17.291,-29.316
1747601270.49,0.007,0.030,-0.019,1.010,-0.118,0.146,-59.160,17.124,-29.475
1747601270.51,-0.019,0.072,-0.010,0.950,-0.076,0.163,-58.053,16.764,-29.797
1747601270.53,-0.025,0.073,0.040,0.909,0.003,0.198,-56.954,16.522,-30.007
1747601270.55,-0.023,0.012,0.051,0.871,0.040,0.231,-55.914,16.479,-30.121
1747601270.57,-0.009,-0.019,0.003,1.056,-0.050,0.266,-54.793,16.430,-30.161
1747601270.59,-0.035,0.006,-0.078,1.117,0.056,0.099,-53.502,16.226,-30.400
1747601270.61,-0.093,0.006,-0.014,0.905,0.148,-0.107,-52.401,15.897,-30.961
1747601270.63,-0.047,-0.060,0.050,0.693,0.174,0.062,-51.536,15.713,-31.459
1747601270.65,0.136,-0.041,0.034,0.663,-0.011,0.273,-50.771,15.838,-31.456
1747601270.67,0.195,0.045,-0.034,1.038,-0.279,0.287,-49.766,15.720,-31.355
1747601270.69,0.066,0.070,-0.061,1.180,-0.242,0.065,-48.440,15.226,-31.578
1747601270.71,-0.053,-0.031,-0.066,0.960,-0.133,-0.052,-47.233,14.673,-32.077
1747601270.73,-0.004,-0.213,-0.082,0.581,-0.047,0.096,-46.397,14.347,-32.404
1747601270.75,0.123,-0.221,0.023,0.595,-0.148,0.424,-45.697,14.380,-32.198
1747601270.77,0.068,0.031,0.025,0.942,-0.307,0.415,-44.728,14.413,-31.801
1747601270.79,0.009,0.115,0.017,1.038,-0.273,0.161,-43.510,14.098,-31.740
1747601270.81,0.003,-0.018,-0.101,0.768,-0.175,0.062,-42.458,13.692,-31.957
1747601270.83,-0.013,-0.136,-0.059,0.534,-0.060,0.197,-41.746,13.539,-32.008
1747601270.85,-0.033,-0.053,0.043,0.626,-0.031,0.379,-41.030,13.643,-31.760
1747601270.87,-0.033,0.149,0.004,0.781,-0.183,0.291,-40.154,13.701,-31.487
1747601270.89,0.023,0.207,0.015,0.829,-0.273,0.024,-39.196,13.400,-31.542
1747601270.91,-0.010,0.049,-0.075,0.703,-0.353,-0.109,-38.358,12.822,-31.898
1747601270.93,-0.066,-0.119,-0.017,0.587,-0.243,0.123,-37.655,12.325,-32.100
1747601270.95,-0.019,-0.056,0.035,0.633,-0.070,0.197,-36.934,12.222,-32.027
1747601270.97,0.008,0.108,0.051,0.702,-0.143,0.070,-36.160,12.119,-32.031
1747601270.99,0.090,0.094,0.004,0.735,-0.330,0.027,-35.337,11.758,-32.185
1747601271.01,0.057,0.037,-0.066,0.656,-0.343,0.031,-34.543,11.270,-32.340
1747601271.03,-0.155,-0.069,-0.098,0.479,-0.101,0.112,-33.894,10.933,-32.409
1747601271.05,-0.165,-0.084,0.032,0.515,0.210,0.117,-33.334,11.060,-32.365
1747601271.07,0.003,0.026,-0.016,0.624,0.094,-0.001,-32.691,11.237,-32.416
1747601271.09,0.038,0.080,-0.011,0.702,-0.187,-0.153,-31.936,11.012,-32.711
1747601271.11,-0.074,0.004,-0.014,0.654,-0.122,-0.144,-31.208,10.601,-33.097
1747601271.13,-0.077,0.018,-0.054,0.488,0.002,-0.109,-30.595,10.391,-33.395
1747601271.15,-0.036,0.100,-0.034,0.507,-0.026,-0.077,-30.062,10.265,-33.630
1747601271.17,0.020,0.044,-0.021,0.557,-0.096,-0.168,-29.487,10.056,-33.906
1747601271.19,0.060,-0.104,0.006,0.566,-0.006,-0.124,-28.884,9.828,-34.242
1747601271.21,0.085,-0.101,-0.028,0.469,0.029,0.048,-28.289,9.776,-34.400
1747601271.23,0.072,0.047,-0.037,0.375,0.054,0.111,-27.816,9.832,-34.380
1747601271.25,-0.026,0.043,-0.076,0.316,0.064,0.107,-27.401,9.928,-34.316
1747601271.27,0.035,-0.062,-0.051,0.306,0.012,0.098,-27.034,10.018,-34.256
1747601271.29,0.062,-0.052,0.009,0.337,-0.070,0.082,-26.655,10.000,-34.211
1747601271.31,0.033,0.011,0.049,0.362,-0.091,0.092,-26.236,9.902,-34.149
1747601271.33,0.030,0.018,-0.001,0.284,0.027,0.132,-25.845,9.902,-34.023
1747601271.35,0.024,0.033,-0.123,0.133,0.049,0.209,-25.585,10.012,-33.789
1747601271.37,0.015,0.043,-0.061,0.104,-0.035,0.221,-25.413,10.128,-33.449
1747601271.39,0.065,0.016,0.003,0.175,-0.127,0.155,-25.224,10.121,-33.183
1747601271.41,-0.024,-0.023,-0.029,0.120,-0.071,0.130,-25.023,10.056,-32.962
1747601271.43,-0.086,0.001,-0.082,0.070,0.036,0.153,-24.883,10.097,-32.743
1747601271.45,-0.007,0.080,-0.063,-0.003,-0.030,0.106,-24.826,10.189,-32.508
1747601271.47,0.048,0.010,-0.074,-0.060,-0.075,0.115,-24.840,10.188,-32.273
1747601271.49,0.033,-0.010,-0.086,-0.121,-0.023,0.101,-24.915,10.196,-32.049
1747601271.51,-0.013,0.051,-0.066,-0.179,0.008,0.089,-25.054,10.236,-31.830
1747601271.53,-0.006,0.017,-0.057,-0.297,-0.033,0.094,-25.312,10.292,-31.596
1747601271.55,0.042,-0.017,-0.147,-0.423,-0.014,0.113,-25.697,10.354,-31.273
1747601271.57,0.039,0.030,-0.132,-0.475,0.010,-0.011,-26.181,10.442,-31.018
1747601271.59,-0.035,-0.029,-0.087,-0.554,-0.114,-0.067,-26.762,10.399,-30.866
1747601271.61,0.026,-0.042,-0.021,-0.606,-0.111,-0.112,-27.433,10.281,-30.783
1747601271.63,0.010,-0.024,-0.123,-0.707,0.014,-0.055,-28.190,10.219,-30.673
1747601271.65,0.002,-0.007,-0.084,-0.768,0.202,-0.071,-29.029,10.403,-30.513
1747601271.67,0.041,-0.028,-0.096,-0.904,0.229,-0.076,-29.988,10.704,-30.332
1747601271.69,0.096,-0.047,-0.067,-1.006,0.173,-0.045,-31.075,11.031,-30.086
1747601271.71,0.014,-0.003,-0.045,-1.027,0.107,-0.113,-32.230,11.268,-29.869
1747601271.73,-0.074,-0.000,-0.058,-1.086,0.041,-0.142,-33.439,11.406,-29.737
1747601271.75,0.024,-0.036,-0.052,-1.121,0.084,-0.082,-34.709,11.550,-29.551
1747601271.77,0.064,-0.042,-0.041,-1.155,0.134,-0.044,-35.986,11.827,-29.270
1747601271.79,-0.022,-0.037,-0.004,-1.171,0.115,-0.057,-37.316,12.142,-28.950
1747601271.81,-0.068,-0.040,-0.048,-1.145,0.064,-0.107,-38.623,12.394,-28.681
1747601271.83,0.004,-0.081,-0.063,-1.208,0.039,-0.116,-39.963,12.576,-28.442
1747601271.85,0.081,-0.110,-0.016,-1.228,0.115,-0.073,-41.345,12.839,-28.149
1747601271.87,0.041,-0.141,-0.019,-1.231,0.143,-0.009,-42.714,13.233,-27.763
1747601271.89,-0.005,-0.141,-0.056,-1.339,0.124,0.041,-44.131,13.730,-27.241
1747601271.91,0.051,-0.097,-0.037,-1.368,0.125,0.061,-45.627,14.306,-26.591
1747601271.93,0.071,-0.021,-0.046,-1.402,0.101,-0.028,-47.149,14.893,-25.958
1747601271.95,0.029,0.021,-0.045,-1.437,0.010,-0.079,-48.724,15.347,-25.404
1747601271.97,-0.017,0.024,-0.039,-1.532,-0.016,-0.075,-50.382,15.770,-24.809
1747601271.99,-0.032,0.025,-0.017,-1.578,-0.089,-0.097,-52.120,16.199,-24.170
1747601272.01,-0.025,0.031,0.022,-1.503,0.038,-0.126,-53.853,16.673,-23.515
1747601272.03,-0.079,0.063,-0.019,-1.491,0.109,-0.274,-55.541,17.158,-23.031
1747601272.05,-0.140,0.060,-0.034,-1.462,0.136,-0.421,-57.278,17.475,-22.830
1747601272.07,-0.162,0.030,-0.019,-1.445,0.226,-0.539,-59.017,17.645,-22.888
1747601272.09,-0.107,-0.033,-0.008,-1.499,0.211,-0.583,-60.819,17.709,-23.143
1747601272.11,0.016,-0.082,0.033,-1.580,0.242,-0.540,-62.693,17.824,-23.408
1747601272.13,0.126,-0.085,-0.004,-1.529,0.231,-0.483,-64.561,18.077,-23.509
1747601272.15,0.191,-0.050,0.055,-1.530,0.200,-0.430,-66.388,18.471,-23.428
1747601272.17,0.156,-0.024,0.061,-1.526,0.105,-0.415,-68.188,18.891,-23.246
1747601272.19,0.112,-0.031,-0.033,-1.526,-0.148,-0.423,-69.993,19.178,-22.999
1747601272.21,0.043,-0.045,-0.041,-1.450,-0.196,-0.472,-71.777,19.194,-22.845
1747601272.23,-0.011,-0.044,0.006,-1.372,-0.093,-0.509,-73.476,19.021,-22.858
1747601272.25,-0.062,-0.047,-0.003,-1.381,-0.002,-0.483,-75.141,18.828,-22.999
1747601272.27,-0.065,-0.045,-0.029,-1.379,0.116,-0.419,-76.812,19.023,-22.862
1747601272.29,-0.063,-0.046,-0.012,-1.266,0.273,-0.376,-78.373,19.532,-22.572
1747601272.31,-0.046,-0.034,0.007,-1.279,0.276,-0.344,-79.905,20.499,-21.912
1747601272.33,-0.062,-0.019,-0.076,-1.176,0.281,-0.371,-81.338,21.542,-21.188
1747601272.35,-0.050,-0.036,-0.006,-1.114,0.461,-0.412,-82.732,22.459,-20.666
1747601272.37,0.039,-0.039,0.064,-1.071,0.517,-0.329,-84.038,23.869,-19.850
1747601272.39,0.036,0.028,-0.007,-1.118,0.493,-0.373,-85.328,26.456,-17.831
1747601272.41,0.054,0.034,-0.018,-1.119,0.149,-0.490,-86.693,28.928,-15.755
1747601272.43,0.112,-0.025,-0.053,-0.903,-0.349,-0.439,-87.982,31.527,-13.031
1747601272.45,0.099,-0.037,-0.076,-0.787,-0.376,-0.409,-89.022,35.494,-8.605
1747601272.47,-0.005,-0.012,0.009,-0.876,-0.169,-0.414,-89.806,149.660,105.867
1747601272.49,-0.102,-0.000,0.011,-0.740,0.017,-0.386,-88.836,-161.427,154.881
1747601272.51,-0.064,0.024,0.002,-0.616,0.245,-0.278,-87.985,-158.002,158.160
1747601272.53,-0.041,0.026,0.006,-0.630,0.526,-0.206,-87.243,-157.671,158.056
1747601272.55,-0.075,-0.026,0.010,-0.559,0.509,-0.155,-86.525,-158.299,156.780
1747601272.57,-0.126,-0.077,-0.014,-0.552,0.315,-0.174,-85.888,-158.761,155.881
1747601272.59,-0.069,-0.037,0.050,-0.592,0.451,-0.206,-85.183,-158.754,155.443
1747601272.61,-0.023,0.041,0.004,-0.516,0.449,-0.200,-84.510,-158.407,155.268
1747601272.63,-0.012,0.070,-0.029,-0.388,0.303,-0.186,-83.930,-157.838,155.405
1747601272.65,0.036,-0.019,-0.006,-0.265,0.210,-0.064,-83.547,-157.532,155.420
1747601272.67,0.080,-0.034,-0.021,-0.292,-0.003,0.012,-83.254,-158.323,154.495
1747601272.69,0.005,0.016,0.013,-0.205,-0.081,-0.051,-82.962,-159.149,153.729
1747601272.71,-0.064,0.009,0.067,-0.189,0.003,-0.093,-82.756,-159.077,153.849
1747601272.73,-0.050,-0.036,0.067,-0.332,0.134,-0.092,-82.418,-159.079,153.771
1747601272.75,-0.008,0.001,-0.012,-0.230,0.122,-0.033,-82.084,-159.241,153.449
1747601272.77,-0.005,0.039,-0.029,-0.100,-0.015,0.053,-81.904,-159.756,152.865
1747601272.79,-0.033,0.010,-0.052,0.022,0.035,0.051,-81.900,-160.305,152.320
1747601272.81,-0.075,-0.043,-0.017,0.143,0.094,0.034,-81.951,-160.241,152.297
1747601272.83,-0.090,-0.038,-0.026,0.288,0.111,0.061,-82.204,-159.807,152.616
1747601272.85,-0.028,0.030,0.028,0.217,0.134,0.089,-82.548,-159.402,152.890
1747601272.87,0.057,0.024,0.056,0.059,-0.007,0.055,-82.731,-159.422,152.793
1747601272.89,0.110,-0.032,0.045,0.018,-0.008,0.034,-82.792,-159.444,152.778
1747601272.91,0.105,-0.069,0.070,0.025,-0.061,0.034,-82.804,-159.570,152.663
1747601272.93,-0.011,-0.005,0.018,0.015,-0.256,0.036,-82.857,-159.934,152.490
1747601272.95,-0.078,0.029,-0.020,0.013,-0.279,-0.058,-82.842,-160.261,152.481
1747601272.97,0.045,0.062,-0.067,0.103,-0.301,-0.103,-82.868,-159.793,153.280
1747601272.99,0.097,0.084,-0.078,0.218,-0.331,-0.082,-82.989,-158.979,154.476
1747601273.01,-0.022,-0.015,0.018,0.269,-0.419,0.002,-83.238,-158.250,155.629
1747601273.03,-0.140,-0.082,0.053,0.217,-0.283,0.020,-83.501,-157.902,156.408
1747601273.05,-0.072,-0.062,0.032,0.207,-0.053,0.035,-83.725,-157.525,156.971
1747601273.07,-0.028,0.010,0.058,0.231,0.033,0.071,-83.992,-157.115,157.376
1747601273.09,-0.085,0.004,0.096,0.130,0.007,0.083,-84.216,-157.160,157.321
1747601273.11,-0.051,-0.039,0.067,0.170,0.018,0.064,-84.401,-157.285,157.181
1747601273.13,0.019,-0.014,0.079,0.158,-0.008,0.043,-84.594,-157.080,157.373
1747601273.15,-0.006,0.012,0.028,0.220,-0.187,0.054,-84.819,-156.843,157.724
1747601273.17,-0.034,-0.003,0.013,0.319,-0.161,0.049,-85.086,-156.217,158.562
1747601273.19,-0.024,-0.020,-0.003,0.353,-0.152,0.102,-85.410,-155.350,159.610
1747601273.21,-0.024,-0.006,-0.025,0.438,-0.088,0.159,-85.850,-154.920,160.192
1747601273.23,-0.029,0.011,0.018,0.537,-0.077,0.216,-86.449,-154.360,160.837
1747601273.25,-0.053,0.028,0.014,0.586,-0.074,0.233,-87.145,-153.463,161.819
1747601273.27,-0.036,0.025,0.024,0.595,-0.089,0.224,-87.871,-151.761,163.610
1747601273.29,-0.040,-0.002,0.037,0.623,-0.034,0.163,-88.573,-146.853,168.603
1747601273.31,-0.033,-0.028,0.018,0.781,-0.026,0.142,-89.264,-122.845,-167.365
1747601273.33,0.002,0.016,-0.027,0.855,-0.181,0.230,-89.313,-36.615,-81.013
1747601273.35,-0.011,0.055,-0.041,0.786,-0.281,0.206,-88.497,-5.839,-49.968
1747601273.37,0.007,0.017,0.011,0.738,-0.352,0.152,-87.658,0.856,-42.907
1747601273.39,0.050,-0.028,-0.016,0.753,-0.270,0.136,-86.783,3.209,-40.147
1747601273.41,0.070,-0.056,0.022,1.005,-0.022,0.132,-85.793,4.373,-38.835
1747601273.43,0.035,-0.015,-0.035,1.082,-0.004,0.167,-84.566,5.166,-38.157
1747601273.44,-0.003,0.008,-0.079,0.993,-0.008,0.209,-83.345,6.056,-37.326
1747601273.46,-0.048,-0.014,0.072,0.938,0.149,0.265,-82.258,7.391,-36.198
1747601273.48,-0.097,-0.033,-0.051,1.091,0.108,0.268,-81.045,8.447,-35.374
1747601273.50,-0.016,-0.032,0.021,0.942,0.105,0.269,-79.860,9.339,-34.687
1747601273.52,0.037,-0.014,0.014,1.005,0.351,0.218,-78.725,10.028,-34.336
1747601273.54,0.053,-0.018,0.032,1.032,0.291,0.322,-77.501,10.826,-34.042
1747601273.56,-0.043,-0.025,0.001,0.854,0.048,0.482,-76.353,11.998,-33.092
1747601273.58,-0.013,-0.027,-0.004,0.879,0.067,0.501,-75.288,13.485,-31.696
1747601273.60,0.086,0.002,-0.037,1.136,0.181,0.267,-74.057,14.197,-31.188
1747601273.62,0.102,0.022,0.018,1.022,0.074,0.203,-72.769,14.176,-31.504
1747601273.64,-0.122,-0.011,-0.102,0.812,-0.039,0.208,-71.682,13.981,-31.742
1747601273.66,-0.151,-0.075,0.014,0.660,0.289,0.333,-70.831,14.452,-31.485
1747601273.68,-0.079,-0.029,-0.029,0.973,0.411,0.309,-69.858,15.251,-31.088
1747601273.70,0.031,0.051,-0.110,1.264,0.264,0.218,-68.521,15.518,-31.230
1747601273.72,-0.006,0.023,-0.057,1.134,0.346,0.123,-67.123,15.361,-31.735
1747601273.74,-0.024,-0.133,0.021,0.802,0.634,0.232,-65.996,15.636,-32.054
1747601273.76,-0.023,-0.204,0.116,0.544,0.618,0.511,-65.159,16.805,-31.577
1747601273.78,0.171,-0.075,0.131,0.644,0.263,0.684,-64.350,18.371,-30.433
1747601273.80,0.317,0.138,0.024,1.145,-0.221,0.479,-63.149,19.068,-29.691
1747601273.82,0.116,0.243,-0.028,1.171,-0.640,0.207,-61.739,18.393,-29.853
1747601273.84,-0.180,0.156,-0.012,1.018,-0.414,0.026,-60.503,17.271,-30.420
1747601273.86,-0.216,-0.005,0.066,0.773,0.045,0.025,-59.494,16.552,-30.987
1747601273.88,-0.065,-0.085,0.112,0.653,0.183,0.193,-58.717,16.540,-31.230
1747601273.90,-0.032,-0.034,0.044,0.802,0.150,0.362,-57.832,16.854,-31.048
1747601273.92,-0.066,0.097,-0.066,0.899,0.088,0.242,-56.780,17.080,-30.953
1747601273.94,-0.129,0.126,-0.035,0.896,0.144,0.057,-55.741,16.982,-31.210
1747601273.96,-0.060,0.053,0.051,0.790,0.138,0.030,-54.807,16.780,-31.667
1747601273.98,0.104,-0.023,0.008,0.664,0.076,0.114,-54.002,16.688,-31.916
1747601274.00,0.136,-0.014,-0.025,0.712,-0.068,0.127,-53.224,16.595,-32.069
1747601274.02,0.056,0.021,-0.038,0.792,-0.127,0.164,-52.341,16.342,-32.202
1747601274.04,-0.028,0.014,0.050,0.852,-0.042,0.117,-51.389,16.126,-32.378
1747601274.06,-0.042,-0.046,-0.027,0.713,0.003,0.128,-50.485,15.953,-32.572
1747601274.08,0.049,-0.112,-0.048,0.662,-0.038,0.148,-49.690,15.876,-32.665
1747601274.10,0.133,-0.023,-0.069,0.596,-0.106,0.179,-48.951,15.768,-32.690
1747601274.12,0.083,0.066,0.012,0.673,-0.141,0.228,-48.192,15.655,-32.653
1747601274.14,-0.039,0.023,-0.012,0.657,-0.238,0.259,-47.363,15.500,-32.558
1747601274.16,0.012,-0.054,0.022,0.682,-0.139,0.243,-46.570,15.372,-32.439
1747601274.18,0.083,-0.051,-0.034,0.770,-0.149,0.191,-45.697,15.241,-32.409
1747601274.20,0.033,-0.040,-0.076,0.747,-0.165,0.126,-44.795,14.991,-32.487
1747601274.22,-0.055,-0.083,-0.028,0.650,-0.156,0.141,-43.985,14.731,-32.587
1747601274.24,-0.012,-0.094,0.078,0.585,-0.059,0.228,-43.256,14.658,-32.542
1747601274.26,0.076,-0.023,-0.016,0.609,-0.279,0.302,-42.514,14.575,-32.378
1747601274.28,0.156,0.075,-0.037,0.650,-0.375,0.276,-41.735,14.330,-32.172
1747601274.30,-0.025,0.097,-0.012,0.666,-0.351,0.179,-40.948,13.970,-32.090
1747601274.32,-0.136,-0.012,-0.009,0.647,-0.216,0.247,-40.161,13.683,-32.029
1747601274.34,-0.052,-0.095,-0.037,0.694,-0.141,0.263,-39.340,13.582,-31.876
1747601274.36,-0.019,-0.051,0.014,0.723,-0.119,0.130,-38.497,13.465,-31.837
1747601274.38,-0.050,0.041,-0.049,0.669,-0.233,0.061,-37.678,13.205,-31.954
1747601274.40,-0.015,0.067,-0.024,0.600,-0.345,0.147,-36.967,12.837,-32.019
1747601274.42,0.089,0.057,0.020,0.686,-0.347,0.177,-36.203,12.459,-31.979
1747601274.44,0.036,0.026,-0.000,0.639,-0.340,0.158,-35.414,12.061,-31.971
1747601274.46,0.029,-0.043,0.029,0.675,-0.196,0.217,-34.635,11.797,-31.892
1747601274.48,0.038,-0.039,-0.049,0.605,-0.124,0.226,-33.863,11.676,-31.778
1747601274.50,-0.039,-0.012,-0.036,0.512,0.071,0.190,-33.184,11.714,-31.647
1747601274.52,-0.109,-0.003,-0.022,0.492,0.043,0.212,-32.588,11.848,-31.527
1747601274.54,0.028,0.007,-0.037,0.610,-0.074,0.129,-31.929,11.901,-31.436
1747601274.56,0.045,0.021,-0.030,0.607,-0.263,0.027,-31.214,11.646,-31.514
1747601274.58,0.024,-0.045,-0.003,0.593,-0.223,0.022,-30.529,11.287,-31.650
1747601274.60,0.031,-0.069,-0.044,0.530,-0.064,0.100,-29.895,11.094,-31.725
1747601274.62,0.079,0.046,-0.061,0.437,-0.003,0.159,-29.314,11.104,-31.670
1747601274.64,0.012,0.134,-0.038,0.421,-0.064,0.153,-28.806,11.102,-31.572
1747601274.66,-0.091,0.092,-0.015,0.393,-0.050,0.047,-28.327,11.052,-31.495
1747601274.68,-0.082,0.011,-0.028,0.376,-0.050,-0.049,-27.901,10.952,-31.520
1747601274.70,-0.030,-0.033,-0.055,0.292,-0.115,-0.089,-27.523,10.777,-31.626
1747601274.72,0.036,-0.048,-0.121,0.245,-0.082,-0.096,-27.245,10.566,-31.747
1747601274.74,0.032,-0.021,0.026,0.209,-0.013,-0.032,-27.011,10.455,-31.807
1747601274.76,0.017,0.084,0.112,0.217,-0.014,0.049,-26.774,10.440,-31.754
1747601274.78,0.101,0.014,-0.046,0.211,-0.087,0.106,-26.506,10.396,-31.623
1747601274.80,0.078,-0.041,-0.044,0.228,-0.046,0.089,-26.238,10.335,-31.471
1747601274.82,-0.017,-0.094,-0.022,0.190,0.025,0.056,-25.995,10.357,-31.377
1747601274.84,0.019,-0.096,-0.047,0.175,-0.045,0.130,-25.791,10.388,-31.221
1747601274.86,0.050,0.055,-0.038,0.189,-0.077,0.196,-25.572,10.397,-30.952
1747601274.88,-0.047,0.104,-0.023,0.194,-0.039,0.145,-25.305,10.425,-30.675
1747601274.90,-0.071,-0.059,-0.058,0.146,-0.050,0.078,-25.071,10.417,-30.500
1747601274.92,-0.026,-0.085,-0.114,-0.011,-0.058,-0.039,-24.975,10.348,-30.400
1747601274.94,-0.049,0.030,-0.121,-0.117,-0.008,-0.032,-25.056,10.303,-30.358
1747601274.96,-0.030,0.137,-0.073,-0.135,-0.014,-0.014,-25.230,10.291,-30.254
1747601274.98,0.056,0.094,-0.031,-0.119,0.055,-0.008,-25.367,10.304,-30.171
1747601275.00,0.010,-0.005,-0.126,-0.232,0.048,-0.036,-25.522,10.365,-30.063
1747601275.02,0.064,0.023,-0.116,-0.411,0.075,-0.027,-25.894,10.451,-29.936
1747601275.04,0.103,0.077,-0.082,-0.529,-0.011,-0.023,-26.434,10.522,-29.780
1747601275.06,0.093,0.045,-0.069,-0.637,-0.042,0.012,-27.094,10.536,-29.566
1747601275.08,0.035,-0.011,-0.122,-0.727,-0.007,-0.005,-27.854,10.589,-29.317
1747601275.10,-0.065,-0.028,-0.111,-0.869,0.078,-0.030,-28.759,10.699,-29.075
1747601275.12,-0.064,-0.009,-0.018,-0.938,0.156,-0.113,-29.794,10.916,-28.845
1747601275.14,-0.074,-0.048,-0.082,-0.954,0.117,-0.179,-30.884,11.090,-28.715
1747601275.16,0.002,-0.101,-0.082,-0.986,0.141,-0.202,-32.012,11.229,-28.605
1747601275.18,-0.024,-0.066,-0.062,-1.028,0.143,-0.243,-33.183,11.375,-28.569
1747601275.20,-0.083,-0.043,0.014,-1.045,0.194,-0.297,-34.415,11.527,-28.568
1747601275.22,-0.051,-0.073,-0.060,-1.051,0.210,-0.261,-35.640,11.708,-28.600
1747601275.24,0.072,-0.098,-0.041,-1.097,0.217,-0.186,-36.906,11.952,-28.516
1747601275.26,0.082,-0.070,-0.042,-1.072,0.177,-0.216,-38.155,12.219,-28.409
1747601275.28,0.022,-0.072,-0.044,-1.128,0.144,-0.217,-39.437,12.396,-28.382
1747601275.30,0.041,-0.096,-0.110,-0.912,0.148,-0.080,-40.634,12.651,-28.259
1747601275.32,0.052,-0.054,0.018,-0.992,0.266,-0.049,-41.654,13.021,-28.047
1747601275.34,0.062,-0.026,-0.003,-1.038,0.181,-0.043,-42.820,13.506,-27.743
1747601275.36,0.021,-0.005,0.060,-1.129,0.205,-0.094,-44.044,13.919,-27.458
1747601275.38,0.008,-0.001,-0.059,-1.192,0.071,-0.090,-45.339,14.296,-27.163
1747601275.40,-0.018,-0.016,-0.021,-1.273,-0.013,-0.134,-46.740,14.571,-26.847
1747601275.42,-0.029,-0.029,-0.009,-1.424,-0.021,-0.120,-48.250,14.796,-26.510
1747601275.44,-0.015,-0.015,-0.016,-1.555,-0.034,-0.085,-49.938,15.158,-26.024
1747601275.46,-0.028,0.012,0.017,-1.486,0.054,-0.151,-51.664,15.581,-25.507
1747601275.48,-0.052,0.002,-0.027,-1.379,0.107,-0.185,-53.277,16.005,-25.127
1747601275.50,-0.009,-0.017,-0.047,-1.457,0.089,-0.179,-54.887,16.464,-24.733
1747601275.52,0.017,0.005,-0.023,-1.387,0.005,-0.226,-56.517,16.910,-24.319
1747601275.54,0.028,0.026,-0.044,-1.378,-0.107,-0.321,-58.110,17.098,-24.050
1747601275.56,0.038,0.004,0.006,-1.403,-0.138,-0.397,-59.746,17.054,-23.971
1747601275.58,0.044,-0.043,0.037,-1.393,-0.063,-0.372,-61.403,17.005,-23.946
1747601275.60,0.073,-0.086,0.005,-1.459,-0.041,-0.276,-63.069,17.188,-23.740
1747601275.62,0.092,-0.087,-0.044,-1.462,-0.171,-0.217,-64.740,17.564,-23.270
1747601275.64,0.067,-0.049,-0.003,-1.487,-0.179,-0.255,-66.432,17.939,-22.707
1747601275.66,0.025,-0.018,-0.032,-1.471,-0.138,-0.319,-68.143,18.251,-22.251
1747601275.68,0.018,-0.014,-0.004,-1.408,-0.043,-0.346,-69.820,18.552,-21.938
1747601275.70,0.002,-0.026,-0.009,-1.456,-0.047,-0.348,-71.481,18.920,-21.596
1747601275.72,-0.015,-0.044,-0.013,-1.371,-0.070,-0.337,-73.164,19.383,-21.130
1747601275.74,-0.023,-0.043,-0.037,-1.254,-0.081,-0.301,-74.679,19.816,-20.665
1747601275.76,0.016,-0.039,-0.062,-1.274,0.095,-0.346,-76.151,20.436,-20.051
1747601275.78,0.007,-0.041,0.001,-1.331,0.080,-0.352,-77.690,21.167,-19.393
1747601275.80,-0.031,-0.014,-0.006,-1.309,0.138,-0.322,-79.227,22.258,-18.403
1747601275.82,-0.008,-0.039,0.003,-1.222,0.246,-0.323,-80.694,23.780,-17.109
1747601275.84,0.001,-0.034,0.018,-1.300,-0.010,-0.324,-82.169,25.690,-15.321
1747601275.86,-0.020,-0.004,-0.062,-1.286,-0.095,-0.340,-83.643,28.279,-12.605
1747601275.88,0.018,0.012,0.056,-1.301,-0.010,-0.404,-85.149,32.123,-8.715
1747601275.90,-0.002,0.031,-0.017,-1.186,-0.226,-0.431,-86.595,37.873,-2.827
1747601275.92,-0.009,-0.007,0.002,-1.005,-0.465,-0.432,-87.853,47.399,7.110
1747601275.94,0.027,-0.026,-0.046,-0.837,-0.424,-0.399,-88.829,69.353,29.641
1747601275.96,-0.062,0.007,-0.063,-0.796,-0.348,-0.402,-89.190,127.550,88.272
1747601275.98,-0.170,-0.009,-0.021,-0.813,-0.027,-0.403,-88.567,172.700,133.663
1747601276.00,-0.167,-0.049,-0.009,-0.626,0.384,-0.284,-87.726,-174.184,146.599
1747601276.02,-0.076,0.009,0.056,-0.613,0.967,-0.106,-87.017,-170.571,149.436
1747601276.04,-0.024,-0.012,0.047,-0.557,1.156,0.045,-86.344,-170.784,147.975
1747601276.06,-0.019,-0.045,-0.045,-0.476,1.082,0.019,-85.777,-171.486,145.985
1747601276.08,0.061,0.007,-0.023,-0.430,0.981,-0.046,-85.259,-171.050,145.218
1747601276.10,0.108,0.079,0.007,-0.359,0.517,-0.079,-84.805,-170.212,145.183
1747601276.12,0.081,0.015,0.024,-0.217,0.111,-0.134,-84.463,-169.241,145.810
1747601276.14,0.100,-0.068,0.014,-0.197,-0.165,-0.197,-84.200,-167.880,147.214
1747601276.16,0.125,-0.045,-0.052,-0.067,-0.452,-0.243,-83.989,-166.262,149.228
1747601276.18,0.081,0.071,0.015,0.012,-0.372,-0.233,-83.907,-164.166,151.829
1747601276.20,-0.092,0.079,0.062,-0.006,-0.387,-0.086,-83.841,-162.932,153.495
1747601276.22,-0.238,-0.015,0.014,0.018,-0.160,-0.045,-83.840,-162.791,153.984
1747601276.24,-0.230,-0.049,0.065,-0.002,0.321,-0.107,-83.818,-161.875,154.819
1747601276.26,-0.160,-0.009,0.084,-0.004,0.739,-0.088,-83.787,-160.170,155.903
1747601276.28,-0.093,0.013,0.085,-0.092,0.744,0.063,-83.727,-159.285,155.907
1747601276.30,-0.012,-0.058,0.054,-0.165,0.544,0.123,-83.627,-160.117,154.331
1747601276.32,0.094,-0.048,0.058,-0.076,0.443,0.009,-83.515,-160.671,153.206
1747601276.34,0.125,0.019,0.023,0.037,0.112,-0.044,-83.481,-160.131,153.411
1747601276.36,0.095,0.035,-0.046,0.136,-0.192,-0.025,-83.566,-159.508,154.101
1747601276.38,0.072,0.027,-0.046,0.144,-0.349,0.046,-83.724,-159.396,154.537
1747601276.40,0.024,0.005,0.006,0.152,-0.401,0.045,-83.904,-159.874,154.490
1747601276.42,-0.033,-0.029,0.038,0.178,-0.399,-0.030,-84.081,-159.750,155.091
1747601276.44,-0.050,-0.039,0.041,0.216,-0.237,-0.022,-84.278,-159.003,156.208
1747601276.46,-0.063,0.010,0.023,0.249,-0.045,0.073,-84.533,-158.374,157.000
1747601276.48,-0.086,0.045,0.006,0.255,-0.029,0.184,-84.863,-158.776,156.618
1747601276.50,-0.107,0.005,0.000,0.235,-0.040,0.157,-85.195,-159.904,155.541
1747601276.52,-0.025,-0.054,0.021,0.330,0.121,0.143,-85.542,-160.492,154.911
1747601276.54,0.023,-0.019,0.018,0.491,0.173,0.137,-86.042,-160.185,155.022
1747601276.56,0.003,0.067,-0.012,0.658,-0.061,0.157,-86.714,-158.887,156.228
1747601276.58,-0.039,0.041,-0.027,0.705,-0.389,0.188,-87.522,-156.948,158.449
1747601276.59,-0.011,-0.014,0.040,0.614,-0.337,0.225,-88.303,-154.883,160.971
1747601276.62,0.006,-0.066,0.091,0.718,-0.203,0.196,-89.083,-149.256,166.879
1747601276.63,-0.013,-0.038,0.094,0.844,-0.246,0.143,-89.710,-70.807,-114.445
1747601276.65,-0.032,0.055,-0.036,0.988,-0.704,0.108,-88.841,-6.997,-50.104
1747601276.67,0.014,0.092,0.036,0.972,-0.562,0.170,-87.708,-0.353,-42.655
1747601276.69,-0.052,-0.026,0.118,0.975,-0.249,0.117,-86.623,2.458,-39.401
1747601276.71,-0.121,-0.097,0.047,1.000,-0.079,0.094,-85.473,2.961,-38.741
1747601276.73,-0.074,-0.033,-0.029,1.000,0.045,0.198,-84.326,4.054,-37.662
1747601276.75,-0.030,0.030,-0.009,0.946,0.112,0.212,-83.195,5.482,-36.436
1747601276.77,0.023,0.009,0.056,0.877,0.186,0.263,-82.129,6.905,-35.307
1747601276.79,-0.043,-0.025,-0.007,1.041,0.008,0.264,-81.030,8.110,-34.303
1747601276.81,0.024,-0.039,-0.005,1.211,0.248,0.275,-79.676,8.844,-33.765
1747601276.83,0.117,-0.038,0.028,1.076,0.206,0.259,-78.338,9.675,-33.346
1747601276.85,0.051,-0.012,0.017,1.041,0.218,0.263,-77.094,10.216,-33.142
1747601276.87,-0.057,0.011,0.020,1.037,0.072,0.333,-75.876,10.891,-32.814
1747601276.89,-0.039,-0.011,0.068,1.193,0.194,0.328,-74.566,11.588,-32.339
1747601276.91,-0.008,-0.029,-0.133,1.463,-0.138,0.198,-72.998,11.592,-32.463
1747601276.93,-0.002,-0.030,-0.092,1.324,0.339,0.126,-71.354,11.139,-33.044
1747601276.95,-0.144,-0.045,0.062,0.967,0.646,0.138,-70.066,11.435,-33.483
1747601276.97,-0.244,-0.046,0.060,0.659,0.702,0.445,-69.100,12.514,-33.232
1747601276.99,0.059,-0.015,0.063,0.900,0.609,0.662,-68.136,14.463,-32.011
1747601277.01,0.312,0.039,-0.026,1.491,0.316,0.404,-66.634,15.588,-31.360
1747601277.03,0.174,0.045,-0.071,1.567,0.106,0.192,-64.806,15.448,-31.760
1747601277.05,-0.163,-0.026,-0.019,0.969,0.131,0.154,-63.361,15.072,-32.277
1747601277.07,-0.112,-0.145,-0.008,0.775,0.383,0.364,-62.334,15.436,-32.227
1747601277.09,0.115,-0.130,0.003,0.977,0.243,0.554,-61.282,16.329,-31.650
1747601277.11,0.203,-0.007,-0.020,1.351,-0.182,0.284,-59.829,16.559,-31.439
1747601277.13,0.023,0.083,-0.025,1.288,-0.184,0.077,-58.265,15.839,-31.951
1747601277.15,-0.189,0.032,0.065,0.779,0.141,0.152,-57.115,15.505,-32.346
1747601277.17,-0.134,-0.024,-0.055,0.617,0.101,0.393,-56.308,15.799,-32.182
1747601277.19,0.202,0.034,0.054,0.860,-0.183,0.419,-55.388,16.166,-31.723
1747601277.21,0.266,0.109,-0.049,1.193,-0.622,0.303,-54.120,15.788,-31.590
1747601277.23,0.082,0.090,-0.006,1.096,-0.397,0.127,-52.764,14.939,-31.803
1747601277.25,-0.047,-0.062,0.043,0.719,-0.100,0.046,-51.716,14.496,-32.125
1747601277.27,0.041,-0.192,-0.061,0.413,-0.096,0.333,-51.093,14.433,-32.053
1747601277.29,0.085,-0.086,0.072,0.727,-0.181,0.467,-50.359,14.679,-31.548
1747601277.31,-0.114,0.143,-0.026,0.966,-0.290,0.287,-49.295,14.609,-31.255
1747601277.33,-0.175,0.164,0.072,1.028,-0.037,0.035,-48.120,14.228,-31.446
1747601277.35,-0.053,0.027,-0.048,0.695,0.176,-0.037,-47.140,14.075,-31.842
1747601277.37,0.028,-0.030,-0.051,0.411,0.010,0.131,-46.567,14.062,-32.013
1747601277.39,0.089,0.067,0.113,0.690,-0.062,0.313,-45.919,14.176,-31.809
1747601277.41,-0.099,0.163,-0.043,0.882,-0.211,0.146,-44.949,14.068,-31.746
1747601277.43,-0.095,0.101,0.004,0.876,-0.125,-0.038,-43.965,13.640,-32.013
1747601277.45,0.048,-0.027,-0.034,0.833,-0.066,-0.095,-43.006,13.262,-32.453
1747601277.47,0.070,-0.126,-0.129,0.488,-0.206,0.010,-42.297,12.869,-32.783
1747601277.49,0.086,-0.162,0.044,0.518,-0.109,0.269,-41.719,12.703,-32.716
1747601277.51,0.004,0.051,-0.007,0.623,-0.142,0.229,-41.015,12.752,-32.508
1747601277.53,0.041,0.114,-0.011,0.692,-0.284,0.148,-40.233,12.526,-32.459
1747601277.55,0.102,0.047,0.026,0.698,-0.271,0.056,-39.405,12.168,-32.530
1747601277.57,0.004,-0.098,-0.160,0.482,-0.346,0.138,-38.728,11.761,-32.610
1747601277.59,-0.021,-0.166,0.043,0.455,-0.090,0.343,-38.176,11.639,-32.359
1747601277.61,-0.049,-0.026,0.001,0.574,0.013,0.254,-37.522,11.802,-32.082
1747601277.63,0.011,0.008,-0.014,0.576,-0.145,0.173,-36.827,11.806,-31.955
1747601277.65,-0.019,-0.027,-0.034,0.581,-0.251,0.103,-36.144,11.570,-31.942
1747601277.67,-0.049,-0.065,-0.037,0.530,-0.109,0.108,-35.500,11.364,-31.947
1747601277.69,-0.078,0.000,-0.049,0.471,-0.074,0.124,-34.913,11.285,-31.932
1747601277.71,-0.013,0.072,-0.007,0.472,-0.029,0.115,-34.373,11.254,-31.885
1747601277.73,-0.064,0.104,-0.020,0.526,-0.081,0.089,-33.776,11.200,-31.893
1747601277.75,-0.093,0.049,-0.029,0.518,-0.111,0.030,-33.173,11.045,-31.947
1747601277.77,-0.059,-0.012,-0.065,0.422,-0.018,-0.050,-32.643,10.896,-32.083
1747601277.79,-0.061,-0.048,-0.063,0.328,0.074,-0.029,-32.240,10.840,-32.250
1747601277.81,0.009,-0.037,-0.025,0.334,0.155,0.042,-31.861,10.949,-32.316
1747601277.83,0.089,0.007,-0.024,0.380,0.076,0.044,-31.462,11.065,-32.351
1747601277.85,0.105,-0.016,0.024,0.356,-0.024,0.085,-31.018,11.098,-32.366
1747601277.87,0.140,-0.026,-0.051,0.316,-0.071,0.119,-30.626,11.053,-32.319
1747601277.89,0.068,0.004,-0.039,0.216,-0.054,0.125,-30.290,11.032,-32.217
1747601277.91,-0.049,0.019,-0.058,0.158,-0.034,0.143,-30.055,11.056,-32.051
1747601277.93,-0.008,0.029,-0.010,0.195,-0.031,0.066,-29.845,11.077,-31.879
1747601277.95,-0.044,0.006,-0.017,0.209,-0.082,0.017,-29.602,11.013,-31.810
1747601277.97,-0.028,0.033,-0.004,0.197,-0.129,0.009,-29.363,10.867,-31.777
1747601277.99,0.024,0.061,-0.049,0.130,-0.107,0.020,-29.188,10.721,-31.711
1747601278.01,0.046,0.036,-0.023,0.133,-0.113,0.044,-29.035,10.609,-31.619
1747601278.03,0.042,0.027,0.022,0.163,-0.066,0.033,-28.873,10.487,-31.548
1747601278.05,0.026,-0.002,-0.001,0.123,-0.102,0.087,-28.718,10.417,-31.447
1747601278.07,0.051,0.004,0.006,0.120,-0.113,0.114,-28.610,10.347,-31.244
1747601278.09,0.022,0.010,0.006,0.109,-0.120,0.077,-28.497,10.297,-31.045
1747601278.11,0.012,-0.057,-0.023,0.119,-0.114,0.066,-28.384,10.258,-30.877
1747601278.13,0.003,-0.044,-0.064,0.049,-0.100,0.063,-28.302,10.190,-30.754
1747601278.15,-0.018,0.074,-0.045,0.042,-0.042,0.103,-28.247,10.192,-30.548
1747601278.17,-0.035,0.066,-0.018,0.046,-0.023,0.079,-28.183,10.222,-30.358
1747601278.19,-0.008,-0.033,-0.042,-0.015,-0.030,0.031,-28.131,10.228,-30.217
1747601278.21,0.035,-0.011,-0.121,-0.097,-0.014,-0.004,-28.151,10.214,-30.108
1747601278.23,-0.022,0.074,-0.119,-0.245,-0.004,0.035,-28.346,10.213,-29.999
1747601278.25,0.007,0.108,-0.040,-0.323,0.049,-0.005,-28.675,10.273,-29.835
1747601278.27,0.037,0.018,-0.069,-0.394,0.023,-0.015,-29.070,10.358,-29.684
1747601278.29,0.041,0.001,-0.047,-0.505,0.004,-0.030,-29.564,10.408,-29.527
1747601278.31,0.044,0.038,-0.092,-0.635,0.005,0.010,-30.207,10.474,-29.328
1747601278.33,0.050,0.083,-0.062,-0.673,-0.014,-0.011,-30.941,10.555,-29.083
1747601278.35,-0.026,0.053,-0.054,-0.698,-0.031,-0.080,-31.735,10.578,-28.913
1747601278.37,-0.027,-0.051,-0.061,-0.802,0.080,-0.100,-32.577,10.626,-28.779
1747601278.39,-0.072,-0.074,-0.119,-0.860,0.135,-0.132,-33.535,10.779,-28.647
1747601278.41,-0.062,-0.056,-0.037,-0.897,0.174,-0.126,-34.547,11.001,-28.529
1747601278.43,-0.043,-0.028,-0.020,-0.903,0.208,-0.196,-35.589,11.230,-28.448
1747601278.45,0.020,-0.059,-0.086,-0.940,0.185,-0.192,-36.680,11.460,-28.393
1747601278.47,0.017,-0.101,-0.070,-0.941,0.184,-0.145,-37.768,11.665,-28.303
1747601278.49,0.017,-0.119,-0.050,-0.933,0.144,-0.151,-38.838,11.914,-28.225
1747601278.51,0.031,-0.128,-0.061,-0.966,0.046,-0.108,-39.934,12.092,-28.118
1747601278.53,0.059,-0.126,-0.050,-1.015,0.033,-0.083,-41.063,12.240,-27.934
1747601278.55,0.029,-0.104,-0.021,-1.031,0.140,-0.107,-42.220,12.466,-27.763
1747601278.57,0.020,-0.078,-0.101,-1.135,0.100,-0.065,-43.447,12.761,-27.556
1747601278.59,0.030,-0.027,-0.015,-1.180,0.142,-0.058,-44.761,13.135,-27.230
1747601278.61,0.027,0.028,-0.049,-1.199,0.097,-0.115,-46.101,13.492,-26.937
1747601278.63,0.067,0.006,-0.028,-1.256,0.052,-0.106,-47.495,13.788,-26.642
1747601278.65,0.094,-0.043,-0.043,-1.281,0.060,-0.077,-48.917,14.129,-26.293
1747601278.67,0.068,-0.075,-0.068,-1.349,0.025,-0.043,-50.394,14.539,-25.837
1747601278.69,0.003,-0.061,-0.027,-1.343,0.064,-0.053,-51.897,15.016,-25.303
1747601278.71,-0.106,-0.033,-0.016,-1.289,0.119,-0.151,-53.374,15.493,-24.865
1747601278.73,-0.129,-0.033,-0.063,-1.387,0.219,-0.176,-54.882,15.969,-24.517
1747601278.75,-0.073,-0.037,-0.063,-1.469,0.247,-0.235,-56.523,16.581,-24.140
1747601278.77,0.026,0.008,0.000,-1.460,0.290,-0.199,-58.195,17.279,-23.722
1747601278.79,0.054,0.061,0.009,-1.453,0.144,-0.204,-59.847,18.028,-23.186
1747601278.81,0.055,0.066,0.018,-1.395,0.021,-0.351,-61.494,18.496,-22.811
1747601278.83,0.054,-0.001,0.003,-1.381,-0.027,-0.453,-63.126,18.614,-22.737
1747601278.85,0.006,-0.048,-0.054,-1.469,-0.183,-0.431,-64.842,18.548,-22.716
1747601278.87,0.012,-0.047,-0.029,-1.464,-0.170,-0.409,-66.587,18.529,-22.585
1747601278.89,-0.011,-0.020,-0.009,-1.364,-0.024,-0.453,-68.261,18.508,-22.562
1747601278.91,-0.018,-0.021,-0.006,-1.484,0.050,-0.473,-69.970,18.572,-22.616
1747601278.93,-0.008,-0.059,0.027,-1.472,0.053,-0.450,-71.751,18.732,-22.551
1747601278.95,0.029,-0.088,-0.028,-1.438,0.145,-0.339,-73.452,19.173,-22.189
1747601278.97,0.022,-0.076,0.026,-1.496,0.075,-0.296,-75.160,20.152,-21.342
1747601278.99,0.006,-0.035,-0.028,-1.367,-0.048,-0.316,-76.818,21.213,-20.239
1747601279.01,0.035,0.029,-0.033,-1.282,-0.045,-0.405,-78.363,21.924,-19.438
1747601279.03,0.002,0.033,0.027,-1.287,0.107,-0.474,-79.909,22.392,-19.002
1747601279.05,-0.097,0.011,-0.038,-1.308,0.054,-0.514,-81.501,22.805,-18.695
1747601279.07,-0.106,-0.087,0.015,-1.255,0.226,-0.475,-83.072,23.205,-18.403
1747601279.09,-0.012,-0.110,0.090,-1.182,0.444,-0.366,-84.540,24.846,-17.206
1747601279.11,-0.048,-0.053,0.029,-1.190,0.255,-0.310,-85.916,28.415,-14.027
1747601279.13,-0.007,0.032,-0.005,-1.109,0.132,-0.303,-87.224,35.289,-7.349
1747601279.15,0.020,0.124,0.024,-0.985,0.113,-0.337,-88.366,49.643,6.869
1747601279.17,-0.006,0.020,0.040,-0.971,0.306,-0.382,-89.167,92.468,49.536
1747601279.19,0.047,-0.105,0.127,-1.073,0.543,-0.366,-88.725,162.356,118.846
1747601279.21,0.012,-0.061,-0.049,-1.038,0.156,-0.282,-87.546,179.779,135.892
1747601279.23,0.065,0.042,-0.083,-0.818,0.126,-0.297,-86.485,-174.736,141.255
1747601279.25,0.067,0.051,0.001,-0.731,0.228,-0.330,-85.571,-170.967,144.796
1747601279.27,-0.059,0.014,-0.093,-0.672,0.016,-0.360,-84.711,-167.972,147.674
1747601279.29,-0.096,-0.010,-0.074,-0.624,0.024,-0.348,-83.892,-165.671,149.968
1747601279.31,-0.054,-0.030,-0.102,-0.493,0.072,-0.285,-83.194,-163.990,151.627
1747601279.33,0.030,0.004,-0.061,-0.389,0.230,-0.210,-82.621,-162.763,152.661
1747601279.35,0.066,0.015,-0.048,-0.311,0.071,-0.069,-82.191,-162.326,152.921
1747601279.37,0.038,0.007,-0.028,-0.248,-0.031,-0.022,-81.878,-162.725,152.514
1747601279.39,-0.021,0.002,0.031,-0.188,0.077,-0.056,-81.620,-162.927,152.276
1747601279.41,-0.089,0.002,-0.017,-0.059,0.124,-0.119,-81.467,-162.470,152.653
1747601279.43,-0.099,0.013,0.028,-0.059,0.272,-0.145,-81.354,-161.328,153.558
1747601279.45,-0.076,-0.002,0.058,-0.063,0.305,-0.019,-81.263,-160.487,154.063
1747601279.47,-0.093,-0.035,0.079,-0.120,0.222,0.022,-81.173,-160.540,153.720
1747601279.49,-0.043,-0.004,0.067,-0.124,0.313,-0.041,-81.030,-160.470,153.493
1747601279.51,0.014,0.006,0.066,-0.117,0.320,-0.042,-80.889,-160.042,153.547
1747601279.53,0.063,-0.037,0.061,-0.139,0.241,0.009,-80.733,-159.905,153.348
1747601279.55,0.051,-0.023,0.007,-0.039,0.077,0.035,-80.651,-160.153,152.923
1747601279.57,-0.035,0.018,0.048,-0.070,0.036,-0.044,-80.592,-160.161,152.855
1747601279.59,-0.052,-0.019,0.037,-0.104,0.064,-0.060,-80.445,-160.021,152.947
1747601279.61,-0.001,-0.036,-0.001,-0.015,0.078,-0.010,-80.340,-159.999,152.883
1747601279.63,0.020,0.012,-0.026,0.079,0.033,0.028,-80.388,-160.071,152.747
1747601279.65,-0.034,0.027,-0.016,0.129,-0.029,0.063,-80.491,-160.116,152.690
1747601279.67,-0.082,0.002,-0.009,0.109,-0.092,0.083,-80.623,-160.341,152.559
1747601279.69,-0.028,-0.028,0.004,0.119,0.066,0.064,-80.755,-160.573,152.347
1747601279.71,0.016,0.000,0.028,0.105,0.162,0.051,-80.918,-160.548,152.220
1747601279.73,-0.005,0.017,0.019,0.080,0.101,0.071,-81.051,-160.471,152.134
1747601279.75,-0.031,-0.011,0.007,0.044,0.008,0.026,-81.115,-160.206,152.338
1747601279.77,0.006,-0.024,0.027,0.082,0.030,-0.008,-81.145,-159.864,152.663
1747601279.79,0.008,0.007,0.036,0.131,0.049,0.005,-81.235,-159.629,152.854
1747601279.81,-0.028,0.006,0.005,0.103,-0.024,0.044,-81.352,-159.508,152.953
1747601279.82,-0.040,-0.013,-0.017,0.090,-0.133,0.073,-81.434,-159.636,152.915
1747601279.84,-0.012,-0.017,-0.010,0.163,-0.136,0.046,-81.515,-159.978,152.741
1747601279.86,0.014,0.003,0.053,0.199,-0.157,0.068,-81.639,-160.326,152.547
1747601279.88,0.007,0.017,0.014,0.311,-0.294,0.116,-81.895,-160.434,152.692
1747601279.90,-0.022,0.000,0.006,0.400,-0.316,0.110,-82.301,-160.154,153.332
1747601279.92,-0.013,-0.023,0.027,0.425,-0.255,0.122,-82.780,-159.949,153.860
1747601279.94,-0.006,-0.011,0.048,0.515,-0.210,0.167,-83.336,-159.960,154.121
1747601279.96,-0.039,0.041,0.052,0.636,-0.275,0.236,-84.035,-160.132,154.204
1747601279.98,-0.116,0.017,0.015,0.615,-0.399,0.221,-84.809,-160.621,154.131
1747601280.00,-0.093,-0.036,0.034,0.696,-0.198,0.189,-85.573,-160.696,154.400
1747601280.02,-0.054,-0.006,0.028,0.800,-0.067,0.180,-86.452,-159.497,155.749
1747601280.04,-0.013,0.051,-0.026,0.854,-0.180,0.121,-87.408,-156.007,159.378
1747601280.06,0.031,0.103,-0.009,0.828,-0.297,0.028,-88.292,-145.374,170.279
1747601280.08,0.103,0.010,0.045,0.860,-0.288,0.170,-89.019,-117.917,-161.913
1747601280.10,-0.004,-0.105,0.033,0.916,-0.372,0.211,-89.161,-48.111,-91.725
1747601280.12,-0.114,-0.122,-0.016,0.910,-0.315,0.183,-88.342,-14.599,-57.896
1747601280.14,-0.057,-0.044,-0.064,0.872,0.048,0.213,-87.373,-4.294,-47.478
1747601280.16,0.035,0.028,0.022,0.839,0.370,0.307,-86.393,1.639,-41.898
1747601280.18,0.039,0.006,-0.032,0.885,0.240,0.388,-85.390,6.768,-37.210
1747601280.20,-0.044,-0.005,-0.004,0.881,0.159,0.394,-84.319,10.206,-34.063
1747601280.22,-0.087,-0.013,-0.000,0.960,0.183,0.355,-83.217,12.430,-32.092
1747601280.24,0.023,-0.008,-0.004,1.139,0.181,0.276,-81.954,13.271,-31.574
1747601280.26,0.108,0.023,-0.045,1.001,0.049,0.289,-80.663,13.493,-31.517
1747601280.28,0.060,0.006,0.031,0.876,0.113,0.220,-79.566,13.819,-31.354
1747601280.30,-0.021,-0.058,0.025,0.872,-0.008,0.260,-78.542,13.970,-31.343
1747601280.32,0.014,-0.070,-0.032,1.087,0.006,0.342,-77.400,14.286,-31.081
1747601280.34,0.086,-0.014,-0.047,1.269,-0.062,0.346,-75.963,14.461,-30.951
1747601280.36,0.052,0.048,-0.000,1.042,0.055,0.200,-74.565,14.338,-31.123
1747601280.38,-0.085,-0.021,0.013,0.867,0.027,0.190,-73.497,14.160,-31.388
1747601280.40,-0.078,-0.088,-0.078,0.881,0.007,0.389,-72.431,14.385,-31.126
1747601280.42,0.010,-0.060,-0.038,1.018,0.013,0.442,-71.282,15.077,-30.447
1747601280.44,0.067,-0.017,-0.051,1.168,0.082,0.289,-69.976,15.334,-30.181
1747601280.46,0.102,-0.005,0.059,0.988,0.458,0.195,-68.674,15.463,-30.429
1747601280.48,-0.103,-0.032,-0.073,0.758,0.265,0.308,-67.638,15.833,-30.474
1747601280.50,-0.095,-0.039,0.087,0.721,0.200,0.508,-66.740,16.677,-29.861
1747601280.52,0.077,0.030,-0.004,1.123,-0.047,0.417,-65.580,17.274,-29.306
1747601280.54,0.076,0.064,-0.044,1.441,-0.089,0.193,-64.051,16.933,-29.570
1747601280.56,-0.058,0.018,0.046,1.012,0.247,0.130,-62.603,16.495,-30.132
1747601280.58,-0.226,-0.045,-0.000,0.547,0.200,0.200,-61.735,16.617,-30.336
1747601280.60,0.040,-0.033,0.105,0.539,0.110,0.517,-61.074,17.251,-29.823
1747601280.62,0.257,0.112,0.011,1.018,-0.333,0.423,-60.062,17.619,-29.293
1747601280.64,0.069,0.165,-0.080,1.258,-0.520,0.278,-58.663,17.045,-29.294
1747601280.66,-0.123,0.096,0.011,1.158,0.018,0.034,-57.288,16.371,-29.745
1747601280.68,-0.119,-0.132,-0.002,0.824,0.289,0.088,-56.149,16.135,-30.260
1747601280.70,0.056,-0.292,-0.092,0.592,0.020,0.319,-55.356,16.378,-30.268
1747601280.72,0.184,-0.262,0.015,0.834,-0.079,0.488,-54.462,16.669,-29.816
1747601280.74,0.022,-0.015,-0.075,1.080,-0.223,0.271,-53.247,16.630,-29.644
1747601280.76,-0.077,0.118,0.029,0.886,-0.060,0.116,-52.088,16.283,-29.853
1747601280.78,0.015,0.072,0.019,0.671,0.033,0.171,-51.207,16.176,-30.023
1747601280.80,0.155,-0.007,-0.032,0.680,-0.219,0.399,-50.407,16.168,-29.864
1747601280.82,0.116,0.009,-0.028,0.947,-0.415,0.409,-49.376,16.062,-29.536
1747601280.84,-0.064,0.055,0.004,1.087,-0.352,0.195,-48.138,15.616,-29.513
1747601280.86,-0.048,-0.012,0.065,0.915,0.030,0.082,-46.973,15.230,-29.767
1747601280.88,0.052,-0.074,-0.065,0.562,0.123,0.107,-46.142,15.214,-29.961
1747601280.90,0.100,-0.035,-0.033,0.612,-0.115,0.304,-45.472,15.306,-29.878
1747601280.92,0.034,0.105,-0.020,0.814,-0.263,0.316,-44.572,15.231,-29.659
1747601280.94,-0.129,0.161,-0.003,0.901,-0.275,0.012,-43.569,14.845,-29.747
1747601280.96,-0.091,0.093,0.110,0.892,-0.095,-0.149,-42.597,14.288,-30.238
1747601280.98,0.043,0.007,-0.135,0.640,-0.072,-0.130,-41.759,13.864,-30.766
1747601281.00,0.023,-0.033,-0.029,0.492,-0.109,0.159,-41.172,13.620,-30.963
1747601281.02,-0.021,0.007,0.047,0.649,0.055,0.212,-40.479,13.679,-30.833
1747601281.04,-0.030,0.061,-0.019,0.673,-0.118,0.049,-39.698,13.634,-30.892
1747601281.06,0.099,0.022,0.044,0.783,-0.446,0.027,-38.897,13.182,-31.097
1747601281.08,0.141,-0.010,-0.079,0.712,-0.494,0.044,-38.011,12.489,-31.300
1747601281.10,-0.049,-0.079,-0.172,0.463,-0.356,0.155,-37.351,11.957,-31.355
1747601281.12,-0.153,-0.136,0.034,0.412,-0.006,0.269,-36.828,11.854,-31.148
1747601281.14,-0.058,-0.031,0.043,0.559,-0.001,0.204,-36.228,12.020,-30.968
1747601281.16,0.075,0.003,-0.036,0.684,-0.281,0.133,-35.494,11.874,-30.911
1747601281.18,0.014,-0.019,-0.024,0.694,-0.294,0.044,-34.681,11.468,-30.985
1747601281.20,-0.128,-0.108,-0.063,0.646,-0.003,-0.032,-33.925,11.186,-31.165
1747601281.22,-0.119,-0.143,-0.045,0.534,0.243,-0.047,-33.277,11.222,-31.378
1747601281.24,-0.033,0.027,0.041,0.548,0.250,-0.038,-32.683,11.443,-31.567
1747601281.26,0.043,0.174,0.047,0.611,0.075,-0.069,-32.039,11.497,-31.798
1747601281.28,0.030,0.139,-0.062,0.473,-0.058,-0.080,-31.446,11.374,-32.042
1747601281.30,0.015,0.016,-0.130,0.439,-0.007,-0.075,-30.959,11.203,-32.253
1747601281.32,0.014,-0.009,-0.072,0.395,-0.045,-0.113,-30.510,11.067,-32.489
1747601281.34,0.018,0.026,0.022,0.430,-0.139,-0.098,-30.076,10.839,-32.725
1747601281.36,0.007,0.028,0.022,0.438,-0.119,-0.054,-29.602,10.578,-32.879
1747601281.38,0.009,-0.024,-0.030,0.394,0.058,-0.026,-29.135,10.474,-32.956
1747601281.40,0.046,-0.040,-0.062,0.403,0.073,-0.050,-28.693,10.495,-33.020
1747601281.42,0.092,-0.034,-0.028,0.373,-0.046,0.009,-28.266,10.451,-33.065
1747601281.44,0.050,-0.023,0.001,0.340,-0.059,0.056,-27.855,10.373,-33.012
1747601281.46,-0.012,-0.023,-0.047,0.301,-0.078,0.086,-27.473,10.287,-32.900
1747601281.48,0.013,-0.042,-0.093,0.243,-0.042,0.083,-27.146,10.253,-32.771
1747601281.50,0.024,-0.051,-0.058,0.199,-0.108,0.081,-26.882,10.190,-32.627
1747601281.52,0.049,-0.021,-0.003,0.221,-0.175,0.068,-26.631,10.055,-32.520
1747601281.54,-0.012,-0.024,0.014,0.195,-0.068,0.079,-26.396,9.910,-32.398
1747601281.56,-0.067,0.008,-0.108,0.148,0.100,0.073,-26.175,9.961,-32.261
1747601281.58,-0.022,0.056,-0.043,0.058,0.091,0.077,-26.047,10.128,-32.083
1747601281.60,0.089,0.082,-0.042,0.050,-0.133,-0.003,-25.982,10.133,-31.956
1747601281.62,0.021,0.008,-0.043,0.034,-0.130,-0.049,-25.929,9.944,-31.917
1747601281.64,-0.045,-0.002,-0.084,-0.089,0.022,-0.019,-25.947,9.844,-31.894
1747601281.66,0.041,0.036,-0.050,-0.165,0.071,0.060,-26.088,9.924,-31.752
1747601281.68,0.151,0.050,-0.065,-0.244,-0.045,0.094,-26.308,10.011,-31.499
1747601281.70,0.088,-0.043,-0.082,-0.345,0.009,0.098,-26.622,10.060,-31.232
1747601281.72,-0.020,-0.028,-0.078,-0.447,0.017,0.135,-27.040,10.180,-30.911
1747601281.74,0.018,0.026,-0.069,-0.497,0.013,0.102,-27.543,10.328,-30.461
1747601281.76,0.014,0.014,-0.105,-0.558,-0.006,0.032,-28.122,10.446,-30.175
1747601281.78,-0.052,-0.044,-0.101,-0.648,-0.007,0.026,-28.799,10.506,-29.912
1747601281.80,-0.029,-0.024,-0.073,-0.698,0.062,-0.033,-29.544,10.620,-29.673
1747601281.82,0.019,0.017,-0.093,-0.794,-0.006,-0.028,-30.402,10.723,-29.471
1747601281.84,0.036,0.033,-0.060,-0.895,-0.034,-0.018,-31.342,10.799,-29.210
1747601281.86,-0.030,0.003,-0.056,-0.927,0.038,-0.086,-32.379,10.864,-28.989
1747601281.88,-0.031,-0.083,-0.087,-0.990,0.042,-0.077,-33.464,10.996,-28.797
1747601281.90,-0.013,-0.062,-0.039,-1.042,0.079,-0.074,-34.620,11.172,-28.575
1747601281.92,0.013,0.004,-0.056,-1.055,0.067,-0.043,-35.802,11.357,-28.317
1747601281.94,-0.011,0.034,-0.053,-1.103,0.143,-0.098,-37.029,11.622,-28.028
1747601281.96,-0.125,-0.010,-0.003,-1.158,0.170,-0.148,-38.325,11.881,-27.841
1747601281.98,-0.093,-0.089,-0.022,-1.163,0.296,-0.147,-39.662,12.247,-27.655
1747601282.00,-0.047,-0.103,-0.073,-1.137,0.338,-0.180,-40.974,12.705,-27.488
1747601282.02,-0.044,-0.066,-0.048,-1.174,0.317,-0.265,-42.311,13.126,-27.398
1747601282.04,0.005,-0.033,0.004,-1.258,0.287,-0.208,-43.734,13.511,-27.297
1747601282.06,0.113,-0.016,-0.006,-1.222,0.239,-0.109,-45.146,13.969,-27.046
1747601282.08,0.136,-0.004,-0.029,-1.230,0.267,-0.136,-46.537,14.499,-26.721
1747601282.10,0.037,-0.033,-0.064,-1.248,0.189,-0.139,-47.944,14.967,-26.413
1747601282.12,0.002,-0.069,-0.043,-1.328,0.266,-0.129,-49.396,15.496,-26.048
1747601282.14,0.023,-0.104,0.016,-1.398,0.220,-0.070,-50.935,16.145,-25.570
1747601282.16,0.095,-0.092,0.018,-1.379,0.229,-0.049,-52.483,16.918,-24.955
1747601282.18,0.108,-0.042,-0.050,-1.377,0.087,-0.043,-53.985,17.659,-24.300
1747601282.20,0.058,-0.002,-0.029,-1.453,0.027,-0.076,-55.553,18.333,-23.565
1747601282.22,-0.032,0.039,-0.009,-1.374,0.036,-0.180,-57.127,18.957,-22.919
1747601282.24,-0.081,0.059,-0.018,-1.446,0.037,-0.264,-58.722,19.450,-22.426
1747601282.26,-0.060,0.028,0.006,-1.432,-0.046,-0.289,-60.387,19.886,-21.975
1747601282.28,0.023,-0.018,0.010,-1.374,-0.118,-0.302,-62.009,20.222,-21.535
1747601282.30,0.105,-0.063,-0.032,-1.388,-0.099,-0.360,-63.611,20.453,-21.173
1747601282.32,0.119,-0.105,-0.043,-1.511,-0.108,-0.362,-65.296,20.754,-20.800
1747601282.34,0.065,-0.097,-0.040,-1.597,-0.177,-0.273,-67.073,21.207,-20.158
1747601282.36,0.093,-0.052,0.069,-1.653,-0.077,-0.221,-68.933,22.190,-19.016
1747601282.38,0.071,0.003,0.024,-1.444,-0.209,-0.194,-70.648,23.268,-17.768
1747601282.40,0.085,0.000,-0.027,-1.416,-0.372,-0.199,-72.220,24.318,-16.379
1747601282.42,0.035,-0.031,-0.083,-1.406,-0.495,-0.263,-73.800,25.229,-14.966
1747601282.44,-0.029,-0.070,-0.084,-1.351,-0.353,-0.360,-75.363,26.079,-13.612
1747601282.46,-0.123,-0.061,-0.033,-1.357,-0.148,-0.400,-76.950,26.920,-12.413
1747601282.48,-0.169,-0.046,0.008,-1.434,0.060,-0.377,-78.557,28.495,-10.795
1747601282.50,-0.165,-0.011,-0.057,-1.373,-0.117,-0.326,-80.165,30.881,-8.335
1747601282.52,-0.067,-0.006,-0.027,-1.248,0.085,-0.340,-81.634,33.887,-5.224
1747601282.54,0.003,-0.007,-0.053,-1.099,0.296,-0.378,-82.950,37.292,-2.026
1747601282.56,-0.005,0.012,-0.039,-1.142,0.454,-0.363,-84.210,42.094,2.372
1747601282.58,-0.039,0.022,-0.058,-0.984,0.369,-0.393,-85.368,48.870,8.699
1747601282.60,0.020,0.005,-0.011,-1.093,0.453,-0.429,-86.445,58.468,17.901
1747601282.62,0.101,-0.052,0.089,-1.142,0.494,-0.399,-87.376,77.950,36.786
1747601282.64,0.046,-0.083,-0.071,-1.001,-0.036,-0.376,-87.760,108.132,66.738
1747601282.66,0.064,-0.028,-0.060,-0.867,-0.152,-0.388,-87.559,136.030,94.820
1747601282.68,0.006,0.010,-0.025,-0.680,-0.084,-0.380,-87.081,154.550,113.479
1747601282.70,-0.070,-0.002,-0.060,-0.651,0.100,-0.337,-86.512,165.991,124.943
1747601282.72,-0.070,0.031,-0.090,-0.592,0.340,-0.288,-85.874,173.446,132.164
1747601282.74,0.012,0.006,-0.020,-0.469,0.459,-0.172,-85.277,177.953,136.212
1747601282.76,0.070,-0.033,-0.047,-0.253,0.432,-0.076,-84.883,-179.854,137.894
1747601282.78,0.062,0.004,0.065,-0.397,0.426,-0.044,-84.529,-178.744,138.524
1747601282.80,-0.032,0.012,0.062,-0.410,0.279,-0.055,-84.048,-177.987,138.868
1747601282.82,-0.111,-0.033,-0.013,-0.288,0.267,-0.159,-83.640,-176.752,139.818
1747601282.84,-0.064,-0.038,-0.026,-0.176,0.325,-0.228,-83.356,-174.554,141.679
1747601282.86,0.034,0.065,-0.043,-0.094,0.367,-0.217,-83.196,-172.108,143.749
1747601282.88,0.046,0.099,0.028,-0.177,0.212,-0.112,-83.006,-170.401,145.119
1747601282.90,-0.014,-0.002,0.016,-0.152,-0.071,-0.091,-82.800,-169.766,145.673
1747601282.92,-0.008,-0.052,0.005,-0.081,-0.167,-0.120,-82.651,-169.199,146.425
1747601282.94,0.022,-0.033,0.092,-0.167,-0.077,-0.110,-82.493,-168.479,147.277
1747601282.96,-0.010,-0.035,0.089,-0.166,-0.127,-0.106,-82.281,-168.018,147.856
1747601282.97,-0.033,-0.014,0.066,-0.127,-0.144,-0.148,-82.078,-167.418,148.622
1747601283.00,-0.006,0.008,0.027,0.011,-0.098,-0.150,-81.973,-166.476,149.725
1747601283.01,-0.012,0.039,0.051,0.012,0.047,-0.098,-81.938,-165.522,150.713
1747601283.03,-0.073,0.025,0.018,-0.002,0.137,0.019,-81.844,-165.298,150.834
1747601283.05,-0.129,-0.035,0.002,-0.079,0.211,0.044,-81.769,-165.475,150.462
1747601283.07,-0.094,-0.046,0.026,-0.116,0.380,0.025,-81.633,-165.618,149.976
1747601283.09,-0.024,0.010,0.028,-0.073,0.436,0.034,-81.529,-165.549,149.553
1747601283.11,0.002,0.035,0.018,-0.003,0.251,0.033,-81.482,-165.338,149.346
1747601283.13,0.032,-0.005,-0.007,0.012,0.099,0.003,-81.483,-165.006,149.498
1747601283.15,0.064,-0.023,0.004,0.031,0.092,-0.014,-81.489,-164.643,149.756
1747601283.17,0.065,-0.005,0.016,0.053,0.003,-0.028,-81.520,-164.280,150.057
1747601283.19,0.034,-0.029,0.014,0.037,-0.077,-0.009,-81.564,-164.068,150.318
1747601283.21,0.016,-0.010,-0.005,0.083,-0.085,0.022,-81.624,-164.176,150.305
1747601283.23,-0.025,0.042,-0.032,0.211,-0.104,-0.000,-81.796,-164.313,150.280
1747601283.25,-0.062,0.019,-0.030,0.221,-0.065,-0.001,-82.043,-164.193,150.518
1747601283.27,-0.037,-0.009,0.005,0.279,-0.017,0.085,-82.307,-164.135,150.606
1747601283.29,-0.053,-0.008,0.002,0.307,-0.058,0.144,-82.670,-164.589,150.207
1747601283.31,-0.074,-0.018,0.029,0.280,0.065,0.110,-83.032,-164.982,149.822
1747601283.33,-0.025,-0.026,0.044,0.335,0.159,0.114,-83.396,-164.766,149.876
1747601283.35,0.039,0.001,-0.003,0.446,0.008,0.159,-83.857,-164.779,149.760
1747601283.37,0.069,0.029,-0.015,0.524,-0.120,0.202,-84.443,-165.432,149.170
1747601283.39,0.005,0.020,-0.015,0.629,-0.226,0.163,-85.136,-166.144,148.664
1747601283.41,-0.047,-0.005,0.024,0.657,-0.282,0.116,-85.901,-166.025,149.075
1747601283.43,-0.043,-0.015,0.056,0.707,-0.275,0.135,-86.671,-165.609,149.814
1747601283.45,-0.035,-0.016,0.014,0.910,-0.376,0.150,-87.601,-164.280,151.493
1747601283.47,-0.015,0.020,-0.048,0.951,-0.503,0.191,-88.709,-160.164,156.143
1747601283.49,0.007,0.012,0.044,0.864,-0.382,0.239,-89.734,-135.853,-179.025
1747601283.51,-0.006,-0.028,0.087,0.867,-0.249,0.232,-89.204,6.302,-36.519
1747601283.53,-0.063,-0.025,0.036,0.958,-0.291,0.199,-88.150,10.146,-32.476
1747601283.55,-0.061,0.058,-0.089,1.270,-0.408,0.193,-86.825,9.554,-32.725
1747601283.57,-0.001,0.086,0.148,0.951,0.095,0.207,-85.522,9.704,-32.482
1747601283.59,-0.118,-0.043,0.060,0.890,0.135,0.159,-84.487,10.103,-32.336
1747601283.61,-0.081,-0.126,-0.067,0.894,0.182,0.330,-83.401,10.881,-31.783
1747601283.63,0.042,-0.032,0.083,0.927,0.413,0.418,-82.337,13.154,-29.964
1747601283.65,0.061,0.054,-0.044,1.174,0.169,0.303,-81.053,14.302,-29.268
1747601283.67,0.070,0.034,-0.064,1.199,-0.013,0.259,-79.640,14.192,-29.541
1747601283.69,-0.060,-0.035,-0.014,0.925,-0.146,0.185,-78.404,13.921,-29.833
1747601283.71,-0.100,-0.098,-0.100,0.914,-0.187,0.195,-77.350,13.403,-30.200
1747601283.73,0.088,-0.082,-0.017,1.144,0.044,0.320,-76.164,13.472,-30.166
1747601283.75,0.123,0.008,-0.078,1.302,-0.032,0.350,-74.655,13.603,-30.097
1747601283.77,0.024,0.038,0.078,1.042,0.279,0.227,-73.292,13.824,-30.107
1747601283.79,-0.069,-0.078,-0.042,0.941,0.291,0.273,-72.124,14.076,-30.190
1747601283.81,-0.060,-0.143,-0.050,1.046,0.236,0.424,-70.948,14.723,-29.822
1747601283.83,-0.005,-0.030,0.043,1.135,0.218,0.424,-69.632,15.465,-29.326
1747601283.85,-0.006,0.127,-0.029,1.226,0.253,0.214,-68.177,15.669,-29.356
1747601283.87,-0.053,0.125,0.136,0.914,0.496,0.165,-66.947,15.725,-29.774
1747601283.89,-0.094,-0.068,0.013,0.865,0.272,0.400,-65.923,16.287,-29.687
1747601283.91,-0.020,-0.127,-0.048,0.837,0.049,0.490,-64.827,16.930,-29.136
1747601283.93,0.092,-0.020,-0.000,1.047,-0.032,0.328,-63.668,17.272,-28.784
1747601283.95,0.029,0.149,0.020,1.057,0.068,0.100,-62.424,16.979,-29.088
1747601283.97,-0.004,0.122,0.078,0.971,0.201,0.158,-61.280,16.770,-29.563
1747601283.99,0.082,-0.051,-0.095,0.799,0.017,0.388,-60.219,16.887,-29.565
1747601284.01,0.148,-0.156,-0.042,0.869,-0.150,0.461,-59.171,17.169,-29.149
1747601284.03,0.054,-0.101,-0.007,0.891,-0.124,0.362,-58.056,17.247,-28.851
1747601284.05,-0.015,0.007,0.027,0.817,-0.002,0.284,-57.018,17.259,-28.760
1747601284.07,-0.027,0.041,-0.069,0.811,-0.014,0.250,-56.050,17.284,-28.727
1747601284.09,-0.000,-0.026,-0.100,0.887,-0.183,0.276,-55.034,17.197,-28.725
1747601284.11,-0.058,-0.073,-0.052,1.010,-0.125,0.189,-53.903,16.905,-28.810
1747601284.13,-0.073,-0.072,-0.013,0.874,0.100,0.061,-52.814,16.625,-29.144
1747601284.15,0.025,-0.070,0.022,0.708,0.144,0.210,-51.918,16.626,-29.351
1747601284.17,0.158,0.001,-0.053,0.650,-0.040,0.326,-51.093,16.832,-29.202
1747601284.19,0.055,0.062,0.013,0.814,-0.259,0.338,-50.200,16.807,-28.987
1747601284.21,-0.092,0.086,-0.012,0.981,-0.295,0.179,-49.111,16.456,-28.992
1747601284.23,-0.096,0.038,-0.052,0.886,-0.145,0.052,-48.032,15.982,-29.283
1747601284.25,-0.008,-0.034,-0.040,0.715,0.037,0.045,-47.140,15.724,-29.586
1747601284.27,0.015,-0.040,-0.031,0.661,-0.135,0.189,-46.377,15.580,-29.706
1747601284.29,-0.002,-0.010,0.047,0.921,-0.178,0.215,-45.435,15.407,-29.693
1747601284.31,-0.008,0.036,0.027,1.019,-0.302,0.050,-44.300,14.989,-29.905
1747601284.33,0.071,0.041,-0.019,0.849,-0.235,-0.061,-43.253,14.400,-30.297
1747601284.35,0.055,0.047,-0.052,0.630,-0.184,-0.017,-42.449,13.895,-30.669
1747601284.37,0.030,-0.004,0.052,0.548,-0.073,0.274,-41.782,13.747,-30.696
1747601284.39,0.041,0.045,0.049,0.695,-0.068,0.360,-40.992,13.874,-30.404
1747601284.41,0.092,0.084,0.026,0.866,-0.287,0.228,-40.035,13.775,-30.265
1747601284.43,0.140,-0.021,0.033,0.821,-0.375,0.149,-39.027,13.338,-30.287
1747601284.45,0.072,-0.162,-0.097,0.673,-0.194,0.119,-38.165,12.947,-30.376
1747601284.47,-0.096,-0.214,-0.070,0.530,0.040,0.346,-37.456,12.960,-30.241
1747601284.49,-0.086,-0.025,-0.063,0.575,0.111,0.310,-36.766,13.259,-29.926
1747601284.51,-0.000,0.100,0.076,0.719,-0.141,0.185,-35.983,13.323,-29.801
1747601284.53,-0.044,0.060,-0.025,0.686,-0.223,0.066,-35.142,13.053,-29.868
1747601284.55,-0.052,-0.012,-0.103,0.663,-0.172,0.070,-34.376,12.727,-29.987
1747601284.57,-0.112,0.026,-0.069,0.662,0.052,-0.039,-33.629,12.590,-30.158
1747601284.59,-0.149,0.006,-0.059,0.631,-0.005,-0.091,-32.937,12.467,-30.440
1747601284.61,-0.006,-0.044,0.068,0.776,-0.019,-0.194,-32.195,12.244,-30.816
1747601284.63,-0.058,-0.001,0.049,0.801,-0.002,-0.290,-31.362,11.928,-31.388
1747601284.65,-0.038,-0.017,-0.101,0.598,0.093,-0.170,-30.625,11.700,-31.912
1747601284.67,0.097,-0.027,-0.141,0.419,0.096,0.034,-30.078,11.702,-32.107
1747601284.69,0.268,0.095,0.002,0.408,-0.159,-0.002,-29.622,11.648,-32.194
1747601284.71,0.234,0.089,0.122,0.598,-0.423,0.021,-29.058,11.229,-32.314
1747601284.73,-0.019,-0.046,0.038,0.675,-0.304,0.081,-28.326,10.726,-32.422
1747601284.75,-0.061,-0.172,-0.028,0.544,0.148,0.074,-27.602,10.638,-32.451
1747601284.77,0.051,-0.158,-0.250,0.284,0.054,0.109,-27.127,10.784,-32.456
1747601284.79,0.149,0.016,-0.019,0.283,-0.198,0.086,-26.806,10.736,-32.369
1747601284.81,0.068,0.128,0.092,0.454,-0.325,0.097,-26.375,10.412,-32.321
1747601284.83,-0.161,0.018,-0.010,0.442,-0.156,0.176,-25.810,10.152,-32.147
1747601284.85,-0.115,-0.047,-0.112,0.368,0.138,0.126,-25.337,10.197,-31.926
1747601284.87,0.070,-0.004,-0.109,0.263,-0.069,0.005,-24.970,10.293,-31.800
1747601284.89,0.048,0.013,-0.039,0.192,-0.296,-0.041,-24.729,10.006,-31.745
1747601284.91,-0.067,-0.010,-0.039,0.214,-0.111,0.001,-24.501,9.714,-31.682
1747601284.93,-0.095,0.065,-0.006,0.230,0.134,-0.039,-24.257,9.715,-31.620
1747601284.95,-0.039,0.014,-0.021,0.164,0.059,0.020,-24.031,9.829,-31.546
1747601284.97,0.132,0.039,-0.033,0.150,-0.144,-0.058,-23.843,9.759,-31.470
1747601284.99,0.047,0.018,-0.097,0.080,-0.141,-0.024,-23.723,9.528,-31.426
1747601285.01,-0.054,0.038,-0.091,0.000,0.003,-0.005,-23.695,9.455,-31.334
1747601285.03,-0.029,0.031,-0.043,-0.025,0.108,-0.014,-23.694,9.509,-31.244
1747601285.05,0.012,-0.002,-0.077,-0.121,0.048,-0.083,-23.797,9.605,-31.071
1747601285.07,0.024,-0.020,-0.064,-0.233,-0.025,-0.053,-24.008,9.605,-31.030
1747601285.09,0.084,0.061,-0.086,-0.302,-0.015,-0.005,-24.323,9.565,-30.932
1747601285.11,0.057,0.031,-0.097,-0.379,0.023,0.031,-24.691,9.602,-30.764
1747601285.13,-0.003,-0.005,-0.100,-0.490,0.061,0.050,-25.168,9.718,-30.534
1747601285.15,0.042,0.039,-0.078,-0.543,0.030,0.030,-25.737,9.844,-30.287
1747601285.17,0.052,0.064,-0.067,-0.651,0.001,-0.002,-26.407,9.929,-30.059
1747601285.19,-0.021,-0.027,-0.100,-0.736,0.020,-0.022,-27.185,9.981,-29.846
1747601285.21,0.008,-0.081,-0.088,-0.879,0.066,-0.017,-28.098,10.115,-29.607
1747601285.23,0.027,-0.058,-0.064,-0.918,0.054,-0.013,-29.120,10.268,-29.329
1747601285.25,0.016,-0.029,-0.046,-0.889,0.132,-0.088,-30.141,10.441,-29.118
1747601285.27,-0.027,-0.050,-0.102,-0.978,0.094,-0.097,-31.199,10.622,-28.961
1747601285.29,0.039,-0.084,-0.109,-1.153,0.064,-0.004,-32.412,10.809,-28.718
1747601285.31,0.107,-0.061,-0.045,-1.170,0.028,0.001,-33.730,11.040,-28.336
1747601285.33,0.015,-0.008,-0.008,-1.155,-0.119,-0.128,-35.036,11.123,-28.059
1747601285.35,-0.054,-0.064,-0.071,-1.233,-0.211,-0.102,-36.391,10.994,-27.857
1747601285.37,0.009,-0.118,-0.026,-1.269,-0.093,-0.074,-37.823,10.957,-27.575
1747601285.39,-0.048,-0.101,-0.036,-1.251,-0.069,-0.073,-39.247,11.017,-27.289
1747601285.41,-0.089,-0.076,-0.066,-1.331,0.043,-0.123,-40.708,11.135,-27.031
1747601285.43,-0.057,-0.080,-0.012,-1.328,0.106,-0.091,-42.234,11.380,-26.759
1747601285.45,0.024,-0.077,-0.002,-1.310,0.094,-0.027,-43.731,11.706,-26.391
1747601285.47,0.063,-0.074,-0.060,-1.217,0.184,-0.020,-45.139,12.123,-25.991
1747601285.49,0.037,-0.108,-0.073,-1.230,0.188,-0.048,-46.496,12.614,-25.627
1747601285.51,-0.007,-0.119,-0.006,-1.314,0.236,-0.047,-47.931,13.135,-25.231
1747601285.53,0.046,-0.095,0.001,-1.381,0.246,0.045,-49.425,13.834,-24.722
1747601285.55,0.063,-0.028,-0.020,-1.441,0.177,0.074,-50.966,14.625,-24.019
1747601285.57,0.079,0.051,-0.021,-1.446,0.097,-0.005,-52.556,15.392,-23.292
1747601285.59,0.038,0.098,-0.017,-1.385,0.011,-0.062,-54.119,15.982,-22.660
1747601285.61,-0.011,0.083,-0.002,-1.368,0.026,-0.120,-55.655,16.481,-22.094
1747601285.63,-0.070,0.027,0.012,-1.415,0.009,-0.173,-57.220,16.945,-21.615
1747601285.65,-0.061,-0.026,-0.032,-1.431,-0.004,-0.192,-58.836,17.392,-21.118
1747601285.67,-0.024,-0.032,-0.031,-1.410,-0.051,-0.278,-60.467,17.778,-20.700
1747601285.69,0.001,-0.017,-0.031,-1.412,-0.074,-0.363,-62.112,17.947,-20.475
1747601285.71,0.026,-0.007,0.002,-1.430,-0.030,-0.373,-63.776,18.061,-20.322
1747601285.73,0.045,-0.011,0.053,-1.529,-0.025,-0.364,-65.519,18.319,-20.083
1747601285.75,0.071,-0.022,0.068,-1.450,-0.072,-0.299,-67.263,18.674,-19.699
1747601285.77,0.090,-0.025,-0.016,-1.364,-0.183,-0.283,-68.877,19.060,-19.215
1747601285.79,0.051,-0.041,-0.020,-1.411,-0.220,-0.321,-70.484,19.363,-18.708
1747601285.81,-0.045,-0.043,-0.034,-1.432,-0.220,-0.430,-72.154,19.489,-18.397
1747601285.83,-0.009,-0.063,-0.013,-1.431,-0.068,-0.426,-73.870,19.573,-18.210
1747601285.85,0.061,-0.064,-0.003,-1.294,0.030,-0.356,-75.491,19.981,-17.797
1747601285.87,0.044,-0.040,-0.034,-1.313,-0.138,-0.302,-76.999,20.557,-17.147
1747601285.89,0.026,-0.026,-0.075,-1.329,-0.009,-0.338,-78.542,21.443,-16.136
1747601285.91,0.030,-0.059,0.018,-1.361,0.150,-0.366,-80.109,22.548,-15.113
1747601285.93,0.018,-0.070,-0.054,-1.432,0.031,-0.340,-81.733,24.382,-13.377
1747601285.95,0.021,-0.073,-0.030,-1.317,-0.029,-0.349,-83.341,26.866,-10.850
1747601285.97,0.043,0.012,0.090,-1.194,0.096,-0.324,-84.747,30.063,-7.682
1747601285.99,-0.095,0.127,0.062,-1.242,0.039,-0.395,-86.155,35.602,-2.218
1747601286.01,-0.203,0.063,-0.069,-1.168,0.036,-0.546,-87.558,43.869,6.055
1747601286.03,-0.031,-0.096,0.060,-1.159,0.458,-0.462,-88.830,69.745,31.676
1747601286.05,0.069,-0.088,-0.006,-0.925,0.434,-0.349,-88.984,140.633,102.003
1747601286.07,0.026,0.021,-0.035,-0.929,0.226,-0.331,-88.142,172.158,133.178
1747601286.09,0.023,0.066,-0.098,-0.814,0.187,-0.323,-87.160,-177.391,143.404
1747601286.11,-0.046,0.036,-0.101,-0.752,0.345,-0.313,-86.244,-172.177,148.362
1747601286.13,-0.083,-0.068,0.023,-0.851,0.688,-0.266,-85.291,-169.128,150.809
1747601286.14,-0.139,-0.061,-0.034,-0.672,0.647,-0.256,-84.351,-167.259,151.895
1747601286.17,-0.068,0.017,-0.058,-0.505,0.793,-0.250,-83.649,-165.210,153.162
1747601286.19,0.047,0.017,-0.015,-0.466,0.841,-0.202,-83.055,-163.360,154.043
1747601286.21,0.077,0.032,-0.038,-0.438,0.563,-0.158,-82.486,-162.256,154.334
1747601286.22,0.027,0.022,-0.053,-0.322,0.264,-0.162,-82.030,-161.541,154.570
1747601286.24,-0.018,0.017,0.012,-0.367,0.037,-0.232,-81.597,-160.772,155.199
1747601286.26,0.046,0.012,0.006,-0.261,0.130,-0.236,-81.132,-159.890,156.027
1747601286.28,0.080,-0.001,-0.049,-0.065,0.296,-0.158,-80.912,-158.560,157.103
1747601286.30,0.035,-0.047,-0.001,-0.146,0.253,-0.004,-80.767,-157.991,157.346
1747601286.32,-0.034,-0.018,-0.050,-0.070,0.023,0.012,-80.643,-158.268,156.904
1747601286.34,-0.042,0.028,-0.031,0.017,0.073,-0.052,-80.619,-158.142,157.013
1747601286.36,-0.020,0.028,0.010,0.037,0.295,-0.001,-80.636,-157.635,157.305
1747601286.38,-0.062,-0.001,-0.025,0.009,0.443,0.049,-80.687,-157.325,157.191
1747601286.40,-0.101,-0.011,0.051,-0.036,0.520,0.032,-80.689,-157.082,156.856
1747601286.42,-0.095,-0.009,0.068,-0.076,0.369,-0.038,-80.638,-156.694,156.732
1747601286.44,-0.000,-0.027,0.077,-0.124,0.241,-0.049,-80.505,-156.329,156.751
1747601286.46,0.085,-0.040,0.048,-0.142,0.193,-0.051,-80.348,-156.149,156.692
1747601286.48,0.096,-0.014,0.033,-0.109,0.085,-0.045,-80.184,-156.021,156.640
1747601286.50,0.025,-0.000,-0.017,-0.034,-0.147,-0.031,-80.102,-156.028,156.674
1747601286.52,-0.039,-0.011,-0.002,-0.100,-0.306,-0.061,-80.020,-156.174,156.799
1747601286.54,-0.046,-0.014,0.000,-0.079,-0.264,-0.094,-79.874,-156.341,156.968
1747601286.56,-0.037,0.017,-0.007,0.078,-0.080,-0.089,-79.841,-155.982,157.556
1747601286.58,-0.038,0.010,0.037,0.096,0.119,-0.031,-79.914,-155.370,158.126
1747601286.60,-0.063,-0.015,0.003,0.033,0.051,0.047,-79.991,-155.107,158.289
1747601286.62,-0.065,-0.019,-0.003,-0.010,-0.051,0.077,-80.019,-155.447,157.950
1747601286.64,-0.042,0.005,0.008,0.080,0.022,0.036,-80.074,-155.609,157.810
1747601286.66,-0.006,-0.005,0.023,0.120,0.080,0.018,-80.088,-155.192,158.162
1747601286.68,0.038,-0.028,0.029,0.141,0.058,0.025,-80.159,-154.443,158.813
1747601286.70,0.046,0.012,-0.004,0.272,-0.197,0.042,-80.348,-153.923,159.405
1747601286.72,0.045,0.054,0.004,0.438,-0.362,0.105,-80.726,-153.511,160.148
1747601286.74,-0.013,0.019,0.001,0.475,-0.546,0.139,-81.259,-153.336,160.860
1747601286.76,-0.058,-0.030,0.025,0.389,-0.483,0.077,-81.753,-153.227,161.582
1747601286.78,-0.047,-0.026,0.036,0.467,-0.342,0.073,-82.211,-152.628,162.668
1747601286.80,-0.024,0.015,0.042,0.568,-0.261,0.169,-82.805,-151.722,163.917
1747601286.82,-0.031,0.029,0.088,0.592,-0.235,0.246,-83.505,-151.131,164.788
1747601286.84,-0.063,-0.006,0.061,0.648,-0.381,0.265,-84.267,-150.687,165.584
1747601286.86,-0.087,-0.041,0.002,0.718,-0.407,0.234,-85.097,-149.646,167.091
1747601286.88,-0.081,-0.034,-0.039,0.802,-0.394,0.164,-85.952,-146.761,170.454
1747601286.90,0.007,0.000,-0.039,0.868,-0.228,0.214,-86.847,-140.689,176.896
1747601286.92,0.086,0.019,-0.020,0.934,-0.239,0.289,-87.794,-129.932,-172.091
1747601286.94,0.066,-0.004,0.002,1.026,-0.348,0.289,-88.610,-103.113,-145.018
1747601286.96,-0.011,-0.020,-0.062,1.178,-0.458,0.316,-88.618,-47.138,-88.678
1747601286.98,-0.083,-0.016,-0.136,1.262,-0.357,0.298,-87.571,-15.922,-57.040
1747601287.00,0.027,-0.009,0.083,1.156,0.176,0.254,-86.254,-5.586,-46.690
1747601287.02,0.081,-0.028,0.064,1.132,0.238,0.278,-84.978,-0.441,-41.918
1747601287.04,-0.084,-0.030,-0.061,1.207,0.049,0.309,-83.605,2.721,-39.002
1747601287.06,-0.121,-0.026,0.039,0.983,0.342,0.391,-82.337,5.487,-36.482
1747601287.08,-0.048,-0.009,0.096,1.046,0.738,0.419,-81.137,8.316,-34.365
1747601287.10,-0.019,-0.019,0.072,0.957,0.581,0.493,-79.908,11.014,-32.538
1747601287.12,0.008,-0.026,0.011,0.970,0.262,0.490,-78.738,13.230,-30.867
1747601287.14,0.147,-0.001,-0.054,1.151,-0.078,0.427,-77.441,14.420,-29.870
1747601287.16,0.185,0.047,-0.059,1.199,-0.166,0.262,-76.000,14.436,-29.787
1747601287.18,-0.046,0.068,-0.026,0.981,-0.171,0.113,-74.726,13.867,-30.185
1747601287.20,-0.162,-0.048,-0.050,0.946,-0.059,0.186,-73.666,13.318,-30.593
1747601287.22,-0.041,-0.117,-0.023,1.140,0.061,0.334,-72.438,13.461,-30.473
1747601287.24,-0.028,-0.055,-0.088,1.321,0.040,0.218,-70.966,13.447,-30.533
1747601287.26,0.015,-0.026,0.004,1.053,0.450,0.208,-69.562,13.459,-30.796
1747601287.28,-0.050,-0.036,0.041,0.862,0.423,0.273,-68.460,13.986,-30.814
1747601287.30,0.006,-0.064,-0.037,0.772,0.362,0.497,-67.449,14.917,-30.284
1747601287.32,0.115,-0.036,0.033,1.016,0.213,0.464,-66.347,15.942,-29.553
1747601287.34,0.152,0.035,-0.037,1.306,-0.046,0.275,-64.919,16.138,-29.435
1747601287.36,0.066,0.095,0.007,1.382,-0.005,0.008,-63.388,15.475,-30.101
1747601287.38,-0.031,0.043,0.052,1.036,0.110,0.020,-62.022,14.851,-30.912
1747601287.40,-0.046,-0.077,-0.129,0.869,-0.132,0.206,-60.954,14.548,-31.256
1747601287.42,0.111,-0.147,0.019,1.051,-0.159,0.356,-59.854,14.510,-31.101
1747601287.44,0.060,-0.088,-0.035,1.359,-0.228,0.246,-58.392,14.244,-31.153
1747601287.46,-0.047,-0.001,0.010,1.136,0.134,0.188,-56.923,13.989,-31.370
1747601287.48,-0.057,-0.021,0.035,0.791,0.316,0.263,-55.783,14.231,-31.421
1747601287.50,0.098,-0.065,-0.034,0.586,0.026,0.440,-54.961,14.737,-31.078
1747601287.52,0.195,-0.055,0.106,0.859,-0.262,0.604,-54.044,15.143,-30.424
1747601287.54,0.068,0.091,-0.036,1.094,-0.404,0.495,-52.776,15.181,-29.843
1747601287.56,-0.122,0.244,0.100,1.156,-0.210,0.164,-51.423,14.867,-29.809
1747601287.58,-0.089,0.198,0.035,0.895,-0.041,0.068,-50.215,14.462,-30.136
1747601287.60,0.103,-0.023,-0.059,0.606,-0.142,0.311,-49.369,14.377,-30.170
1747601287.62,0.029,-0.110,0.073,0.827,-0.127,0.501,-48.489,14.540,-29.718
1747601287.64,-0.172,0.020,-0.061,1.074,-0.147,0.269,-47.290,14.556,-29.475
1747601287.66,-0.114,0.074,0.036,1.078,-0.073,-0.013,-46.063,14.240,-29.732
1747601287.68,0.047,0.005,-0.102,0.872,-0.044,-0.072,-44.964,13.827,-30.224
1747601287.70,0.094,-0.067,-0.018,0.791,-0.154,0.100,-44.098,13.523,-30.536
1747601287.72,0.071,-0.078,0.039,0.967,-0.133,0.264,-43.038,13.342,-30.526
1747601287.74,0.000,0.032,0.046,0.945,-0.097,0.067,-41.909,13.160,-30.626
1747601287.76,0.060,0.022,-0.050,0.763,-0.154,0.074,-40.940,12.873,-30.842
1747601287.78,0.090,-0.020,0.008,0.668,-0.198,0.219,-40.125,12.649,-30.872
1747601287.80,0.064,-0.015,-0.067,0.608,-0.109,0.324,-39.335,12.581,-30.669
1747601287.82,-0.021,0.005,0.044,0.707,-0.009,0.388,-38.524,12.691,-30.362
1747601287.84,0.042,0.014,0.021,0.823,-0.035,0.328,-37.572,12.838,-30.103
1747601287.86,0.119,0.003,-0.026,0.697,-0.222,0.326,-36.602,12.797,-29.898
1747601287.88,0.080,-0.028,-0.088,0.551,-0.210,0.334,-35.835,12.672,-29.661
1747601287.90,-0.088,-0.048,-0.002,0.519,-0.042,0.471,-35.161,12.751,-29.254
1747601287.92,-0.162,0.084,0.031,0.692,0.061,0.317,-34.385,13.009,-28.880
1747601287.94,-0.053,0.097,-0.072,0.770,-0.093,0.115,-33.505,13.031,-28.821
1747601287.96,-0.045,-0.025,-0.104,0.838,-0.210,-0.038,-32.598,12.716,-29.032
1747601287.98,-0.131,-0.074,-0.001,0.700,-0.115,-0.092,-31.745,12.358,-29.358
1747601288.00,-0.046,-0.019,-0.051,0.516,0.006,0.018,-31.074,12.197,-29.580
1747601288.02,0.048,0.078,-0.049,0.499,-0.110,0.095,-30.509,12.115,-29.639
1747601288.04,-0.034,0.131,-0.041,0.569,-0.174,-0.020,-29.905,11.895,-29.728
1747601288.06,-0.048,-0.025,-0.009,0.646,-0.158,-0.067,-29.231,11.585,-29.956
1747601288.08,-0.005,-0.147,-0.034,0.655,-0.091,-0.121,-28.525,11.300,-30.248
1747601288.10,-0.006,-0.135,-0.057,0.520,-0.005,-0.097,-27.860,11.109,-30.545
1747601288.12,0.113,-0.012,-0.061,0.415,-0.085,-0.024,-27.373,10.981,-30.728
1747601288.14,0.205,0.108,0.026,0.448,-0.206,-0.021,-26.893,10.760,-30.858
1747601288.16,0.129,0.012,0.025,0.431,-0.281,0.076,-26.388,10.431,-30.875
1747601288.18,0.097,-0.081,0.036,0.412,-0.138,0.173,-25.882,10.207,-30.696
1747601288.20,0.036,-0.022,-0.029,0.359,-0.046,0.197,-25.425,10.171,-30.443
1747601288.22,0.018,0.026,-0.000,0.406,0.057,0.169,-24.937,10.254,-30.165
1747601288.24,-0.047,0.013,-0.057,0.345,0.026,0.113,-24.482,10.326,-29.988
1747601288.26,0.006,-0.016,-0.023,0.301,-0.076,0.122,-24.097,10.351,-29.790
1747601288.28,0.061,0.052,-0.034,0.368,-0.149,0.050,-23.720,10.224,-29.639
1747601288.30,-0.034,-0.002,-0.031,0.322,-0.026,0.009,-23.327,10.078,-29.560
1747601288.32,-0.074,-0.028,-0.047,0.221,0.113,0.043,-23.003,10.109,-29.496
1747601288.34,0.026,0.049,-0.106,0.206,0.018,0.054,-22.762,10.197,-29.375
1747601288.36,0.090,0.070,-0.076,0.165,-0.117,0.008,-22.548,10.149,-29.269
1747601288.38,-0.007,-0.001,-0.049,0.124,-0.128,0.025,-22.394,9.987,-29.159
1747601288.40,-0.020,-0.008,-0.010,0.075,0.005,0.027,-22.259,9.916,-29.019
1747601288.42,-0.004,0.033,-0.077,-0.059,0.057,0.052,-22.236,9.970,-28.873
1747601288.44,0.028,0.030,-0.170,-0.208,0.024,0.114,-22.380,10.086,-28.609
1747601288.46,0.153,0.027,-0.127,-0.276,-0.060,0.083,-22.637,10.140,-28.172
1747601288.48,0.079,0.015,-0.092,-0.362,-0.117,0.058,-22.968,10.088,-27.917
1747601288.50,0.006,-0.027,-0.112,-0.445,-0.021,0.112,-23.403,10.072,-27.606
1747601288.52,0.001,0.020,-0.078,-0.560,0.030,0.119,-23.941,10.190,-27.225
1747601288.55,0.027,0.043,-0.115,-0.680,-0.020,0.061,-24.597,10.310,-26.865
1747601288.56,0.042,-0.024,-0.143,-0.806,-0.079,-0.040,-25.431,10.314,-26.584
1747601288.58,-0.057,-0.049,-0.099,-0.940,-0.074,-0.099,-26.423,10.274,-26.375
1747601288.60,-0.138,-0.049,-0.068,-1.025,-0.005,-0.138,-27.562,10.256,-26.199
1747601288.62,-0.120,-0.065,-0.052,-1.106,0.067,-0.189,-28.784,10.314,-26.080
1747601288.64,0.038,-0.070,-0.083,-1.203,0.189,-0.122,-30.120,10.476,-25.921
1747601288.66,0.135,-0.059,-0.104,-1.169,0.141,-0.066,-31.487,10.771,-25.652
1747601288.68,0.032,-0.051,-0.004,-1.164,0.105,-0.116,-32.804,11.008,-25.385
1747601288.70,-0.015,-0.128,-0.025,-1.236,0.137,-0.125,-34.158,11.219,-25.190
1747601288.72,0.072,-0.214,-0.074,-1.328,0.230,-0.062,-35.638,11.565,-24.883
1747601288.74,0.077,-0.186,-0.020,-1.343,0.241,0.003,-37.132,12.043,-24.500
1747601288.76,-0.007,-0.114,-0.042,-1.327,0.132,-0.003,-38.620,12.504,-24.059
1747601288.78,0.003,-0.050,-0.076,-1.352,0.075,-0.034,-40.110,12.886,-23.631
1747601288.80,0.032,-0.053,-0.030,-1.405,0.005,-0.028,-41.650,13.203,-23.193
1747601288.82,0.053,-0.079,-0.019,-1.368,0.047,-0.001,-43.198,13.537,-22.700
1747601288.84,0.024,-0.063,-0.012,-1.375,0.028,-0.038,-44.729,13.949,-22.209
1747601288.86,0.007,-0.042,-0.050,-1.397,-0.044,0.021,-46.254,14.296,-21.694
1747601290.29,-0.021,-0.025,-0.007,-1.387,0.021,-0.038,-47.802,14.726,-21.148
1747601290.30,-0.021,-0.034,-0.027,-1.321,0.071,-0.049,-49.301,15.168,-20.662
1747601290.30,-0.013,-0.019,-0.021,-1.349,0.154,-0.156,-50.798,15.668,-20.225
1747601290.31,-0.078,-0.001,0.008,-1.417,0.065,-0.204,-52.367,16.044,-19.938
1747601290.32,-0.024,0.016,0.031,-1.500,0.097,-0.115,-54.021,16.529,-19.509
1747601290.33,0.049,0.080,0.050,-1.399,0.120,-0.104,-55.658,17.197,-18.910
1747601290.33,0.042,0.111,-0.010,-1.258,0.026,-0.234,-57.151,17.694,-18.460
1747601290.34,-0.030,0.049,-0.041,-1.320,-0.030,-0.369,-58.649,17.863,-18.307
1747601290.34,-0.080,-0.023,0.008,-1.392,0.047,-0.455,-60.280,17.905,-18.336
1747601290.34,-0.069,-0.043,0.030,-1.371,0.105,-0.489,-61.950,17.946,-18.486
1747601290.35,-0.042,-0.041,-0.007,-1.338,0.114,-0.480,-63.583,17.966,-18.675
1747601290.35,-0.038,-0.016,0.006,-1.387,0.098,-0.496,-65.234,17.976,-18.913
1747601290.35,-0.047,0.014,-0.027,-1.471,0.038,-0.480,-66.958,17.995,-19.090
1747601290.35,-0.005,0.022,0.050,-1.462,0.183,-0.484,-68.728,18.099,-19.210
1747601290.36,0.088,-0.013,0.069,-1.435,0.273,-0.467,-70.468,18.358,-19.357
1747601290.36,0.171,-0.048,0.006,-1.415,0.087,-0.359,-72.159,18.805,-19.257
1747601290.36,0.172,-0.055,-0.022,-1.357,-0.204,-0.331,-73.791,19.234,-18.725
1747601290.37,0.120,-0.054,-0.055,-1.334,-0.143,-0.369,-75.343,19.430,-18.265
1747601290.37,0.035,-0.075,0.050,-1.426,-0.135,-0.377,-76.999,19.837,-17.734
1747601290.37,-0.008,-0.069,-0.039,-1.409,-0.198,-0.282,-78.659,20.586,-16.742
1747601290.37,0.009,-0.008,0.025,-1.284,0.032,-0.231,-80.196,22.043,-15.151
1747601290.38,-0.042,0.049,-0.010,-1.101,0.130,-0.307,-81.552,23.734,-13.573
1747601290.38,-0.107,0.029,0.066,-1.231,0.269,-0.325,-82.909,25.521,-11.948
1747601290.38,-0.130,-0.044,0.022,-1.208,0.365,-0.311,-84.324,28.664,-9.170
1747601290.39,-0.056,-0.066,-0.016,-1.140,0.593,-0.253,-85.643,34.028,-4.324
1747601290.39,-0.028,-0.008,0.039,-1.164,0.586,-0.288,-86.850,43.765,4.728
1747601290.39,-0.007,0.003,0.038,-1.126,0.484,-0.342,-87.940,62.786,23.160
1747601290.39,0.078,-0.003,-0.019,-1.051,0.303,-0.313,-88.509,102.390,62.333
1747601290.40,0.137,0.004,-0.096,-0.900,0.119,-0.292,-88.183,142.384,102.120
1747601294.16,0.110,-0.013,-0.070,-0.784,0.094,-0.270,-87.484,161.778,121.424
1747601294.17,0.014,-0.083,-0.060,-0.807,0.057,-0.231,-86.656,171.351,130.904
1747601294.19,-0.030,-0.053,-0.141,-0.696,0.076,-0.242,-85.833,176.858,136.371
1747601294.20,-0.001,0.056,-0.084,-0.566,0.137,-0.249,-85.105,-179.231,140.160
1747601294.21,-0.010,0.044,-0.089,-0.366,0.193,-0.212,-84.581,-176.341,142.883
1747601294.21,-0.010,0.025,-0.070,-0.421,0.244,-0.197,-84.148,-174.113,144.853
1747601294.22,-0.014,0.036,0.018,-0.486,0.276,-0.195,-83.570,-172.295,146.373
1747601294.22,0.006,-0.021,0.057,-0.393,0.290,-0.098,-83.063,-171.124,147.231
1747601294.23,0.002,-0.071,0.037,-0.321,0.219,-0.092,-82.632,-170.642,147.419
1747601294.24,-0.017,-0.032,-0.062,-0.258,0.206,-0.213,-82.295,-169.520,148.309
1747601294.24,0.023,0.052,-0.051,-0.223,0.124,-0.256,-81.951,-167.769,149.882
1747601294.25,0.072,0.045,-0.080,-0.082,-0.019,-0.163,-81.751,-166.251,151.349
1747601294.25,0.093,-0.016,-0.065,-0.029,-0.104,-0.080,-81.633,-165.611,152.088
1747601294.26,0.094,-0.003,-0.086,0.141,-0.149,-0.058,-81.691,-165.076,152.756
1747601294.61,0.015,0.024,-0.010,0.145,-0.276,-0.019,-81.838,-164.744,153.346
1747601294.63,-0.069,0.006,0.040,0.112,-0.185,-0.027,-81.984,-164.617,153.775
1747601294.65,-0.054,-0.007,0.038,0.118,0.022,-0.029,-82.087,-164.199,154.262
1747601294.65,-0.064,-0.009,0.068,0.068,0.072,-0.007,-82.236,-163.892,154.521
1747601294.65,-0.140,-0.026,0.109,-0.030,0.103,-0.001,-82.259,-163.787,154.535
1747601294.66,-0.119,-0.020,0.027,-0.072,0.238,-0.026,-82.185,-163.598,154.526
1747601294.66,0.009,-0.016,0.037,-0.087,0.287,-0.012,-82.085,-163.272,154.546
