Time,AccX,AccY,AccZ,GyroX,GyroY,GyroZ,Pitch,Roll,Yaw
1747603800.33,0.028,-0.017,-0.007,0.034,-0.096,0.041,-82.948,19.751,36.274
1747603800.35,0.001,-0.009,-0.004,0.024,-0.146,0.070,-82.887,20.020,36.687
1747603800.37,-0.026,0.008,-0.003,0.034,-0.060,0.047,-82.836,20.377,37.166
1747603800.39,-0.025,0.022,-0.007,0.059,0.008,0.056,-82.761,20.673,37.490
1747603800.41,-0.014,0.006,0.006,0.065,0.051,0.012,-82.676,20.885,37.668
1747603800.43,0.002,-0.002,0.009,0.084,0.054,0.010,-82.597,20.768,37.479
1747603800.45,-0.011,-0.002,0.002,0.063,0.071,0.031,-82.518,20.708,37.372
1747603800.47,-0.006,-0.004,0.008,0.062,0.033,0.046,-82.437,20.867,37.475
1747603800.49,0.030,-0.016,0.004,0.056,0.035,0.057,-82.356,21.163,37.728
1747603800.51,0.006,0.019,-0.011,0.100,0.042,0.030,-82.259,21.290,37.821
1747603800.53,0.013,0.001,0.011,0.082,0.042,0.031,-82.151,21.264,37.733
1747603800.55,0.030,-0.000,-0.023,0.090,-0.054,0.028,-82.054,21.231,37.706
1747603800.57,0.060,-0.013,0.007,0.079,-0.069,0.028,-81.954,21.172,37.725
1747603800.59,0.027,-0.005,0.008,0.091,-0.110,0.031,-81.849,21.066,37.718
1747603800.61,0.008,0.016,-0.010,0.089,-0.114,0.029,-81.743,20.938,37.727
1747603800.63,-0.013,0.012,-0.015,0.088,-0.090,0.020,-81.630,20.801,37.705
1747603800.65,-0.033,-0.027,0.017,0.073,-0.029,0.028,-81.531,20.744,37.711
1747603800.67,-0.012,-0.002,-0.014,0.069,-0.026,0.039,-81.442,20.817,37.819
1747603800.69,0.020,0.012,-0.001,0.068,-0.008,0.043,-81.356,20.921,37.934
1747603800.71,-0.003,0.015,-0.005,0.085,-0.028,0.027,-81.255,20.906,37.947
1747603800.73,-0.022,0.002,0.000,0.086,0.010,0.012,-81.165,20.764,37.814
1747603800.75,0.009,-0.012,-0.011,0.041,0.014,0.003,-81.096,20.628,37.655
1747603800.77,0.021,0.009,-0.019,0.038,-0.012,0.002,-81.058,20.541,37.574
1747603800.79,0.025,0.002,-0.012,0.035,-0.029,0.017,-81.014,20.486,37.544
1747603800.81,0.025,-0.011,-0.014,0.014,-0.029,0.012,-80.984,20.479,37.570
1747603800.83,0.009,-0.001,-0.016,0.011,-0.045,-0.004,-80.968,20.423,37.567
1747603800.85,-0.001,0.010,-0.017,0.010,-0.056,-0.004,-80.949,20.338,37.531
1747603800.87,0.004,-0.017,-0.011,-0.022,-0.013,-0.007,-80.949,20.290,37.526
1747603800.89,0.002,-0.006,-0.010,-0.002,-0.026,-0.014,-80.961,20.267,37.515
1747603800.91,0.017,0.004,-0.022,0.009,-0.024,-0.006,-80.955,20.156,37.440
1747603800.93,0.006,-0.007,-0.015,0.014,0.009,0.001,-80.938,20.114,37.403
1747603800.95,0.002,0.001,-0.006,0.016,0.030,-0.004,-80.916,20.074,37.336
1747603800.97,0.021,-0.007,-0.007,0.026,-0.007,0.004,-80.891,20.052,37.291
1747603800.99,0.027,-0.011,-0.014,0.054,-0.050,0.008,-80.843,19.975,37.250
1747603801.01,0.007,-0.002,-0.011,0.091,-0.033,0.016,-80.752,19.857,37.180
1747603801.03,-0.022,0.007,-0.016,0.122,0.016,0.003,-80.631,19.646,36.983
1747603801.05,-0.005,-0.005,0.016,0.140,0.074,0.028,-80.479,19.512,36.796
1747603801.07,0.004,-0.020,0.009,0.182,0.020,0.046,-80.291,19.488,36.708
1747603801.09,0.019,-0.005,-0.001,0.239,0.005,0.048,-80.048,19.352,36.563
1747603801.11,0.013,-0.000,0.007,0.298,-0.051,0.045,-79.743,19.052,36.277
1747603801.13,-0.011,-0.002,-0.005,0.381,-0.099,0.056,-79.361,18.536,35.847
1747603801.15,-0.034,-0.009,0.014,0.426,-0.012,0.068,-78.908,18.085,35.456
1747603801.17,-0.052,-0.000,0.016,0.453,0.127,0.073,-78.411,17.801,35.095
1747603801.19,-0.059,0.007,0.007,0.508,0.084,0.080,-77.862,17.529,34.683
1747603801.21,-0.021,0.007,-0.019,0.604,0.021,0.110,-77.216,17.163,34.247
1747603801.23,0.003,-0.006,0.037,0.661,0.160,0.132,-76.497,16.955,33.942
1747603801.25,-0.050,0.010,0.032,0.675,0.244,0.091,-75.718,16.783,33.508
1747603801.27,-0.042,0.013,0.032,0.695,0.246,0.071,-74.937,16.524,32.950
1747603801.29,0.034,0.009,0.043,0.656,0.230,0.110,-74.175,16.363,32.498
1747603801.31,0.042,0.044,0.041,0.702,0.081,0.115,-73.401,16.262,32.197
1747603801.33,0.037,0.015,0.031,0.763,-0.011,0.152,-72.551,15.973,31.868
1747603801.35,0.010,-0.020,0.048,0.792,-0.006,0.184,-71.643,15.812,31.713
1747603801.37,-0.038,-0.010,-0.050,0.757,-0.021,0.142,-70.734,15.611,31.529
1747603801.39,0.015,-0.022,-0.016,0.683,0.168,0.125,-69.903,15.480,31.298
1747603801.41,-0.032,-0.011,-0.015,0.712,0.035,0.184,-69.087,15.466,31.062
1747603801.43,-0.046,0.014,0.016,0.759,0.123,0.235,-68.218,15.571,31.030
1747603801.45,-0.009,0.002,0.023,0.858,0.159,0.198,-67.261,15.746,30.949
1747603801.47,0.006,-0.037,0.039,0.810,0.131,0.161,-66.274,15.750,30.700
1747603801.49,-0.018,-0.046,-0.018,0.762,0.129,0.192,-65.361,15.768,30.488
1747603801.51,0.022,-0.038,0.001,0.709,0.166,0.251,-64.487,16.002,30.461
1747603801.53,0.041,0.020,-0.033,0.799,0.031,0.193,-63.581,16.152,30.424
1747603801.55,0.051,0.004,-0.072,0.882,-0.127,0.105,-62.623,15.884,30.103
1747603801.57,-0.011,-0.054,-0.020,0.961,-0.148,0.125,-61.573,15.384,29.684
1747603801.59,-0.070,-0.081,-0.023,0.948,0.107,0.184,-60.478,15.155,29.384
1747603801.61,-0.093,-0.038,-0.025,0.860,0.305,0.215,-59.420,15.309,29.222
1747603801.63,0.076,-0.013,0.028,0.819,0.254,0.257,-58.430,15.667,29.155
1747603801.65,0.116,0.002,0.016,0.838,0.012,0.262,-57.431,15.865,29.138
1747603801.67,0.088,-0.002,-0.013,0.929,-0.176,0.226,-56.409,15.776,29.054
1747603801.69,-0.043,0.009,-0.011,1.022,-0.038,0.128,-55.248,15.435,28.788
1747603801.71,-0.143,0.005,0.043,0.864,0.139,0.059,-54.199,15.256,28.367
1747603801.73,-0.021,-0.018,0.021,0.832,0.270,0.226,-53.230,15.360,28.118
1747603801.75,0.166,0.008,0.033,0.930,-0.001,0.316,-52.184,15.597,28.123
1747603801.77,0.128,0.035,-0.028,1.063,-0.181,0.225,-50.994,15.456,28.044
1747603801.79,-0.040,0.013,0.078,0.927,-0.061,0.063,-49.846,15.132,27.720
1747603801.81,-0.059,-0.053,0.010,0.764,0.063,0.171,-48.874,14.966,27.419
1747603801.83,0.112,-0.037,0.010,0.639,-0.033,0.398,-48.033,15.191,27.545
1747603801.85,0.126,0.074,-0.009,0.734,-0.303,0.444,-47.153,15.296,27.889
1747603801.87,-0.086,0.081,-0.037,0.886,-0.360,0.250,-46.148,15.052,28.028
1747603801.89,-0.197,0.026,0.002,1.004,-0.127,0.039,-45.055,14.622,27.760
1747603801.91,-0.102,-0.015,0.037,0.885,0.099,0.051,-43.980,14.380,27.346
1747603801.93,0.040,-0.028,-0.021,0.762,0.028,0.123,-43.079,14.374,27.078
1747603801.95,0.113,0.037,0.070,0.838,-0.154,0.164,-42.156,14.248,26.923
1747603801.97,-0.059,0.122,-0.037,0.936,-0.241,0.060,-41.136,13.892,26.701
1747603801.99,-0.104,0.076,-0.018,1.047,-0.074,-0.080,-40.030,13.449,26.263
1747603802.01,-0.008,-0.043,-0.025,0.956,0.075,-0.128,-38.934,13.166,25.683
1747603802.03,0.064,-0.141,0.016,0.864,0.101,0.002,-37.938,13.000,25.233
1747603802.05,0.176,-0.098,0.063,0.814,-0.063,0.162,-36.990,12.963,25.020
1747603802.07,0.122,0.037,0.022,0.847,-0.179,0.198,-36.030,12.830,24.945
1747603802.08,0.067,0.091,0.037,0.925,-0.243,0.180,-34.983,12.567,24.873
1747603802.10,0.011,0.032,0.006,0.950,-0.269,0.090,-33.899,12.226,24.700
1747603802.12,-0.038,-0.053,-0.009,0.904,-0.210,0.114,-32.842,11.899,24.500
1747603802.14,-0.004,-0.074,0.009,0.842,-0.242,0.176,-31.833,11.603,24.380
1747603802.16,0.034,0.014,0.024,0.876,-0.352,0.182,-30.827,11.278,24.305
1747603802.18,0.056,0.070,0.024,0.927,-0.340,0.187,-29.772,10.892,24.239
1747603802.20,0.016,0.041,0.014,0.928,-0.298,0.169,-28.699,10.560,24.173
1747603802.22,-0.053,-0.036,0.018,0.939,-0.223,0.214,-27.609,10.258,24.137
1747603802.24,-0.033,-0.043,0.009,0.973,-0.184,0.193,-26.489,10.045,24.094
1747603802.26,0.052,-0.012,0.035,0.984,-0.198,0.220,-25.335,9.855,24.068
1747603802.28,0.077,0.060,0.003,0.944,-0.213,0.220,-24.221,9.687,24.065
1747603802.30,-0.011,0.053,-0.006,0.895,-0.261,0.280,-23.136,9.448,24.117
1747603802.32,0.088,-0.038,-0.002,0.921,-0.363,0.332,-22.055,9.155,24.229
1747603802.34,0.194,-0.093,0.051,0.948,-0.412,0.467,-20.925,8.826,24.460
1747603802.36,0.164,-0.140,0.038,0.927,-0.402,0.627,-19.765,8.521,24.875
1747603802.38,0.119,-0.083,0.051,0.812,-0.381,0.755,-18.652,8.302,25.512
1747603802.40,0.018,-0.005,-0.049,0.779,-0.276,0.736,-17.652,8.179,26.218
1747603802.42,-0.047,-0.057,-0.059,0.792,-0.284,0.637,-16.651,8.061,26.863
1747603802.44,-0.115,-0.054,-0.052,0.800,-0.313,0.533,-15.659,7.868,27.321
1747603802.46,-0.150,-0.047,-0.010,0.834,-0.230,0.472,-14.662,7.666,27.750
1747603802.48,-0.124,0.109,-0.006,0.959,-0.155,0.353,-13.581,7.529,28.059
1747603802.50,-0.180,0.256,-0.048,1.012,-0.110,0.211,-12.408,7.427,28.193
1747603802.52,-0.178,0.184,-0.055,0.996,-0.025,0.114,-11.260,7.358,28.212
1747603802.54,-0.161,0.018,-0.046,1.012,0.024,-0.054,-10.119,7.344,28.056
1747603802.56,-0.015,-0.084,0.007,1.002,0.015,-0.107,-9.000,7.329,27.769
1747603802.58,0.072,0.006,0.072,0.962,-0.047,-0.108,-7.894,7.262,27.469
1747603802.60,0.074,0.134,-0.047,0.916,-0.115,-0.116,-6.830,7.106,27.157
1747603802.62,0.049,0.008,-0.071,0.902,-0.148,-0.144,-5.828,6.937,26.854
1747603802.64,0.002,-0.090,-0.020,0.912,-0.078,-0.152,-4.831,6.773,26.513
1747603802.66,-0.019,-0.059,0.080,0.913,0.040,-0.142,-3.816,6.738,26.186
1747603802.68,0.039,0.117,0.033,0.893,0.039,-0.052,-2.802,6.791,25.911
1747603802.70,0.086,0.171,-0.059,0.914,-0.043,-0.114,-1.789,6.787,25.625
1747603802.72,-0.024,0.059,-0.103,0.908,-0.126,-0.166,-0.778,6.671,25.306
1747603802.74,-0.111,-0.078,-0.030,0.886,-0.045,-0.214,0.229,6.574,24.919
1747603802.76,-0.055,-0.083,-0.006,0.889,-0.060,-0.272,1.212,6.531,24.429
1747603802.78,0.064,0.099,-0.023,0.875,-0.182,-0.246,2.180,6.413,23.970
1747603802.80,0.130,0.067,-0.043,0.819,-0.208,-0.172,3.106,6.185,23.572
1747603802.82,0.054,-0.041,-0.080,0.724,-0.109,-0.153,3.970,6.017,23.239
1747603802.84,0.086,-0.118,-0.040,0.635,-0.053,-0.057,4.734,5.948,22.978
1747603802.86,0.113,-0.085,-0.060,0.559,-0.129,0.011,5.407,5.855,22.838
1747603802.88,0.076,0.000,0.009,0.491,-0.121,0.051,6.009,5.717,22.755
1747603802.90,0.114,-0.009,-0.022,0.439,-0.064,0.150,6.549,5.604,22.751
1747603802.92,0.136,-0.052,-0.094,0.357,-0.124,0.259,7.032,5.474,22.890
1747603802.94,0.105,-0.066,-0.093,0.248,-0.120,0.331,7.416,5.308,23.140
1747603802.96,0.007,-0.062,-0.077,0.182,-0.145,0.333,7.693,5.104,23.445
1747603802.98,0.016,0.045,-0.057,0.160,-0.132,0.303,7.909,4.902,23.759
1747603803.00,0.014,0.089,-0.059,0.115,-0.139,0.339,8.105,4.691,24.070
1747603803.02,0.021,-0.006,-0.060,0.061,-0.095,0.385,8.233,4.498,24.444
1747603803.04,-0.013,-0.087,-0.035,0.026,-0.042,0.382,8.311,4.358,24.841
1747603803.06,0.035,0.023,-0.022,-0.007,-0.036,0.441,8.345,4.274,25.289
1747603803.08,0.086,0.032,-0.043,-0.047,-0.034,0.537,8.365,4.150,25.796
1747603803.10,0.121,-0.017,-0.022,-0.086,-0.066,0.692,8.323,3.994,26.502
1747603803.12,-0.035,-0.057,0.012,-0.073,0.117,0.724,8.280,3.887,27.284
1747603803.14,-0.062,0.016,0.032,-0.059,0.327,0.695,8.257,4.044,28.064
1747603803.16,-0.012,0.027,0.029,-0.085,0.429,0.693,8.253,4.370,28.812
1747603803.18,0.017,0.018,-0.037,-0.094,0.376,0.711,8.198,4.692,29.586
1747603803.20,0.022,-0.112,-0.007,-0.134,0.433,0.645,8.132,5.038,30.355
1747603803.22,0.043,-0.063,-0.004,-0.142,0.419,0.781,8.028,5.411,31.107
1747603803.24,0.085,0.037,-0.052,-0.159,0.215,0.525,7.932,5.705,31.769
1747603803.26,0.031,0.034,-0.040,-0.236,0.308,0.446,7.774,5.887,32.325
1747603803.28,0.006,-0.060,-0.010,-0.212,0.232,0.459,7.580,6.123,32.880
1747603803.30,0.183,-0.066,-0.030,-0.255,-0.223,0.373,7.381,6.061,33.306
1747603803.32,0.165,0.020,-0.075,-0.299,-0.282,0.425,7.097,5.661,33.753
1747603803.34,-0.096,0.119,-0.053,-0.283,0.025,0.378,6.827,5.432,34.223
1747603803.36,-0.132,0.050,-0.046,-0.273,0.093,0.310,6.560,5.484,34.593
1747603803.38,-0.050,0.145,-0.155,-0.323,-0.214,0.324,6.249,5.390,34.940
1747603803.40,-0.014,0.111,-0.138,-0.349,-0.207,0.421,5.897,5.071,35.368
1747603803.42,-0.112,0.067,-0.062,-0.354,0.021,0.339,5.543,4.916,35.821
1747603803.44,-0.137,0.066,-0.081,-0.323,0.022,0.133,5.194,4.924,36.105
1747603803.46,-0.117,0.079,-0.104,-0.347,-0.044,0.068,4.809,4.878,36.234
1747603803.48,-0.020,0.041,-0.050,-0.401,0.075,0.103,4.398,4.887,36.346
1747603803.50,0.072,-0.059,-0.033,-0.434,0.184,0.141,3.935,5.023,36.530
1747603803.52,-0.040,0.025,-0.110,-0.447,0.099,0.027,3.447,5.196,36.704
1747603803.54,-0.105,0.050,-0.099,-0.571,0.116,0.007,2.871,5.278,36.757
1747603803.56,0.001,-0.081,-0.037,-0.597,0.245,-0.061,2.203,5.496,36.820
1747603803.58,0.001,-0.032,-0.109,-0.642,0.206,-0.163,1.480,5.771,36.793
1747603803.60,-0.192,0.042,-0.107,-0.705,0.110,-0.208,0.704,5.937,36.665
1747603803.62,0.026,-0.094,-0.028,-0.826,0.233,-0.093,-0.195,6.142,36.579
1747603803.64,0.160,-0.179,-0.011,-0.855,0.156,0.053,-1.147,6.367,36.707
1747603803.66,0.054,-0.045,-0.096,-0.862,0.004,0.001,-2.121,6.462,36.895
1747603803.68,-0.160,0.080,-0.053,-0.908,0.080,-0.144,-3.131,6.504,36.944
1747603803.70,-0.211,0.056,-0.070,-0.914,0.292,-0.179,-4.191,6.686,36.919
1747603803.72,-0.102,-0.093,-0.067,-0.923,0.384,-0.277,-5.257,7.074,36.843
1747603803.74,0.027,-0.167,-0.020,-0.992,0.313,-0.289,-6.366,7.456,36.695
1747603803.76,0.133,-0.056,-0.033,-1.051,0.246,-0.204,-7.555,7.766,36.615
1747603803.78,0.000,0.079,-0.042,-1.024,0.286,-0.181,-8.777,8.043,36.635
1747603803.80,-0.094,0.038,-0.012,-1.028,0.420,-0.270,-9.965,8.445,36.612
1747603803.82,-0.009,-0.099,0.010,-1.076,0.453,-0.292,-11.188,8.912,36.522
1747603803.84,0.184,-0.139,0.016,-1.170,0.365,-0.158,-12.505,9.381,36.535
1747603803.86,0.173,-0.036,-0.009,-1.141,0.311,-0.051,-13.822,9.802,36.714
1747603803.88,-0.044,0.022,-0.011,-1.119,0.390,-0.157,-15.113,10.221,36.912
1747603803.90,-0.117,-0.053,-0.033,-1.119,0.456,-0.251,-16.417,10.695,36.995
1747603803.92,0.006,-0.071,-0.036,-1.180,0.353,-0.241,-17.764,11.181,37.044
1747603803.94,0.105,-0.039,-0.025,-1.124,0.318,-0.211,-19.120,11.559,37.152
1747603803.96,-0.048,-0.049,-0.004,-1.092,0.395,-0.286,-20.406,11.940,37.232
1747603803.98,-0.163,-0.117,-0.047,-1.085,0.486,-0.366,-21.699,12.393,37.191
1747603804.00,-0.074,-0.115,-0.034,-1.124,0.536,-0.373,-23.014,12.960,37.134
1747603804.02,0.024,-0.066,-0.004,-1.141,0.477,-0.370,-24.374,13.464,37.070
1747603804.04,0.107,-0.015,0.015,-1.148,0.284,-0.315,-25.740,13.869,37.063
1747603804.06,0.105,-0.005,0.026,-1.112,0.334,-0.304,-27.072,14.205,37.089
1747603804.08,-0.021,-0.030,-0.013,-1.112,0.367,-0.292,-28.383,14.587,37.132
1747603804.10,-0.078,-0.038,0.006,-1.124,0.429,-0.365,-29.718,15.047,37.131
1747603804.12,0.002,-0.042,0.007,-1.109,0.385,-0.352,-31.059,15.471,37.099
1747603804.14,0.154,-0.033,0.027,-1.070,0.173,-0.318,-32.363,15.781,37.116
1747603804.16,0.107,0.008,-0.011,-1.072,0.016,-0.304,-33.640,15.875,37.139
1747603804.18,-0.000,-0.025,-0.014,-1.055,0.143,-0.343,-34.908,15.942,37.152
1747603804.20,-0.123,-0.039,-0.023,-1.080,0.219,-0.387,-36.195,16.090,37.114
1747603804.22,-0.118,0.015,0.011,-1.086,0.301,-0.384,-37.506,16.340,37.052
1747603804.24,-0.004,0.065,-0.020,-1.072,0.254,-0.382,-38.802,16.608,37.010
1747603804.26,0.082,0.055,-0.035,-1.092,0.035,-0.428,-40.126,16.722,36.954
1747603804.28,0.094,-0.006,0.003,-1.102,-0.124,-0.462,-41.474,16.545,36.809
1747603804.30,0.032,-0.066,-0.039,-1.093,-0.206,-0.419,-42.813,16.209,36.668
1747603804.32,-0.023,-0.063,-0.042,-1.113,-0.119,-0.413,-44.158,15.929,36.570
1747603804.34,-0.096,-0.020,0.011,-1.093,0.031,-0.421,-45.499,15.755,36.424
1747603804.36,-0.063,-0.020,-0.005,-1.107,0.138,-0.368,-46.828,15.761,36.311
1747603804.38,0.044,-0.006,-0.061,-1.087,-0.027,-0.321,-48.149,15.806,36.299
1747603804.40,0.058,0.038,0.019,-1.080,-0.164,-0.386,-49.445,15.631,36.256
1747603804.42,-0.067,-0.016,0.035,-1.080,-0.139,-0.458,-50.754,15.247,36.040
1747603804.44,-0.039,-0.096,0.008,-1.177,0.115,-0.372,-52.119,15.091,35.855
1747603804.46,0.041,-0.018,-0.032,-1.218,0.127,-0.311,-53.548,15.232,35.879
1747603804.48,0.092,0.054,-0.015,-1.155,-0.015,-0.290,-54.945,15.349,35.953
1747603804.50,0.047,0.019,-0.014,-1.173,-0.123,-0.323,-56.322,15.286,36.024
1747603804.52,-0.071,-0.046,0.027,-1.189,-0.053,-0.391,-57.734,15.100,35.965
1747603804.54,-0.128,-0.081,0.027,-1.173,0.052,-0.377,-59.153,14.969,35.815
1747603804.56,-0.052,-0.026,-0.042,-1.179,0.113,-0.324,-60.550,15.003,35.761
1747603804.58,0.043,0.036,-0.020,-1.118,0.128,-0.347,-61.921,15.101,35.717
1747603804.60,0.039,0.031,0.022,-1.154,0.172,-0.411,-63.284,15.131,35.551
1747603804.62,-0.011,-0.051,-0.002,-1.098,0.082,-0.382,-64.669,15.059,35.320
1747603804.64,0.013,-0.116,0.026,-1.100,0.026,-0.279,-65.955,15.013,35.220
1747603804.66,0.042,-0.062,-0.032,-1.094,0.017,-0.294,-67.248,15.086,35.290
1747603804.68,0.048,0.042,-0.007,-1.037,0.061,-0.364,-68.546,15.027,35.198
1747603804.70,0.020,0.080,-0.017,-0.963,0.061,-0.380,-69.746,14.765,34.839
1747603804.72,-0.013,0.035,-0.003,-0.937,-0.037,-0.378,-70.908,14.396,34.431
1747603804.74,-0.047,-0.107,0.029,-0.947,0.223,-0.371,-72.042,13.951,33.873
1747603804.76,-0.021,-0.140,-0.044,-0.981,0.362,-0.272,-73.198,14.072,33.631
1747603804.78,-0.096,-0.019,-0.055,-0.976,0.338,-0.308,-74.369,14.304,33.470
1747603804.80,0.017,0.041,-0.049,-0.885,0.491,-0.336,-75.492,14.404,33.107
1747603804.82,0.060,0.071,-0.027,-0.826,0.372,-0.310,-76.539,14.476,32.658
1747603804.84,0.012,0.020,-0.064,-0.731,0.278,-0.339,-77.466,14.230,32.050
1747603804.86,-0.023,-0.106,0.013,-0.855,0.439,-0.329,-78.431,13.885,31.295
1747603804.88,-0.078,-0.089,0.033,-0.976,0.498,-0.337,-79.549,13.877,30.738
1747603804.90,-0.067,0.027,0.019,-0.892,0.512,-0.352,-80.699,13.700,29.980
1747603804.92,0.025,0.065,0.059,-0.850,0.522,-0.300,-81.744,13.412,29.093
1747603804.94,0.055,-0.001,0.025,-0.785,0.524,-0.245,-82.722,13.432,28.512
1747603804.96,-0.008,-0.097,-0.018,-0.826,0.408,-0.233,-83.675,13.600,28.129
1747603804.98,-0.077,-0.053,-0.026,-0.752,0.350,-0.293,-84.630,13.286,27.389
1747603805.00,-0.084,-0.025,-0.061,-0.720,0.423,-0.344,-85.523,11.462,25.148
1747603805.02,0.093,-0.027,-0.040,-0.713,0.515,-0.264,-86.405,9.193,22.303
1747603805.04,0.196,-0.001,-0.078,-0.636,0.367,-0.129,-87.191,7.780,20.379
1747603805.06,0.159,0.004,-0.044,-0.507,0.208,-0.065,-87.858,7.633,19.932
1747603805.08,0.071,-0.009,0.008,-0.402,0.117,-0.026,-88.375,8.657,20.758
1747603805.09,-0.085,-0.009,-0.049,-0.308,0.069,-0.085,-88.788,9.008,21.043
1747603805.12,-0.074,0.006,-0.036,-0.361,0.200,-0.119,-89.153,4.008,15.848
1747603805.13,0.018,0.018,0.014,-0.410,0.136,-0.025,-89.627,-2.512,9.140
1747603805.15,0.024,-0.001,0.005,-0.203,0.056,0.020,-89.967,-30.435,-18.893
1747603805.17,-0.053,-0.031,0.011,-0.134,0.042,-0.008,-89.845,178.078,-170.419
1747603805.19,-0.069,0.002,0.010,-0.191,0.153,-0.030,-89.663,-175.860,-164.467
1747603805.21,-0.027,-0.006,0.001,-0.204,0.168,-0.024,-89.418,-174.701,-163.491
1747603805.23,-0.004,0.016,0.028,-0.209,0.241,-0.023,-89.198,-173.694,-162.724
1747603805.25,0.010,-0.017,0.064,-0.156,0.300,0.024,-88.969,-174.796,-164.140
1747603805.27,0.003,0.020,0.025,-0.151,0.168,0.023,-88.817,-177.059,-166.683
1747603805.29,-0.018,-0.017,0.009,-0.117,-0.065,-0.037,-88.650,-176.960,-166.648
1747603805.31,-0.008,0.009,-0.024,-0.021,-0.175,-0.031,-88.578,-175.343,-164.874
1747603805.33,-0.015,0.015,0.052,-0.047,-0.015,-0.011,-88.529,-174.765,-164.170
1747603805.35,-0.008,-0.016,0.030,-0.061,0.075,-0.000,-88.462,-174.743,-164.201
1747603805.37,0.048,-0.017,-0.012,-0.066,0.045,0.030,-88.389,-175.300,-164.824
1747603805.39,0.070,-0.003,0.013,-0.092,-0.029,0.085,-88.305,-177.739,-167.272
1747603805.41,0.012,0.010,0.013,-0.097,0.008,0.021,-88.189,179.999,-169.512
1747603805.43,-0.013,0.015,0.008,-0.024,0.081,-0.016,-88.111,-179.744,-169.323
1747603805.45,-0.007,0.026,-0.002,0.046,0.132,0.004,-88.127,-179.546,-169.228
1747603805.47,-0.014,-0.006,0.014,0.041,0.158,0.018,-88.185,-179.947,-169.815
1747603805.49,-0.005,-0.007,-0.002,-0.000,0.102,0.049,-88.200,178.735,-171.282
1747603805.51,0.027,-0.017,0.034,-0.025,0.133,0.038,-88.183,177.367,-172.774
1747603805.53,0.096,-0.009,0.047,0.006,0.024,0.019,-88.153,176.484,-173.765
1747603805.55,0.095,0.026,0.013,0.078,-0.161,-0.004,-88.211,176.147,-174.028
1747603805.57,0.021,0.002,-0.006,0.086,-0.285,-0.007,-88.303,175.777,-174.128
1747603805.59,-0.019,-0.017,0.005,0.039,-0.181,-0.012,-88.381,175.598,-174.031
1747603805.61,0.010,-0.027,0.029,0.042,-0.087,0.013,-88.414,175.096,-174.386
1747603805.63,-0.002,0.012,0.003,0.167,-0.100,0.005,-88.517,173.812,-175.569
1747603805.65,-0.059,0.058,-0.023,0.204,-0.098,0.035,-88.750,171.693,-177.569
1747603805.67,-0.066,-0.029,0.065,0.119,0.097,0.055,-88.922,167.393,178.135
1747603805.69,-0.022,-0.085,0.069,0.066,0.103,0.041,-89.000,163.244,173.856
1747603805.71,0.104,-0.037,0.056,0.134,-0.065,0.060,-89.073,158.202,168.780
1747603805.73,0.124,0.033,-0.017,0.290,-0.316,0.070,-89.253,145.674,156.466
1747603805.75,0.054,0.019,-0.052,0.446,-0.446,0.073,-89.463,110.128,121.381
1747603805.77,-0.031,-0.009,-0.003,0.475,-0.319,0.034,-89.331,57.438,69.126
1747603805.79,-0.085,0.023,0.032,0.474,-0.293,0.062,-88.919,34.353,46.377
1747603805.81,-0.058,0.005,0.026,0.525,-0.133,0.116,-88.362,25.664,37.938
1747603805.83,-0.048,-0.028,0.053,0.585,-0.110,0.128,-87.746,22.214,34.610
1747603805.85,-0.014,-0.039,0.003,0.805,-0.092,0.126,-86.950,18.806,31.337
1747603805.87,0.061,-0.017,0.018,0.880,-0.054,0.241,-85.964,17.039,29.624
1747603805.89,-0.113,0.072,0.019,0.864,-0.100,0.221,-84.907,16.652,29.366
1747603805.91,-0.215,-0.027,0.188,0.710,0.463,0.113,-83.999,16.163,28.667
1747603805.93,-0.109,0.001,0.104,0.719,0.453,0.075,-83.207,15.580,27.512
1747603805.95,0.127,0.039,0.022,0.994,0.140,0.181,-82.231,14.938,26.501
1747603805.97,0.230,0.058,0.051,0.975,-0.181,0.324,-81.042,14.875,26.502
1747603805.99,0.016,-0.041,0.098,0.992,-0.167,0.253,-79.880,14.899,26.737
1747603806.01,-0.190,-0.051,0.052,0.924,-0.023,0.187,-78.750,14.576,26.544
1747603806.03,-0.218,0.048,0.091,0.836,0.153,0.108,-77.734,14.217,26.081
1747603806.05,0.030,0.069,0.011,1.069,0.073,0.199,-76.672,13.950,25.611
1747603806.07,0.153,0.029,0.048,1.063,0.077,0.289,-75.373,13.906,25.485
1747603806.09,-0.018,-0.051,0.082,0.941,0.064,0.279,-74.206,14.178,25.640
1747603806.11,-0.126,-0.059,-0.037,0.885,0.259,0.364,-73.093,14.616,25.905
1747603806.13,-0.023,-0.006,0.001,0.969,0.176,0.408,-71.982,15.447,26.444
1747603806.15,0.163,0.002,-0.089,1.076,0.042,0.305,-70.721,15.788,26.681
1747603806.17,0.024,-0.063,-0.020,1.078,0.068,0.186,-69.469,15.639,26.428
1747603806.19,-0.144,-0.053,-0.175,1.010,0.087,0.141,-68.253,15.317,25.983
1747603806.21,-0.063,-0.058,-0.027,0.998,0.433,0.147,-67.125,15.285,25.574
1747603806.23,0.067,-0.029,-0.027,1.085,0.376,0.205,-65.949,15.510,25.225
1747603806.25,0.086,-0.025,-0.072,1.167,0.165,0.221,-64.600,15.543,24.927
1747603806.27,-0.032,-0.049,0.045,0.934,0.255,0.236,-63.392,15.649,24.709
1747603806.29,-0.048,-0.073,-0.077,0.950,0.396,0.271,-62.281,15.982,24.663
1747603806.31,0.064,-0.078,-0.091,1.143,0.295,0.269,-61.062,16.364,24.565
1747603806.33,0.109,-0.036,-0.112,1.268,0.149,0.132,-59.669,16.330,24.207
1747603806.35,0.022,0.009,0.016,1.255,0.196,0.079,-58.231,15.947,23.522
1747603806.37,0.026,0.004,0.169,0.948,0.269,0.284,-56.934,16.004,23.145
1747603806.39,0.160,-0.038,0.069,0.776,0.035,0.528,-55.918,16.456,23.420
1747603806.41,0.220,-0.071,-0.023,0.893,-0.468,0.520,-54.833,16.679,23.924
1747603806.43,0.040,0.029,-0.122,1.057,-0.720,0.373,-53.621,16.211,24.192
1747603806.45,-0.174,0.161,0.018,1.176,-0.274,0.106,-52.333,15.491,24.010
1747603806.47,-0.161,0.062,0.084,1.113,0.076,0.075,-51.023,15.054,23.471
1747603806.49,0.133,-0.154,0.104,0.905,0.085,0.433,-49.860,15.123,23.378
1747603806.51,0.373,-0.191,0.039,0.934,-0.224,0.723,-48.683,15.546,23.914
1747603806.53,0.144,-0.091,-0.064,1.052,-0.485,0.691,-47.359,15.644,24.598
1747603806.55,-0.093,0.038,-0.016,1.071,-0.236,0.411,-46.029,15.525,24.963
1747603806.57,-0.242,0.064,0.040,1.072,-0.100,0.269,-44.743,15.365,24.896
1747603806.59,-0.050,-0.000,0.090,1.026,-0.093,0.345,-43.502,15.290,24.864
1747603806.61,0.115,0.016,0.056,1.105,-0.265,0.418,-42.212,15.233,24.987
1747603806.63,-0.070,0.084,-0.044,1.093,-0.279,0.295,-40.884,14.929,25.044
1747603806.65,-0.256,0.100,0.005,1.126,-0.091,0.125,-39.605,14.642,24.861
1747603806.67,-0.200,0.075,0.088,1.113,0.036,0.173,-38.312,14.488,24.576
1747603806.69,0.156,0.044,0.054,1.107,-0.005,0.317,-37.023,14.483,24.491
1747603806.71,0.265,0.038,-0.045,1.125,-0.295,0.334,-35.693,14.341,24.484
1747603806.73,0.067,-0.035,-0.028,1.123,-0.315,0.326,-34.353,14.005,24.510
1747603806.75,-0.063,-0.100,0.017,1.072,-0.087,0.276,-33.049,13.779,24.490
1747603806.77,0.002,-0.105,0.046,1.029,-0.029,0.324,-31.811,13.761,24.503
1747603806.79,0.124,0.019,0.022,1.037,-0.253,0.331,-30.579,13.684,24.563
1747603806.81,0.122,0.194,-0.025,1.047,-0.485,0.289,-29.338,13.277,24.595
1747603806.83,-0.009,0.178,-0.033,0.991,-0.467,0.285,-28.136,12.742,24.592
1747603806.85,-0.057,0.017,-0.013,0.958,-0.344,0.313,-26.978,12.306,24.657
1747603806.87,-0.080,-0.055,0.032,1.048,-0.286,0.227,-25.793,12.002,24.689
1747603806.89,-0.050,-0.056,0.001,1.078,-0.325,0.125,-24.561,11.625,24.577
1747603806.91,0.053,-0.054,-0.001,1.072,-0.315,0.109,-23.314,11.206,24.400
1747603806.93,0.044,-0.049,-0.012,1.038,-0.307,0.165,-22.107,10.804,24.279
1747603806.95,-0.021,-0.025,-0.049,1.047,-0.200,0.146,-20.910,10.500,24.188
1747603806.97,-0.032,-0.046,0.024,1.107,-0.145,0.139,-19.665,10.292,24.085
1747603806.99,0.065,-0.006,0.037,1.137,-0.297,0.114,-18.376,10.021,23.929
1747603807.01,0.258,0.059,0.038,1.057,-0.436,0.316,-17.106,9.597,23.910
1747603807.03,0.209,-0.030,0.001,0.983,-0.326,0.494,-15.880,9.219,24.168
1747603807.05,-0.073,-0.148,-0.077,0.924,-0.196,0.391,-14.729,8.998,24.482
1747603807.07,-0.080,-0.192,0.041,0.892,-0.031,0.318,-13.635,8.954,24.705
1747603807.09,-0.015,-0.033,-0.004,0.864,-0.194,0.339,-12.593,8.878,24.932
1747603807.11,-0.047,0.108,-0.044,0.871,-0.317,0.216,-11.565,8.625,25.099
1747603807.13,-0.023,-0.015,-0.013,0.974,-0.215,0.156,-10.504,8.298,25.135
1747603807.15,0.064,-0.065,-0.047,0.981,-0.207,0.171,-9.349,8.088,25.129
1747603807.17,0.048,0.035,-0.064,0.880,-0.202,0.309,-8.265,7.862,25.228
1747603807.19,-0.108,0.167,0.007,0.803,-0.212,0.319,-7.279,7.653,25.464
1747603807.21,-0.111,0.084,-0.055,0.827,-0.212,0.152,-6.317,7.434,25.594
1747603807.23,-0.082,-0.032,-0.068,0.915,-0.256,0.003,-5.306,7.162,25.529
1747603807.25,-0.242,-0.088,-0.036,0.940,-0.021,-0.083,-4.281,6.943,25.313
1747603807.27,-0.234,-0.058,-0.030,0.876,0.348,-0.189,-3.253,7.131,25.018
1747603807.29,-0.072,0.048,-0.074,0.838,0.337,-0.195,-2.319,7.525,24.647
1747603807.31,0.059,0.212,-0.005,0.884,0.122,-0.201,-1.374,7.800,24.262
1747603807.33,0.078,0.234,-0.049,0.896,-0.052,-0.265,-0.410,7.816,23.820
1747603807.35,0.009,0.042,-0.047,0.887,-0.012,-0.278,0.569,7.757,23.333
1747603807.37,-0.065,-0.063,-0.018,0.875,0.091,-0.254,1.529,7.810,22.860
1747603807.39,0.001,0.031,0.006,0.883,0.091,-0.248,2.484,7.972,22.383
1747603807.41,0.118,0.133,-0.032,0.786,-0.084,-0.171,3.400,7.997,21.979
1747603807.43,0.233,0.024,-0.091,0.739,-0.306,-0.071,4.243,7.775,21.686
1747603807.45,0.171,-0.057,-0.040,0.700,-0.277,-0.024,5.053,7.434,21.479
1747603807.47,-0.015,-0.093,-0.010,0.633,-0.082,0.044,5.801,7.229,21.352
1747603807.49,-0.006,-0.112,-0.003,0.593,0.079,0.098,6.513,7.249,21.303
1747603807.51,0.099,-0.010,-0.043,0.553,-0.060,0.127,7.183,7.279,21.296
1747603807.53,0.103,0.064,-0.027,0.489,-0.117,0.177,7.800,7.151,21.346
1747603807.55,0.047,0.004,-0.100,0.415,-0.103,0.211,8.343,7.004,21.464
1747603807.57,0.027,-0.073,-0.063,0.366,-0.070,0.230,8.811,6.862,21.617
1747603807.59,-0.011,-0.039,-0.041,0.316,0.006,0.204,9.225,6.799,21.768
1747603807.61,0.041,-0.013,-0.048,0.226,0.021,0.252,9.570,6.787,21.946
1747603807.63,0.155,0.004,-0.087,0.197,-0.090,0.345,9.847,6.694,22.233
1747603807.65,0.075,0.032,-0.064,0.135,-0.075,0.428,10.101,6.512,22.609
1747603807.67,-0.020,-0.036,-0.044,0.040,0.041,0.558,10.260,6.384,23.135
1747603807.69,0.065,-0.053,-0.070,-0.045,0.061,0.677,10.340,6.336,23.794
1747603807.71,0.040,-0.047,-0.029,-0.115,0.115,0.794,10.333,6.250,24.635
1747603807.73,0.032,-0.020,0.048,-0.225,0.334,0.799,10.253,6.348,25.518
1747603807.75,0.087,-0.038,-0.074,-0.319,0.292,0.942,10.043,6.529,26.533
1747603807.77,0.042,-0.027,-0.081,-0.322,0.350,0.954,9.785,6.673,27.693
1747603807.79,-0.032,-0.050,0.036,-0.376,0.434,0.826,9.514,6.950,28.757
1747603807.81,0.060,-0.119,-0.006,-0.425,0.410,0.910,9.187,7.285,29.800
1747603807.83,0.036,-0.001,-0.073,-0.394,0.399,0.700,8.825,7.597,30.730
1747603807.85,-0.077,0.082,-0.079,-0.373,0.564,0.582,8.520,8.021,31.505
1747603807.87,-0.000,0.062,-0.056,-0.467,0.530,0.444,8.135,8.631,32.162
1747603807.89,0.128,-0.057,-0.129,-0.515,0.098,0.466,7.648,8.888,32.767
1747603807.91,0.015,0.072,-0.113,-0.434,-0.128,0.224,7.180,8.781,33.259
1747603807.93,-0.092,0.098,0.007,-0.508,-0.133,0.176,6.692,8.606,33.547
1747603807.95,0.002,-0.056,-0.009,-0.514,-0.123,0.243,6.137,8.425,33.898
1747603807.97,0.042,-0.065,-0.014,-0.446,-0.156,0.215,5.658,8.222,34.240
1747603807.99,-0.038,0.024,0.018,-0.394,-0.019,0.266,5.224,8.067,34.596
1747603808.01,-0.031,0.072,0.014,-0.397,-0.002,0.307,4.829,8.036,34.962
1747603808.03,-0.027,0.027,-0.032,-0.368,0.003,0.369,4.451,7.999,35.419
1747603808.05,-0.095,-0.026,0.006,-0.341,0.034,0.307,4.109,7.972,35.895
1747603808.07,0.039,-0.144,0.050,-0.364,0.060,0.337,3.761,8.027,36.304
1747603808.09,0.073,-0.044,-0.029,-0.338,-0.002,0.423,3.412,8.005,36.816
1747603808.11,-0.025,0.084,0.043,-0.327,0.072,0.346,3.119,7.996,37.337
1747603808.13,0.047,-0.033,0.013,-0.305,0.062,0.331,2.816,8.076,37.803
1747603808.15,0.060,-0.114,0.001,-0.304,0.021,0.319,2.523,8.130,38.254
1747603808.17,0.059,-0.001,-0.005,-0.382,0.156,0.463,2.173,8.198,38.754
1747603808.18,-0.113,0.100,-0.078,-0.343,0.289,0.343,1.836,8.420,39.336
1747603808.20,-0.289,0.091,-0.152,-0.234,0.171,-0.110,1.531,8.690,39.583
1747603808.22,-0.110,0.041,-0.048,-0.309,0.058,-0.299,1.202,8.836,39.398
1747603808.24,0.240,0.018,-0.098,-0.390,-0.027,-0.064,0.767,8.833,39.276
1747603808.26,-0.031,-0.025,-0.084,-0.391,0.061,-0.065,0.320,8.849,39.367
1747603808.28,-0.126,-0.113,0.023,-0.440,0.295,-0.332,-0.193,9.093,39.276
1747603808.30,0.080,-0.003,-0.108,-0.579,0.138,-0.283,-0.823,9.277,39.026
1747603808.32,0.078,0.160,-0.191,-0.633,0.010,-0.213,-1.536,9.378,38.963
1747603808.34,-0.005,0.031,-0.063,-0.714,-0.179,-0.333,-2.351,9.278,38.798
1747603808.36,0.176,-0.216,-0.043,-0.851,-0.135,-0.135,-3.284,9.072,38.717
1747603808.38,0.026,-0.204,-0.113,-0.873,0.021,-0.024,-4.275,9.015,38.850
1747603808.40,-0.232,-0.003,-0.057,-0.952,0.231,-0.114,-5.307,9.163,39.016
1747603808.42,-0.060,0.063,-0.029,-1.020,0.418,-0.068,-6.447,9.559,39.135
1747603808.44,0.160,0.098,-0.102,-1.048,0.283,0.016,-7.618,10.007,39.378
1747603808.46,0.126,0.009,-0.069,-1.075,0.003,0.019,-8.799,10.166,39.665
1747603808.48,0.018,-0.112,-0.023,-1.118,-0.050,-0.031,-10.043,10.174,39.937
1747603808.50,-0.068,-0.006,-0.074,-1.177,0.126,-0.183,-11.354,10.210,40.168
1747603808.52,-0.044,0.047,-0.025,-1.172,0.270,-0.157,-12.717,10.439,40.264
1747603808.54,-0.008,0.035,-0.017,-1.191,0.330,-0.125,-14.071,10.825,40.422
1747603808.56,-0.074,0.033,-0.065,-1.211,0.418,-0.184,-15.443,11.281,40.578
1747603808.58,-0.069,0.027,-0.060,-1.239,0.402,-0.251,-16.857,11.762,40.675
1747603808.60,-0.017,0.021,-0.078,-1.223,0.245,-0.340,-18.317,12.112,40.714
1747603808.62,-0.034,0.024,-0.050,-1.214,0.282,-0.431,-19.768,12.368,40.637
1747603808.64,-0.127,-0.015,-0.032,-1.186,0.402,-0.429,-21.213,12.656,40.511
1747603808.66,-0.060,-0.068,0.013,-1.218,0.489,-0.398,-22.652,13.123,40.419
1747603808.68,0.026,-0.068,-0.031,-1.243,0.504,-0.377,-24.127,13.656,40.382
1747603808.70,0.006,0.001,-0.030,-1.205,0.475,-0.353,-25.583,14.187,40.386
1747603808.72,-0.014,0.060,-0.010,-1.248,0.419,-0.387,-27.043,14.668,40.395
1747603808.74,-0.014,-0.018,0.072,-1.278,0.382,-0.421,-28.548,15.084,40.361
1747603808.76,0.059,-0.145,-0.057,-1.274,0.285,-0.336,-30.088,15.447,40.406
1747603808.78,0.029,-0.138,-0.012,-1.289,0.259,-0.349,-31.597,15.761,40.496
1747603808.80,-0.090,-0.066,-0.029,-1.258,0.244,-0.359,-33.106,16.030,40.569
1747603808.82,-0.066,-0.004,-0.034,-1.236,0.311,-0.336,-34.581,16.372,40.663
1747603808.84,-0.032,0.043,-0.026,-1.249,0.326,-0.403,-36.057,16.741,40.733
1747603808.86,-0.101,0.039,-0.020,-1.277,0.176,-0.452,-37.587,17.002,40.733
1747603808.88,-0.097,-0.034,-0.023,-1.253,0.191,-0.477,-39.119,17.117,40.661
1747603808.90,-0.019,-0.096,-0.050,-1.208,0.171,-0.483,-40.620,17.227,40.586
1747603808.92,-0.015,-0.082,-0.002,-1.189,0.232,-0.517,-42.107,17.337,40.452
1747603808.94,-0.047,-0.023,0.006,-1.165,0.242,-0.509,-43.555,17.454,40.287
1747603808.96,-0.009,0.004,0.032,-1.176,0.299,-0.474,-45.000,17.654,40.163
1747603808.98,0.039,-0.022,0.015,-1.191,0.311,-0.422,-46.449,17.928,40.108
1747603809.00,0.036,-0.043,-0.010,-1.191,0.252,-0.414,-47.885,18.207,40.094
1747603809.02,0.031,-0.003,0.014,-1.145,0.239,-0.463,-49.315,18.440,40.061
1747603809.04,0.011,0.024,0.027,-1.130,0.245,-0.471,-50.716,18.590,39.929
1747603809.06,0.019,-0.016,0.019,-1.148,0.146,-0.466,-52.117,18.708,39.814
1747603809.08,0.046,-0.051,-0.003,-1.193,0.152,-0.448,-53.547,18.796,39.742
1747603809.10,0.068,-0.042,-0.021,-1.219,0.162,-0.442,-55.016,18.923,39.709
1747603809.12,0.028,-0.011,0.016,-1.167,0.092,-0.442,-56.480,19.029,39.681
1747603809.14,0.019,-0.005,0.012,-1.192,0.119,-0.445,-57.903,19.065,39.632
1747603809.16,0.034,-0.033,0.021,-1.202,0.231,-0.450,-59.371,19.203,39.579
1747603809.18,0.053,-0.017,-0.009,-1.252,0.122,-0.414,-60.863,19.434,39.605
1747603809.20,0.034,0.012,0.011,-1.248,0.026,-0.460,-62.366,19.509,39.651
1747603809.22,0.040,-0.021,-0.004,-1.209,0.139,-0.538,-63.891,19.472,39.521
1747603809.24,-0.024,-0.049,-0.017,-1.188,0.121,-0.511,-65.376,19.375,39.263
1747603809.26,-0.041,-0.054,0.014,-1.196,0.272,-0.460,-66.835,19.418,39.106
1747603809.28,0.014,-0.046,0.024,-1.227,0.329,-0.442,-68.322,19.777,39.104
1747603809.30,0.055,-0.003,-0.042,-1.159,0.226,-0.459,-69.769,20.046,39.067
1747603809.32,0.059,0.029,0.008,-1.114,0.270,-0.482,-71.164,20.147,38.913
1747603809.34,-0.034,-0.012,0.025,-1.108,0.198,-0.457,-72.542,20.189,38.700
1747603809.36,-0.006,-0.055,-0.030,-1.092,0.186,-0.467,-73.906,20.238,38.551
1747603809.38,0.071,-0.047,0.005,-1.037,0.138,-0.454,-75.235,20.132,38.247
1747603809.40,0.086,-0.007,-0.002,-0.988,0.210,-0.341,-76.477,20.232,38.171
1747603809.42,-0.041,-0.026,-0.033,-0.930,0.251,-0.372,-77.637,20.514,38.215
1747603809.44,-0.039,-0.069,0.008,-0.988,0.379,-0.382,-78.813,20.723,38.060
1747603809.46,0.005,0.010,-0.034,-0.966,0.251,-0.352,-80.010,21.207,38.175
1747603809.48,0.057,-0.016,-0.027,-0.914,0.478,-0.338,-81.141,21.724,38.335
1747603809.50,0.058,-0.054,0.033,-0.932,0.557,-0.290,-82.262,22.825,38.777
1747603809.52,-0.036,0.022,-0.018,-0.887,0.152,-0.297,-83.359,24.220,39.788
1747603809.54,-0.005,-0.021,0.042,-0.905,0.294,-0.326,-84.422,25.259,40.633
1747603809.56,0.038,-0.058,0.060,-0.871,0.337,-0.259,-85.508,27.484,42.450
1747603809.58,-0.028,-0.011,-0.101,-0.711,0.199,-0.231,-86.428,30.580,45.240
1747603809.60,-0.015,0.000,-0.059,-0.616,0.320,-0.200,-87.176,34.143,48.551
1747603809.62,-0.013,0.005,0.007,-0.659,0.482,-0.133,-87.886,41.825,55.782
1747603809.64,-0.051,0.001,-0.047,-0.515,0.486,-0.092,-88.429,55.381,68.769
1747603809.66,-0.052,-0.030,0.008,-0.528,0.560,-0.090,-88.763,76.124,88.927
1747603809.68,0.014,-0.030,-0.009,-0.474,0.520,-0.076,-88.853,105.375,117.563
1747603809.70,0.095,0.009,-0.082,-0.337,0.349,-0.045,-88.727,126.707,138.386
1747603809.72,0.068,0.030,-0.081,-0.226,0.020,-0.036,-88.529,138.145,149.640
1747603809.74,0.027,-0.011,-0.011,-0.263,0.071,-0.002,-88.345,144.820,156.284
1747603809.76,-0.018,-0.074,0.089,-0.306,0.196,0.007,-88.053,150.157,161.470
1747603809.78,-0.062,-0.026,0.016,-0.289,0.118,-0.081,-87.773,155.739,166.859
1747603809.80,0.067,0.027,-0.066,-0.207,-0.016,-0.074,-87.532,160.627,171.712
1747603809.82,0.132,0.021,-0.094,-0.059,0.012,-0.010,-87.404,162.836,173.932
1747603809.84,0.039,0.001,-0.062,-0.041,-0.198,0.083,-87.368,161.890,173.053
1747603809.86,-0.103,-0.005,-0.004,-0.103,-0.142,-0.013,-87.252,161.337,172.750
1747603809.88,-0.019,-0.032,0.039,-0.091,0.191,-0.037,-87.179,162.725,174.100
1747603809.90,0.027,0.011,0.044,-0.060,0.272,-0.026,-87.083,164.218,175.314
1747603809.92,0.012,0.017,-0.023,-0.071,-0.033,-0.021,-87.046,164.905,175.862
1747603809.94,0.020,0.005,0.023,-0.132,-0.081,-0.016,-86.920,165.969,177.021
1747603809.96,0.047,-0.000,0.002,-0.095,-0.043,-0.031,-86.811,166.839,177.965
1747603809.98,0.021,0.001,0.004,-0.095,-0.132,-0.033,-86.701,167.938,179.131
1747603810.00,-0.053,-0.029,0.019,-0.112,-0.207,-0.042,-86.618,168.630,-179.940
1747603810.02,-0.026,-0.032,0.048,-0.235,-0.007,-0.062,-86.414,170.140,-178.311
1747603810.04,-0.015,0.000,-0.008,-0.147,-0.084,-0.071,-86.182,171.632,-176.766
1747603810.06,0.054,0.029,-0.063,0.030,-0.092,-0.085,-86.151,173.039,-175.247
1747603810.08,0.092,-0.001,-0.106,0.109,-0.114,0.056,-86.235,173.068,-175.092
1747603810.10,-0.034,0.019,-0.040,0.010,-0.063,0.090,-86.302,171.396,-176.653
1747603810.12,-0.054,-0.014,0.001,-0.048,0.168,0.050,-86.255,170.426,-177.693
1747603810.14,-0.007,-0.033,0.047,0.053,0.133,-0.007,-86.258,170.070,-178.234
1747603810.16,0.009,-0.006,0.007,0.092,0.120,-0.045,-86.360,170.438,-177.998
1747603810.18,-0.017,0.034,0.021,0.083,0.034,0.008,-86.460,170.604,-177.923
1747603810.20,0.005,0.003,-0.006,0.106,0.050,0.030,-86.567,170.085,-178.489
1747603810.22,0.015,-0.018,0.013,0.190,0.082,0.036,-86.717,168.946,-179.705
1747603810.24,-0.031,-0.003,-0.033,0.358,0.077,0.000,-86.998,167.579,178.835
1747603810.26,-0.017,-0.002,-0.065,0.515,0.092,0.047,-87.482,164.912,176.072
1747603810.28,-0.055,0.003,0.038,0.469,0.142,0.088,-88.003,158.412,169.441
1747603810.30,-0.100,0.012,0.056,0.458,0.414,0.067,-88.426,148.563,159.294
1747603810.32,-0.111,-0.009,0.113,0.460,0.637,0.018,-88.808,133.793,143.892
1747603810.34,-0.057,-0.027,0.018,0.621,0.452,-0.062,-89.140,106.467,115.905
1747603810.36,0.140,0.007,0.025,0.746,0.172,0.004,-89.058,54.809,63.854
1747603810.38,0.172,-0.040,0.028,0.842,-0.357,0.175,-88.302,31.172,40.320
1747603810.40,-0.006,0.022,0.003,0.759,-0.704,0.178,-87.370,24.119,33.936
1747603810.42,-0.037,-0.022,0.195,0.676,-0.252,0.078,-86.568,20.254,30.602
1747603810.44,0.030,-0.048,0.140,0.781,-0.439,0.055,-85.775,17.061,27.756
1747603810.46,0.127,0.011,0.025,0.991,-0.833,0.124,-84.762,13.973,25.379
1747603810.48,0.109,0.111,0.087,0.906,-1.044,0.238,-83.656,12.510,25.001
1747603810.50,-0.064,0.034,0.111,0.883,-0.530,0.177,-82.600,11.758,25.206
1747603810.52,-0.199,-0.056,0.128,0.905,-0.237,0.164,-81.570,11.244,25.077
1747603810.54,-0.199,0.011,-0.001,0.959,-0.059,0.141,-80.489,10.870,24.844
1747603810.56,-0.009,0.063,0.044,0.993,0.324,0.197,-79.352,10.802,24.614
1747603810.58,0.036,0.037,0.114,1.014,0.424,0.347,-78.166,11.734,25.073
1747603810.60,-0.172,-0.028,0.047,0.957,0.422,0.318,-76.974,12.834,25.685
1747603810.62,-0.139,-0.037,0.023,1.023,0.545,0.250,-75.813,13.621,25.882
1747603810.64,0.074,0.019,-0.012,1.106,0.458,0.291,-74.553,14.225,25.871
1747603810.66,0.177,0.024,0.048,1.152,0.284,0.298,-73.208,14.664,25.825
1747603810.68,0.064,0.043,0.074,1.028,0.034,0.299,-71.897,14.844,25.814
1747603810.70,-0.082,-0.012,0.039,1.001,0.043,0.294,-70.709,14.992,25.880
1747603810.72,-0.072,-0.078,0.007,1.057,0.119,0.335,-69.491,15.181,25.960
1747603810.74,0.059,-0.059,-0.068,1.274,-0.013,0.316,-68.116,15.302,25.970
1747603810.76,0.181,0.000,-0.011,1.194,0.102,0.274,-66.608,15.191,25.762
1747603810.78,0.119,-0.031,0.092,0.796,0.221,0.408,-65.434,15.512,25.850
1747603810.80,-0.021,-0.118,-0.065,0.846,0.237,0.560,-64.390,16.385,26.531
1747603810.82,0.010,-0.084,-0.023,1.019,0.115,0.520,-63.213,17.239,27.151
1747603810.84,0.009,0.043,-0.177,1.210,-0.223,0.392,-61.846,17.413,27.414
1747603810.86,-0.068,0.092,-0.076,1.245,-0.035,0.056,-60.378,16.880,26.971
1747603810.88,-0.236,-0.005,0.030,1.073,0.332,0.007,-59.117,16.441,26.178
1747603810.90,-0.109,-0.141,-0.072,0.953,0.417,0.231,-57.999,16.524,25.771
1747603810.92,0.252,-0.165,-0.043,1.111,0.028,0.374,-56.761,16.902,25.758
1747603810.94,0.204,-0.063,-0.207,1.323,-0.384,0.255,-55.320,16.556,25.671
1747603810.96,0.001,0.005,0.120,1.287,0.066,0.093,-53.819,15.989,25.191
1747603810.98,-0.315,-0.031,-0.021,0.992,0.249,0.197,-52.524,15.895,24.776
1747603811.00,-0.032,-0.128,0.002,0.945,0.371,0.393,-51.422,16.312,24.783
1747603811.02,0.303,-0.035,-0.023,1.154,-0.277,0.442,-50.134,16.592,24.961
1747603811.04,0.194,0.075,-0.033,1.318,-0.500,0.244,-48.649,16.053,24.906
1747603811.06,-0.054,0.046,0.057,1.306,-0.149,0.091,-47.143,15.379,24.464
1747603811.08,-0.160,-0.069,0.053,0.972,0.162,0.235,-45.817,15.224,24.148
1747603811.10,0.042,-0.136,-0.010,0.922,0.055,0.428,-44.706,15.502,24.251
1747603811.12,0.093,-0.020,0.034,1.033,-0.189,0.500,-43.492,15.681,24.533
1747603811.14,-0.093,0.145,-0.084,1.197,-0.457,0.270,-42.150,15.339,24.631
1747603811.16,-0.106,0.204,0.125,1.350,-0.112,-0.057,-40.682,14.741,24.195
1747603811.18,-0.083,0.033,-0.014,1.008,0.045,0.006,-39.392,14.408,23.592
1747603811.20,0.033,-0.154,-0.004,0.917,0.108,0.382,-38.308,14.410,23.502
1747603811.22,0.113,-0.055,0.021,1.059,-0.195,0.417,-37.088,14.537,23.691
1747603811.23,-0.019,0.137,-0.046,1.017,-0.284,0.209,-35.827,14.250,23.728
1747603811.25,-0.020,0.102,-0.012,1.346,0.118,0.021,-34.422,13.961,23.421
1747603811.27,-0.055,0.002,-0.171,1.352,0.365,0.097,-32.985,14.097,22.937
1747603811.29,0.069,-0.086,0.202,1.159,0.412,0.526,-31.494,14.592,22.956
1747603811.31,0.042,0.094,0.056,1.169,0.065,0.597,-30.045,15.054,23.299
1747603811.33,-0.053,0.237,-0.004,1.358,-0.203,0.169,-28.537,15.019,23.329
1747603811.35,0.032,-0.002,0.004,1.355,-0.331,-0.063,-26.999,14.482,22.904
1747603811.37,-0.117,-0.206,-0.051,1.166,-0.275,0.084,-25.631,13.909,22.471
1747603811.39,-0.081,-0.186,0.036,1.046,0.197,0.284,-24.353,13.841,22.355
1747603811.41,0.123,0.039,0.076,1.058,0.166,0.306,-23.097,14.105,22.400
1747603811.43,0.238,0.109,0.058,1.162,-0.178,0.297,-21.800,14.097,22.388
1747603811.45,0.136,-0.008,0.102,1.167,-0.190,0.322,-20.411,13.875,22.402
1747603811.47,0.152,-0.129,-0.043,1.060,-0.240,0.424,-19.074,13.667,22.491
1747603811.49,0.041,-0.066,0.008,1.008,-0.340,0.467,-17.808,13.421,22.731
1747603811.51,0.051,0.046,0.013,0.990,-0.415,0.434,-16.591,13.050,22.962
1747603811.53,0.046,-0.074,0.015,0.973,-0.368,0.440,-15.372,12.662,23.196
1747603811.55,-0.108,-0.125,0.047,0.969,-0.206,0.489,-14.167,12.391,23.470
1747603811.57,-0.022,0.060,-0.007,0.978,-0.196,0.418,-12.984,12.268,23.737
1747603811.59,0.077,0.173,-0.045,1.010,-0.446,0.342,-11.776,11.959,23.917
1747603811.61,0.101,0.041,-0.032,1.028,-0.476,0.276,-10.551,11.412,24.010
1747603811.63,-0.057,-0.139,-0.055,0.958,-0.194,0.299,-9.386,11.031,24.099
1747603811.65,-0.176,-0.009,0.090,0.953,0.102,0.403,-8.211,11.018,24.303
1747603811.67,-0.151,0.180,-0.049,0.918,0.035,0.244,-7.081,11.147,24.463
1747603811.69,-0.000,0.071,-0.201,0.938,-0.231,0.022,-5.996,11.039,24.394
1747603811.71,-0.075,-0.062,-0.164,0.898,-0.384,-0.149,-4.995,10.629,24.095
1747603811.73,-0.140,-0.177,-0.059,0.836,-0.161,-0.156,-4.052,10.287,23.707
1747603811.75,0.012,-0.076,0.051,0.843,0.016,-0.053,-3.134,10.196,23.388
1747603811.77,0.102,0.162,0.055,0.801,0.079,0.034,-2.186,10.265,23.177
1747603811.79,0.142,0.226,-0.055,0.750,0.029,0.048,-1.311,10.337,23.026
1747603811.81,0.041,0.086,-0.167,0.684,-0.093,0.037,-0.496,10.298,22.899
1747603811.83,0.006,-0.048,-0.102,0.655,-0.238,-0.070,0.250,10.099,22.715
1747603811.85,-0.091,-0.098,0.007,0.669,-0.196,-0.151,0.971,9.833,22.436
1747603811.87,-0.030,0.034,-0.043,0.574,-0.088,-0.171,1.641,9.699,22.109
1747603811.89,0.104,0.024,-0.070,0.528,-0.140,-0.061,2.223,9.557,21.874
1747603811.91,0.047,0.035,-0.076,0.459,-0.064,-0.051,2.790,9.429,21.693
1747603811.93,0.123,-0.106,-0.019,0.406,-0.103,0.017,3.281,9.356,21.554
1747603811.95,0.161,-0.118,-0.020,0.356,-0.162,0.137,3.712,9.194,21.552
1747603811.97,0.044,0.070,-0.017,0.303,-0.033,0.173,4.109,9.067,21.643
1747603811.99,-0.001,0.037,-0.107,0.206,0.070,0.197,4.439,9.078,21.780
1747603812.01,0.032,-0.051,-0.098,0.159,-0.058,0.202,4.677,9.084,21.953
1747603812.03,0.033,0.018,-0.060,0.144,-0.168,0.127,4.868,8.940,22.075
1747603812.05,-0.064,0.060,-0.039,0.148,-0.126,0.067,5.047,8.746,22.127
1747603812.07,-0.071,0.045,-0.092,0.061,-0.005,0.049,5.185,8.686,22.121
1747603812.09,-0.009,-0.025,-0.144,-0.036,0.002,0.097,5.208,8.671,22.182
1747603812.11,0.082,-0.059,-0.074,-0.110,-0.069,0.056,5.134,8.638,22.256
1747603812.13,0.115,-0.072,-0.031,-0.170,-0.155,0.079,4.997,8.503,22.339
1747603812.15,0.074,-0.022,-0.067,-0.216,-0.151,0.085,4.788,8.294,22.441
1747603812.17,-0.019,-0.014,-0.054,-0.294,-0.003,0.143,4.515,8.197,22.594
1747603812.19,0.016,-0.061,-0.035,-0.377,0.088,0.187,4.165,8.244,22.836
1747603812.21,0.176,-0.062,-0.037,-0.427,-0.074,0.217,3.746,8.240,23.128
1747603812.23,0.111,-0.017,-0.030,-0.463,-0.160,0.234,3.277,8.071,23.448
1747603812.25,0.009,-0.034,-0.040,-0.503,-0.047,0.247,2.768,7.941,23.791
1747603812.27,0.001,-0.058,-0.009,-0.543,0.016,0.320,2.221,7.910,24.194
1747603812.29,0.022,0.015,-0.007,-0.541,0.040,0.354,1.664,7.915,24.689
1747603812.31,0.031,0.049,-0.010,-0.540,0.080,0.356,1.098,7.984,25.180
1747603812.33,0.036,-0.005,-0.043,-0.580,0.078,0.356,0.528,8.075,25.696
1747603812.35,0.029,-0.065,-0.008,-0.600,0.021,0.369,-0.085,8.127,26.215
1747603812.37,0.030,0.000,-0.023,-0.624,0.002,0.379,-0.724,8.140,26.750
1747603812.39,-0.035,0.056,-0.032,-0.594,-0.016,0.319,-1.351,8.157,27.271
1747603812.41,-0.157,0.065,-0.041,-0.553,0.025,0.199,-1.961,8.160,27.679
1747603812.43,-0.230,0.046,-0.051,-0.517,0.069,0.071,-2.543,8.223,27.913
1747603812.45,-0.161,0.036,-0.067,-0.501,0.077,-0.007,-3.113,8.321,28.047
1747603812.47,-0.124,-0.033,-0.015,-0.428,0.174,-0.124,-3.644,8.441,28.067
1747603812.49,-0.034,-0.107,-0.009,-0.451,0.209,-0.153,-4.158,8.682,27.991
1747603812.51,0.123,-0.034,-0.031,-0.570,0.132,-0.004,-4.746,8.873,27.993
1747603812.53,0.199,0.045,-0.060,-0.591,0.041,0.144,-5.389,8.970,28.218
1747603812.55,0.004,0.028,-0.011,-0.569,0.108,0.066,-6.031,9.075,28.472
1747603812.57,-0.125,-0.139,0.018,-0.578,0.198,-0.016,-6.654,9.251,28.622
1747603812.59,0.037,-0.120,-0.065,-0.684,0.123,0.066,-7.369,9.468,28.777
1747603812.61,0.155,0.040,-0.042,-0.721,0.069,0.137,-8.158,9.615,29.069
1747603812.63,0.099,0.041,0.044,-0.722,0.101,0.113,-8.956,9.741,29.370
1747603812.65,0.069,-0.047,-0.020,-0.755,0.170,0.106,-9.772,9.956,29.682
1747603812.67,-0.080,0.039,-0.108,-0.780,0.124,0.083,-10.622,10.158,29.996
1747603812.69,-0.170,0.165,-0.059,-0.736,0.168,-0.072,-11.478,10.362,30.216
1747603812.71,-0.173,0.103,-0.066,-0.700,0.193,-0.196,-12.309,10.548,30.250
1747603812.73,0.023,-0.031,-0.028,-0.752,0.191,-0.206,-13.151,10.761,30.199
1747603812.75,0.062,-0.010,-0.071,-0.757,0.085,-0.121,-14.048,10.900,30.229
1747603812.77,-0.036,0.079,0.000,-0.748,0.167,-0.171,-14.925,11.052,30.289
1747603812.79,-0.114,0.013,-0.016,-0.689,0.245,-0.276,-15.769,11.264,30.231
1747603812.81,-0.060,-0.139,0.017,-0.700,0.295,-0.323,-16.606,11.534,30.088
1747603812.83,0.006,-0.135,-0.012,-0.734,0.308,-0.265,-17.478,11.816,29.951
1747603812.85,0.066,-0.045,-0.011,-0.760,0.346,-0.186,-18.356,12.166,29.928
1747603812.87,0.067,-0.015,-0.032,-0.786,0.271,-0.154,-19.272,12.534,29.957
1747603812.89,0.038,-0.057,-0.014,-0.767,0.289,-0.149,-20.172,12.844,30.042
1747603812.91,0.006,-0.072,-0.052,-0.796,0.240,-0.186,-21.091,13.158,30.094
1747603812.93,-0.004,-0.057,-0.018,-0.852,0.369,-0.181,-22.048,13.515,30.154
1747603812.95,0.005,-0.010,-0.052,-0.940,0.276,-0.090,-23.083,13.927,30.287
1747603812.97,0.074,0.055,-0.006,-0.976,0.138,-0.067,-24.173,14.260,30.546
1747603812.99,0.035,0.067,-0.029,-0.945,0.003,-0.105,-25.249,14.417,30.784
1747603813.01,0.025,0.005,0.020,-0.951,0.115,-0.127,-26.327,14.510,30.985
1747603813.03,0.070,-0.051,-0.032,-1.042,0.137,-0.069,-27.455,14.772,31.221
1747603813.05,0.030,-0.063,-0.021,-1.056,0.081,0.021,-28.625,15.025,31.604
1747603813.07,-0.053,-0.030,-0.039,-1.025,0.051,-0.057,-29.775,15.280,32.008
1747603813.09,-0.069,-0.034,-0.001,-0.974,0.110,-0.153,-30.905,15.466,32.266
1747603813.11,-0.020,-0.015,-0.040,-0.991,0.099,-0.101,-32.026,15.705,32.506
1747603813.13,-0.049,0.032,0.007,-0.986,0.205,-0.091,-33.131,15.999,32.806
1747603813.15,-0.026,-0.012,-0.041,-0.968,0.154,-0.115,-34.234,16.341,33.085
1747603813.17,0.059,-0.073,-0.008,-1.019,0.078,-0.132,-35.355,16.612,33.349
1747603813.19,0.045,-0.054,0.016,-1.031,0.022,-0.101,-36.520,16.795,33.642
1747603813.21,-0.060,0.054,-0.033,-0.978,0.081,-0.090,-37.661,17.042,33.993
1747603813.23,-0.150,0.078,-0.048,-0.911,0.242,-0.189,-38.728,17.343,34.248
1747603813.25,-0.038,-0.090,-0.002,-0.938,0.297,-0.219,-39.808,17.738,34.401
1747603813.27,0.129,-0.145,0.058,-1.028,0.186,-0.095,-40.933,18.174,34.649
1747603813.29,0.184,0.005,0.021,-1.035,-0.071,0.019,-42.072,18.554,35.144
1747603813.31,0.039,0.189,-0.034,-0.984,-0.207,-0.106,-43.188,18.701,35.652
1747603813.33,-0.128,0.133,-0.087,-0.945,-0.073,-0.272,-44.289,18.630,35.876
1747603813.35,-0.141,-0.124,-0.045,-0.995,0.077,-0.341,-45.454,18.656,35.918
1747603813.37,0.039,-0.226,-0.004,-1.104,0.070,-0.219,-46.696,18.855,36.050
1747603813.39,0.132,-0.087,-0.016,-1.081,-0.140,-0.084,-47.943,19.077,36.436
1747603813.41,0.050,0.096,0.020,-1.005,-0.181,-0.115,-49.085,19.214,36.912
1747603813.43,-0.105,0.119,-0.081,-0.968,-0.222,-0.260,-50.223,19.174,37.174
1747603813.45,-0.094,-0.030,-0.073,-0.980,-0.102,-0.324,-51.372,19.035,37.251
1747603813.47,-0.011,-0.101,-0.019,-1.036,-0.010,-0.281,-52.578,19.020,37.320
1747603813.49,0.080,-0.060,0.054,-1.119,-0.006,-0.155,-53.826,19.248,37.622
1747603813.51,0.118,0.022,0.025,-1.145,-0.120,-0.100,-55.091,19.599,38.150
1747603813.53,0.137,0.063,0.028,-1.152,-0.170,-0.098,-56.356,19.939,38.772
1747603813.55,0.071,0.061,0.040,-1.182,-0.242,-0.157,-57.660,20.186,39.378
1747603813.57,-0.030,-0.001,0.027,-1.211,-0.259,-0.193,-59.010,20.345,39.921
1747603813.59,-0.026,-0.037,-0.027,-1.247,-0.238,-0.161,-60.398,20.577,40.556
1747603813.61,-0.011,-0.027,-0.000,-1.197,-0.237,-0.145,-61.779,20.918,41.284
1747603813.63,0.005,0.017,-0.023,-1.146,-0.287,-0.173,-63.086,21.225,41.984
1747603813.65,-0.034,0.002,-0.046,-1.085,-0.174,-0.251,-64.351,21.419,42.537
1747603813.67,-0.096,-0.059,-0.017,-1.066,-0.071,-0.263,-65.604,21.672,42.942
1747603813.69,-0.096,-0.108,-0.058,-1.021,-0.057,-0.205,-66.816,22.046,43.477
1747603813.71,-0.053,-0.075,-0.112,-0.978,0.058,-0.238,-67.968,22.542,44.015
1747603813.73,-0.079,0.011,-0.064,-0.957,0.121,-0.314,-69.097,22.992,44.416
1747603813.75,-0.108,0.060,-0.000,-0.941,0.165,-0.399,-70.258,23.253,44.584
1747603813.77,-0.005,-0.011,0.077,-0.970,0.277,-0.377,-71.451,23.588,44.642
1747603813.79,0.063,-0.059,-0.016,-1.007,0.199,-0.306,-72.614,24.138,44.980
1747603813.81,0.061,-0.033,-0.015,-0.935,0.065,-0.302,-73.800,24.840,45.569
1747603813.83,0.060,0.019,-0.018,-0.919,0.119,-0.349,-74.897,25.304,45.950
1747603813.85,-0.006,0.035,0.027,-0.895,0.230,-0.424,-76.013,25.637,46.129
1747603813.87,-0.067,0.021,0.158,-1.071,0.336,-0.450,-77.260,26.153,46.321
1747603813.89,-0.035,-0.002,0.027,-1.056,0.412,-0.393,-78.550,27.048,46.832
1747603813.91,0.046,-0.004,0.036,-0.979,0.347,-0.364,-79.803,28.443,47.798
1747603813.93,0.018,0.008,-0.010,-0.948,0.196,-0.365,-80.940,29.708,48.797
1747603813.95,-0.060,-0.037,-0.050,-0.916,0.287,-0.428,-82.088,30.946,49.814
1747603813.97,-0.022,-0.042,0.025,-0.939,0.379,-0.398,-83.264,32.587,51.075
1747603813.99,0.010,0.018,-0.016,-0.888,0.438,-0.419,-84.367,34.745,52.787
1747603814.01,0.039,-0.024,-0.044,-0.817,0.490,-0.374,-85.452,37.668,55.215
1747603814.03,0.116,-0.024,-0.101,-0.713,0.620,-0.239,-86.332,42.155,59.086
1747603814.05,0.038,-0.044,-0.104,-0.687,0.680,-0.180,-87.051,50.240,66.457
1747603814.07,-0.009,-0.060,-0.039,-0.658,0.691,-0.190,-87.653,62.341,77.789
1747603814.09,0.025,-0.008,-0.054,-0.596,0.501,-0.217,-88.110,79.578,94.353
1747603814.11,0.102,-0.003,-0.055,-0.474,0.453,-0.201,-88.366,99.880,114.147
1747603814.13,0.135,-0.015,0.005,-0.450,0.376,-0.155,-88.368,120.371,134.168
1747603814.15,0.068,0.006,-0.008,-0.404,0.226,-0.140,-88.201,136.914,150.368
1747603814.17,-0.003,-0.011,0.033,-0.425,-0.013,-0.103,-87.900,148.556,161.922
1747603814.19,-0.089,-0.032,0.037,-0.396,0.057,-0.136,-87.541,157.036,170.421
1747603814.21,-0.065,-0.022,-0.001,-0.340,0.222,-0.096,-87.187,163.113,176.333
1747603814.23,-0.037,0.040,-0.016,-0.186,0.334,-0.079,-86.924,166.913,179.789
1747603814.25,-0.011,0.019,-0.013,-0.085,0.159,-0.053,-86.787,169.094,-178.302
1747603814.27,0.059,-0.031,0.010,-0.080,0.124,-0.021,-86.710,170.288,-177.266
1747603814.28,0.041,-0.027,-0.004,-0.080,0.090,-0.024,-86.618,171.042,-176.635
1747603814.31,0.027,-0.002,0.009,-0.049,0.032,-0.020,-86.547,171.827,-175.933
1747603814.32,0.021,-0.000,0.054,-0.002,-0.081,0.003,-86.520,171.939,-175.780
1747603814.34,0.015,0.006,-0.017,0.029,-0.117,0.032,-86.544,171.439,-176.171
1747603814.36,-0.035,0.040,-0.010,-0.045,0.057,0.026,-86.529,170.621,-176.917
1747603814.38,-0.052,-0.017,0.072,-0.114,0.259,0.006,-86.430,170.614,-177.129
1747603814.40,-0.030,-0.026,0.025,-0.080,0.285,-0.031,-86.313,171.510,-176.549
1747603814.42,0.036,0.008,0.004,0.002,0.199,0.004,-86.271,172.151,-176.192
1747603814.44,0.046,0.031,-0.026,0.021,0.009,0.008,-86.293,172.113,-176.367
1747603814.46,0.004,-0.006,-0.029,0.047,-0.025,-0.013,-86.315,172.263,-176.170
1747603814.48,-0.039,-0.016,0.012,0.133,0.031,0.013,-86.413,172.174,-176.268
1747603814.50,-0.115,-0.011,0.038,0.085,0.141,-0.023,-86.559,171.941,-176.601
1747603814.52,-0.063,-0.007,0.037,0.023,0.206,-0.056,-86.614,172.833,-175.895
1747603814.54,0.092,0.002,0.043,0.068,0.262,0.013,-86.665,173.527,-175.496
1747603814.56,0.091,0.026,0.003,0.072,0.126,0.046,-86.751,172.867,-176.393
1747603814.58,-0.008,-0.004,-0.013,0.036,0.005,0.026,-86.805,171.997,-177.303
1747603814.60,-0.052,-0.026,0.043,0.014,0.078,-0.021,-86.823,172.079,-177.270
1747603814.62,-0.056,-0.025,0.012,0.106,0.145,-0.037,-86.890,172.675,-176.802
1747603814.64,-0.048,0.009,0.011,0.058,0.136,-0.028,-87.006,173.217,-176.436
1747603814.66,0.028,0.023,-0.035,0.055,0.058,0.026,-87.051,173.298,-176.463
1747603814.68,0.067,-0.005,-0.039,0.085,-0.039,0.053,-87.130,172.107,-177.660
1747603814.70,0.042,-0.005,0.016,0.132,-0.041,0.043,-87.233,170.633,-179.080
1747603814.72,-0.010,0.008,0.003,0.234,0.039,0.020,-87.433,169.179,179.460
1747603814.74,-0.067,0.016,0.023,0.183,0.072,0.007,-87.679,167.712,177.923
1747603814.76,-0.032,-0.017,0.013,0.167,0.164,0.018,-87.865,166.300,176.380
1747603814.78,0.009,-0.012,0.030,0.204,0.214,0.044,-88.058,163.852,173.713
1747603814.80,-0.017,0.007,0.033,0.199,0.162,0.058,-88.261,160.191,169.837
1747603814.82,-0.054,-0.016,0.034,0.167,0.110,0.022,-88.429,156.267,165.759
1747603814.84,-0.001,-0.009,-0.002,0.250,0.068,0.005,-88.634,152.502,161.878
1747603814.86,0.054,0.003,-0.014,0.318,-0.031,0.024,-88.903,143.945,153.289
1747603814.88,0.083,0.002,-0.042,0.330,-0.169,0.038,-89.140,127.534,136.996
1747603814.90,0.114,-0.055,0.013,0.258,-0.248,0.109,-89.214,102.968,112.678
1747603814.92,0.144,-0.054,0.016,0.308,-0.347,0.149,-89.075,81.447,91.472
1747603814.94,0.107,0.019,0.008,0.390,-0.503,0.171,-88.777,63.995,74.527
1747603814.96,0.059,0.029,0.014,0.477,-0.572,0.137,-88.353,50.218,61.358
1747603814.98,-0.069,0.034,0.021,0.522,-0.665,0.116,-87.849,40.568,52.418
1747603815.00,-0.212,-0.014,-0.018,0.613,-0.378,0.024,-87.272,32.302,44.775
1747603815.02,-0.233,-0.017,-0.035,0.695,-0.042,-0.035,-86.633,25.342,38.053
1747603815.04,-0.125,0.062,-0.086,0.824,0.260,-0.047,-85.830,19.447,32.008
1747603815.06,-0.024,0.085,-0.000,0.762,0.251,0.118,-84.969,16.692,28.934
1747603815.08,0.009,-0.046,0.069,0.736,0.506,0.200,-84.082,16.365,28.225
1747603815.10,0.025,-0.080,0.210,0.586,0.561,0.206,-83.303,17.203,28.363
1747603815.12,-0.006,-0.022,0.077,0.656,0.219,0.181,-82.572,17.670,28.404
1747603815.14,0.077,0.070,0.036,0.767,0.073,0.127,-81.744,17.294,27.879
1747603815.16,0.072,0.044,-0.008,0.880,-0.090,0.053,-80.803,16.159,26.723
1747603815.18,-0.024,0.009,0.011,0.821,-0.306,0.018,-79.842,14.558,25.292
1747603815.20,-0.061,-0.037,0.062,0.733,-0.273,0.063,-78.990,13.317,24.358
1747603815.22,-0.026,-0.052,0.018,0.723,-0.024,0.141,-78.147,12.751,23.906
1747603815.24,-0.013,-0.012,0.003,0.863,0.054,0.203,-77.241,12.799,23.887
1747603815.26,0.032,0.050,-0.011,0.922,0.122,0.167,-76.189,12.789,23.744
1747603815.28,0.113,-0.039,0.056,0.859,0.236,0.292,-75.113,13.048,23.767
1747603815.30,0.002,-0.088,0.002,0.826,0.227,0.317,-74.107,13.797,24.230
1747603815.32,-0.073,-0.021,0.004,0.854,0.315,0.267,-73.105,14.426,24.533
1747603815.34,-0.009,0.042,-0.010,1.002,0.255,0.226,-72.009,14.775,24.488
1747603815.36,0.077,0.033,-0.036,0.971,0.090,0.245,-70.824,14.864,24.340
1747603815.38,0.035,-0.032,0.023,0.942,0.057,0.216,-69.709,14.853,24.215
1747603815.40,-0.006,-0.103,0.024,0.932,0.135,0.332,-68.589,15.019,24.216
1747603815.42,-0.075,-0.017,-0.007,0.882,-0.001,0.376,-67.496,15.437,24.551
1747603815.44,0.018,0.042,-0.014,1.038,-0.042,0.232,-66.364,15.553,24.645
1747603815.46,0.035,0.018,-0.071,1.155,-0.020,0.138,-65.081,15.163,24.244
1747603815.48,-0.083,-0.037,-0.047,1.069,0.224,0.191,-63.794,14.919,23.818
1747603815.50,-0.187,-0.063,0.074,0.838,0.555,0.341,-62.690,15.365,23.777
1747603815.52,0.055,-0.040,0.072,0.788,0.575,0.492,-61.684,16.476,24.187
1747603815.54,0.292,-0.034,-0.055,0.959,-0.052,0.545,-60.561,17.351,24.750
1747603815.56,0.323,-0.027,-0.080,1.085,-0.567,0.413,-59.254,17.259,25.073
1747603815.58,0.134,-0.005,0.036,1.019,-0.437,0.259,-57.969,16.637,25.003
1747603815.60,-0.215,0.023,0.014,0.834,-0.177,0.235,-56.891,16.214,24.869
1747603815.62,-0.111,-0.037,0.028,0.883,0.135,0.426,-55.878,16.369,24.987
1747603815.64,0.043,-0.040,-0.094,1.038,-0.108,0.456,-54.661,16.672,25.244
1747603815.66,0.042,-0.016,-0.056,1.105,-0.125,0.287,-53.353,16.588,25.308
1747603815.68,-0.094,-0.020,0.075,0.997,0.109,0.211,-52.111,16.446,25.089
1747603815.70,-0.162,-0.003,0.023,0.757,0.179,0.323,-51.095,16.612,25.020
1747603815.72,0.115,0.016,0.026,0.797,0.034,0.451,-50.127,16.982,25.256
1747603815.74,0.184,0.075,-0.014,0.975,-0.381,0.441,-49.020,17.050,25.533
1747603815.76,-0.040,0.079,0.003,1.174,-0.278,0.198,-47.716,16.606,25.461
1747603815.78,-0.221,0.031,0.026,1.091,-0.035,0.021,-46.421,16.156,25.025
1747603815.80,-0.132,-0.053,-0.003,0.936,0.206,0.110,-45.302,15.970,24.610
1747603815.82,0.079,-0.016,0.022,0.939,0.066,0.230,-44.233,16.070,24.422
1747603815.84,0.005,0.067,-0.000,1.007,-0.070,0.271,-43.087,16.048,24.362
1747603815.86,-0.068,0.108,0.049,1.118,-0.004,0.100,-41.845,15.898,24.163
1747603815.88,-0.015,0.060,0.003,1.004,0.037,-0.029,-40.660,15.623,23.695
1747603815.90,0.142,-0.005,-0.031,0.848,-0.007,-0.057,-39.673,15.389,23.212
1747603815.92,0.208,-0.028,0.054,0.899,-0.191,0.182,-38.692,15.114,22.910
1747603815.94,0.041,-0.004,-0.035,0.942,-0.404,0.243,-37.616,14.755,22.838
1747603815.96,0.000,0.037,0.091,1.058,-0.264,0.162,-36.437,14.302,22.722
1747603815.98,-0.027,0.021,-0.044,0.889,-0.117,0.013,-35.321,13.967,22.431
1747603816.00,0.048,-0.111,-0.009,0.793,-0.049,0.255,-34.359,13.803,22.263
1747603816.02,0.141,-0.035,-0.011,0.769,-0.178,0.451,-33.403,13.828,22.481
1747603816.04,0.032,0.113,-0.031,0.830,-0.313,0.387,-32.406,13.700,22.768
1747603816.06,-0.020,0.071,0.071,0.957,-0.258,0.199,-31.316,13.414,22.823
1747603816.08,0.005,-0.062,-0.028,0.849,-0.304,0.136,-30.280,13.060,22.704
1747603816.10,0.068,-0.118,0.002,0.756,-0.230,0.287,-29.326,12.759,22.699
1747603816.12,0.161,0.000,0.005,0.765,-0.321,0.398,-28.408,12.570,22.912
1747603816.14,0.056,0.077,0.002,0.855,-0.444,0.310,-27.418,12.246,23.096
1747603816.16,-0.035,-0.020,-0.007,0.941,-0.382,0.158,-26.359,11.786,23.141
1747603816.18,-0.086,-0.165,-0.002,0.862,-0.244,0.180,-25.305,11.386,23.078
1747603816.20,-0.010,-0.071,0.002,0.803,-0.110,0.200,-24.325,11.195,23.093
1747603816.22,0.094,0.104,-0.028,0.734,-0.205,0.321,-23.423,11.091,23.202
1747603816.24,0.091,0.094,0.004,0.808,-0.232,0.301,-22.492,10.929,23.398
1747603816.26,-0.080,0.009,0.018,0.867,-0.257,0.257,-21.494,10.690,23.507
1747603816.28,-0.056,-0.084,0.024,0.952,-0.208,0.231,-20.408,10.465,23.584
1747603816.30,-0.048,0.001,-0.004,0.912,-0.212,0.158,-19.329,10.234,23.595
1747603816.32,-0.145,0.050,0.012,1.003,-0.116,0.074,-18.240,10.031,23.523
1747603816.34,-0.161,-0.022,-0.031,0.959,0.049,0.072,-17.107,9.949,23.383
1747603816.36,-0.010,-0.113,-0.007,0.990,0.036,0.081,-16.011,9.981,23.278
1747603816.38,0.034,-0.068,0.017,1.026,-0.093,0.037,-14.879,9.927,23.136
1747603816.40,-0.003,0.002,0.056,1.106,-0.087,0.019,-13.641,9.752,22.967
1747603816.42,-0.001,0.078,-0.036,1.022,-0.062,0.001,-12.452,9.627,22.754
1747603816.44,-0.075,0.051,-0.047,0.962,0.009,0.022,-11.341,9.562,22.575
1747603816.46,0.001,0.007,0.008,0.987,-0.036,0.003,-10.237,9.537,22.388
1747603816.48,0.134,-0.017,0.006,0.956,-0.220,0.066,-9.132,9.356,22.241
1747603816.50,0.018,0.067,-0.018,0.920,-0.230,0.062,-8.076,9.067,22.131
1747603816.52,-0.150,0.052,-0.021,0.917,0.089,0.041,-7.011,8.941,22.017
1747603816.54,-0.158,0.024,-0.091,0.877,0.249,-0.059,-6.004,9.158,21.821
1747603816.56,0.024,-0.065,-0.078,0.864,0.060,-0.145,-5.055,9.332,21.552
1747603816.58,0.074,0.006,-0.009,0.891,-0.215,-0.232,-4.094,9.205,21.142
1747603816.60,-0.064,0.135,0.026,0.911,-0.276,-0.168,-3.117,8.862,20.735
1747603816.62,-0.102,0.124,-0.022,0.914,-0.066,-0.152,-2.114,8.648,20.384
1747603816.64,-0.035,-0.000,-0.049,0.885,0.103,-0.216,-1.126,8.668,20.015
1747603816.66,0.087,-0.139,-0.123,0.835,0.025,-0.222,-0.195,8.750,19.572
1747603816.68,0.137,-0.162,-0.020,0.777,-0.085,-0.138,0.674,8.720,19.221
1747603816.70,0.041,0.111,0.050,0.743,-0.095,-0.088,1.505,8.602,18.943
1747603816.72,0.011,0.113,0.036,0.709,0.092,-0.057,2.315,8.607,18.707
1747603816.74,0.109,-0.047,-0.096,0.628,0.056,0.019,3.080,8.719,18.555
1747603816.76,0.120,-0.117,-0.085,0.551,0.043,0.073,3.755,8.780,18.481
1747603816.78,0.045,-0.021,-0.067,0.439,-0.019,0.095,4.325,8.794,18.474
1747603816.80,0.089,0.015,-0.054,0.373,-0.100,0.094,4.796,8.727,18.501
1747603816.82,0.057,0.034,-0.066,0.344,-0.132,0.084,5.222,8.584,18.526
1747603816.84,-0.012,-0.032,-0.098,0.297,-0.097,0.085,5.599,8.439,18.560
1747603816.86,-0.015,-0.055,-0.057,0.229,-0.051,0.064,5.904,8.353,18.590
1747603816.88,0.012,-0.029,-0.032,0.174,-0.064,0.087,6.149,8.297,18.623
1747603816.90,0.097,0.018,-0.086,0.137,-0.159,0.121,6.335,8.156,18.693
1747603816.92,0.046,0.015,-0.053,0.102,-0.143,0.127,6.492,7.963,18.807
1747603816.94,-0.000,-0.043,0.013,0.075,-0.081,0.146,6.615,7.824,18.935
1747603816.96,0.070,-0.045,-0.001,0.065,-0.120,0.185,6.716,7.689,19.110
1747603816.98,0.072,0.008,0.001,0.089,-0.103,0.203,6.834,7.539,19.311
1747603817.00,0.028,-0.022,-0.010,0.033,-0.091,0.296,6.945,7.402,19.560
1747603817.02,0.121,-0.134,0.007,-0.052,-0.100,0.432,6.981,7.243,19.989
1747603817.04,0.208,-0.167,0.053,-0.060,-0.031,0.454,6.980,7.111,20.487
1747603817.06,0.165,-0.062,0.010,-0.114,-0.066,0.534,6.948,6.987,21.046
1747603817.08,0.013,0.017,-0.024,-0.169,-0.053,0.661,6.881,6.832,21.719
1747603817.10,-0.077,0.008,-0.072,-0.238,0.041,0.774,6.738,6.711,22.574
1747603817.12,-0.079,-0.030,0.001,-0.181,0.217,0.660,6.592,6.774,23.434
1747603817.14,-0.083,0.063,-0.012,-0.128,0.196,0.533,6.497,6.936,24.129
1747603817.16,-0.035,0.073,-0.083,-0.125,0.071,0.473,6.424,7.035,24.713
1747603817.18,0.039,0.053,-0.037,-0.188,0.009,0.524,6.321,6.989,25.295
1747603817.20,0.069,-0.025,-0.037,-0.226,0.076,0.609,6.163,6.963,25.976
1747603817.22,-0.027,-0.031,-0.027,-0.232,0.213,0.589,5.983,7.048,26.695
1747603817.24,0.008,0.020,0.009,-0.220,0.211,0.547,5.812,7.238,27.343
1747603817.26,0.067,0.045,-0.019,-0.254,0.096,0.632,5.633,7.344,28.037
1747603817.28,0.001,0.039,-0.021,-0.261,0.182,0.676,5.439,7.420,28.830
1747603817.30,-0.037,0.034,-0.027,-0.233,0.397,0.601,5.262,7.686,29.586
1747603817.32,-0.001,0.019,-0.025,-0.275,0.302,0.575,5.077,8.041,30.250
1747603817.34,0.104,-0.039,-0.003,-0.316,0.193,0.694,4.830,8.258,31.028
1747603817.36,-0.033,0.041,-0.035,-0.288,0.232,0.658,4.603,8.412,31.864
1747603817.37,-0.123,0.070,-0.039,-0.239,0.334,0.463,4.398,8.694,32.553
1747603817.39,-0.008,0.032,-0.063,-0.273,0.170,0.390,4.189,8.970,33.066
1747603817.41,0.006,-0.017,-0.074,-0.217,0.102,0.358,3.977,9.074,33.572
1747603817.44,-0.094,0.082,-0.062,-0.142,0.017,0.105,3.829,9.151,33.877
1747603817.46,-0.044,0.065,-0.059,-0.166,-0.074,0.032,3.668,9.105,33.967
1747603817.47,-0.064,-0.007,-0.066,-0.161,-0.092,0.008,3.485,8.988,34.023
1747603817.49,0.071,-0.090,0.057,-0.157,-0.044,0.032,3.313,8.905,34.090
1747603817.51,0.132,-0.051,0.005,-0.151,-0.062,0.032,3.145,8.841,34.155
1747603817.53,-0.056,0.049,-0.046,-0.212,0.075,0.045,2.956,8.833,34.230
1747603817.55,0.040,0.019,-0.066,-0.284,0.111,0.143,2.677,8.938,34.391
1747603817.57,0.144,-0.044,-0.005,-0.271,0.014,0.044,2.383,9.010,34.582
1747603817.59,0.057,-0.058,-0.082,-0.314,-0.089,-0.192,2.046,8.958,34.571
1747603817.61,-0.068,0.014,-0.147,-0.367,-0.117,-0.361,1.634,8.844,34.320
1747603817.63,0.004,0.087,-0.126,-0.488,-0.214,-0.203,1.088,8.648,34.088
1747603817.65,0.078,0.039,-0.055,-0.543,-0.225,-0.136,0.484,8.401,34.002
1747603817.67,0.059,-0.082,-0.091,-0.615,-0.353,-0.085,-0.198,8.061,33.998
1747603817.69,-0.188,-0.085,-0.056,-0.645,-0.209,-0.102,-0.916,7.714,33.991
1747603817.71,-0.151,-0.033,-0.041,-0.726,0.116,-0.038,-1.708,7.655,34.032
1747603817.73,0.058,0.041,-0.129,-0.826,0.222,0.038,-2.576,7.893,34.176
1747603817.75,0.060,0.079,-0.158,-0.859,0.179,0.027,-3.532,8.117,34.413
1747603817.77,-0.089,0.047,-0.091,-0.880,0.077,-0.163,-4.533,8.268,34.513
1747603817.79,-0.158,-0.126,-0.020,-0.909,0.138,-0.243,-5.559,8.364,34.445
1747603817.81,0.065,-0.127,-0.097,-1.038,0.242,-0.084,-6.703,8.596,34.468
1747603817.83,0.164,0.084,-0.080,-1.097,0.193,0.002,-7.910,8.884,34.661
1747603817.85,0.043,0.178,-0.045,-1.088,0.129,-0.062,-9.148,9.052,34.889
1747603817.87,-0.118,0.016,0.022,-1.032,0.296,-0.218,-10.371,9.304,34.963
1747603817.89,-0.166,-0.119,-0.038,-1.127,0.311,-0.247,-11.629,9.659,34.917
1747603817.91,-0.037,-0.056,-0.075,-1.120,0.413,-0.108,-12.939,10.084,35.004
1747603817.93,-0.076,0.133,-0.031,-1.083,0.431,-0.251,-14.212,10.573,35.096
1747603817.95,-0.143,0.089,0.015,-1.016,0.601,-0.332,-15.449,11.100,35.029
1747603817.97,-0.126,-0.027,-0.076,-1.076,0.769,-0.360,-16.690,11.883,34.912
1747603817.99,-0.105,-0.070,-0.100,-1.071,0.784,-0.330,-17.973,12.717,34.835
1747603818.01,-0.007,-0.072,-0.021,-1.111,0.733,-0.443,-19.289,13.546,34.742
1747603818.03,0.071,-0.110,0.047,-1.119,0.634,-0.493,-20.646,14.244,34.546
1747603818.05,0.142,-0.128,-0.001,-1.134,0.596,-0.388,-22.027,14.879,34.423
1747603818.07,0.119,-0.064,0.053,-1.149,0.582,-0.287,-23.379,15.530,34.453
1747603818.09,0.043,0.020,0.022,-1.167,0.546,-0.261,-24.740,16.198,34.584
1747603818.11,0.047,0.025,-0.012,-1.164,0.484,-0.293,-26.095,16.845,34.734
1747603818.13,0.066,-0.057,-0.014,-1.202,0.348,-0.354,-27.486,17.323,34.839
1747603818.15,0.060,-0.132,-0.029,-1.257,0.260,-0.353,-28.955,17.692,34.929
1747603818.17,0.062,-0.098,0.000,-1.236,0.192,-0.256,-30.430,17.996,35.106
1747603818.19,0.030,0.025,-0.004,-1.212,0.111,-0.231,-31.835,18.294,35.370
1747603818.21,-0.083,0.043,0.016,-1.212,0.169,-0.293,-33.246,18.544,35.600
1747603818.23,-0.095,-0.032,-0.039,-1.224,0.167,-0.347,-34.680,18.832,35.768
1747603818.25,0.004,-0.045,-0.026,-1.213,0.188,-0.429,-36.136,19.070,35.858
1747603818.27,-0.023,-0.032,-0.044,-1.166,0.236,-0.418,-37.585,19.251,35.885
1747603818.29,-0.075,-0.039,0.019,-1.207,0.364,-0.397,-39.020,19.628,35.927
1747603818.31,-0.009,-0.041,0.015,-1.265,0.341,-0.344,-40.488,20.109,36.077
1747603818.33,0.104,0.009,-0.025,-1.249,0.133,-0.346,-41.978,20.531,36.311
1747603818.35,0.079,0.047,-0.009,-1.252,-0.132,-0.384,-43.463,20.639,36.518
1747603818.37,0.014,-0.007,-0.016,-1.230,-0.281,-0.415,-44.944,20.442,36.657
1747603818.39,-0.011,-0.086,-0.001,-1.229,-0.215,-0.427,-46.429,20.188,36.757
1747603818.41,-0.019,-0.095,-0.024,-1.262,-0.100,-0.372,-47.930,20.074,36.860
1747603818.43,-0.071,-0.042,0.011,-1.226,0.030,-0.312,-49.391,20.145,37.055
1747603818.45,-0.028,0.009,-0.009,-1.243,0.024,-0.276,-50.825,20.412,37.350
1747603818.47,0.039,0.023,-0.003,-1.243,0.037,-0.323,-52.291,20.713,37.668
1747603818.49,0.036,-0.010,-0.032,-1.199,-0.048,-0.360,-53.733,20.833,37.894
1747603818.51,0.031,-0.063,0.015,-1.223,-0.039,-0.373,-55.173,20.929,38.083
1747603818.53,-0.008,-0.053,-0.005,-1.275,0.027,-0.338,-56.648,21.133,38.357
1747603818.55,-0.022,0.006,0.012,-1.299,0.055,-0.337,-58.160,21.456,38.710
1747603818.57,0.008,0.064,0.011,-1.234,-0.032,-0.391,-59.661,21.731,39.017
1747603818.59,-0.006,0.033,-0.007,-1.178,-0.016,-0.432,-61.115,21.804,39.186
1747603818.61,-0.056,-0.041,0.017,-1.191,0.120,-0.463,-62.558,21.905,39.244
1747603818.63,-0.078,-0.063,-0.013,-1.247,0.221,-0.476,-64.045,22.144,39.322
1747603818.65,-0.004,-0.044,0.021,-1.214,0.262,-0.470,-65.569,22.518,39.423
1747603818.67,0.063,-0.013,-0.001,-1.190,0.276,-0.421,-67.013,22.947,39.603
1747603818.69,0.059,-0.019,-0.024,-1.154,0.193,-0.449,-68.456,23.409,39.831
1747603818.71,0.042,-0.036,-0.024,-1.107,0.255,-0.438,-69.830,23.760,39.982
1747603818.73,0.025,-0.056,0.043,-1.199,0.219,-0.394,-71.235,24.349,40.320
1747603818.75,0.030,-0.050,-0.044,-1.176,0.104,-0.413,-72.654,25.009,40.844
1747603818.77,0.093,-0.014,-0.012,-1.132,0.073,-0.450,-74.055,25.488,41.260
1747603818.79,0.109,-0.014,-0.038,-1.050,-0.041,-0.385,-75.389,25.879,41.697
1747603818.81,0.049,-0.035,-0.031,-1.003,-0.082,-0.326,-76.619,26.452,42.352
1747603818.83,-0.054,-0.062,-0.004,-1.046,-0.133,-0.303,-77.814,27.266,43.375
1747603818.85,-0.098,-0.066,-0.075,-1.037,0.052,-0.440,-79.045,28.015,44.239
1747603818.87,-0.007,-0.043,0.045,-1.035,0.258,-0.377,-80.336,29.067,45.087
1747603818.89,0.038,0.057,-0.079,-0.912,0.194,-0.315,-81.487,30.660,46.510
1747603818.91,0.003,0.048,0.022,-0.888,0.296,-0.298,-82.533,32.606,48.186
1747603818.93,-0.051,-0.049,0.003,-0.895,0.372,-0.317,-83.564,35.264,50.494
1747603818.95,0.011,-0.075,-0.051,-0.843,0.346,-0.330,-84.592,38.580,53.431
1747603818.97,0.100,0.016,-0.034,-0.830,0.301,-0.316,-85.567,43.106,57.622
1747603818.99,0.069,0.027,-0.063,-0.665,0.241,-0.289,-86.410,48.589,62.830
1747603819.01,0.001,0.018,0.010,-0.703,0.271,-0.250,-87.131,56.498,70.468
1747603819.03,-0.074,-0.006,-0.003,-0.600,0.472,-0.223,-87.718,69.306,82.916
1747603819.05,-0.054,-0.069,0.042,-0.573,0.859,-0.215,-88.108,85.991,98.844
1747603819.07,-0.012,-0.026,0.005,-0.558,0.642,-0.175,-88.245,108.645,120.610
1747603819.09,0.030,0.005,-0.017,-0.492,0.379,-0.179,-88.138,128.862,140.305
1747603819.11,0.080,-0.032,-0.006,-0.354,0.283,-0.148,-87.909,143.100,154.167
1747603819.13,0.112,0.000,-0.067,-0.243,0.171,-0.140,-87.716,151.569,162.398
1747603819.15,0.090,0.027,-0.053,-0.125,-0.107,-0.089,-87.580,157.019,167.776
1747603819.17,-0.014,-0.012,0.015,-0.111,-0.367,-0.023,-87.503,158.753,169.815
1747603819.19,-0.133,-0.017,0.064,-0.160,-0.272,-0.107,-87.361,161.287,172.748
1747603819.21,-0.091,-0.020,0.028,-0.140,0.052,-0.097,-87.237,164.533,176.142
1747603819.23,0.009,0.016,0.062,-0.134,0.411,-0.065,-87.105,167.640,178.951
1747603819.25,-0.009,0.034,0.015,-0.130,0.221,-0.034,-86.972,169.373,-179.694
1747603819.27,-0.085,0.003,-0.004,-0.146,0.181,-0.098,-86.823,171.480,-177.775
1747603819.29,-0.000,-0.027,0.008,-0.123,0.406,-0.083,-86.688,174.146,-175.447
1747603819.31,0.065,-0.006,0.028,-0.147,0.341,-0.021,-86.533,175.777,-174.278
1747603819.33,0.054,-0.018,0.008,-0.112,-0.065,0.014,-86.383,176.086,-174.142
1747603819.35,0.008,0.001,-0.015,-0.014,-0.225,-0.024,-86.305,175.930,-174.084
1747603819.37,-0.063,0.003,-0.015,0.078,-0.065,-0.038,-86.342,176.361,-173.461
1747603819.39,-0.064,-0.006,0.007,0.029,0.120,-0.012,-86.414,176.730,-173.139
1747603819.41,-0.013,0.017,-0.015,-0.046,0.154,0.005,-86.402,176.935,-173.105
1747603819.43,0.059,-0.010,0.011,-0.035,0.013,0.062,-86.346,176.455,-173.700
1747603819.45,0.029,0.000,0.005,-0.031,-0.053,0.045,-86.307,175.371,-174.736
1747603819.47,-0.018,-0.008,0.000,0.004,0.069,0.004,-86.295,175.107,-175.003
1747603819.49,0.007,-0.027,0.020,0.044,0.095,-0.006,-86.317,175.271,-174.955
1747603819.51,0.047,0.001,-0.033,0.095,-0.055,0.027,-86.411,174.966,-175.281
1747603819.53,0.029,0.020,0.028,-0.022,-0.190,0.060,-86.447,173.762,-176.334
1747603819.55,-0.027,-0.004,0.030,-0.013,-0.130,0.008,-86.411,173.037,-176.872
1747603819.57,-0.041,-0.009,0.026,0.067,-0.005,-0.027,-86.442,173.215,-176.625
1747603819.59,-0.034,-0.014,0.059,-0.004,0.052,0.009,-86.490,173.259,-176.607
1747603819.61,-0.074,-0.009,0.066,-0.073,-0.028,-0.009,-86.436,173.135,-176.749
1747603819.63,-0.025,0.013,0.022,0.017,0.121,-0.026,-86.389,173.776,-176.142
1747603819.65,-0.024,0.013,0.017,0.069,0.252,0.003,-86.448,174.179,-175.971
1747603819.67,-0.039,0.011,-0.062,0.109,0.232,0.006,-86.528,174.312,-176.125
1747603819.69,0.003,-0.003,-0.058,0.167,0.207,0.038,-86.692,174.120,-176.566
1747603819.71,0.037,-0.035,-0.025,0.215,0.073,0.042,-86.879,172.904,-177.940
1747603819.73,0.039,0.015,-0.080,0.304,0.170,0.010,-87.182,171.981,-178.971
1747603819.75,0.046,0.014,-0.003,0.197,0.166,0.047,-87.480,170.519,179.326
1747603819.77,0.035,-0.029,0.028,0.115,0.024,0.028,-87.630,168.736,177.448
1747603819.79,0.091,-0.006,0.043,0.110,0.008,0.020,-87.759,167.477,176.176
1747603819.81,0.066,-0.027,0.069,0.156,-0.083,0.020,-87.897,165.665,174.383
1747603819.83,-0.024,0.013,-0.041,0.208,-0.243,-0.045,-88.100,164.128,173.050
1747603819.85,0.013,0.040,-0.087,0.274,-0.163,-0.028,-88.382,162.962,172.134
1747603819.87,0.043,0.031,-0.043,0.378,-0.122,0.048,-88.711,157.222,166.551
1747603819.89,-0.037,-0.004,0.058,0.373,0.048,0.081,-89.074,141.601,150.965
1747603819.91,-0.143,-0.025,0.098,0.303,0.019,0.064,-89.235,118.131,127.457
1747603819.93,-0.085,-0.009,0.067,0.284,0.201,0.036,-89.283,91.568,100.779
1747603819.95,0.068,-0.030,0.115,0.305,0.294,0.059,-89.163,68.686,77.564
1747603819.97,0.078,0.003,-0.040,0.441,-0.027,-0.011,-88.911,48.384,57.104
1747603819.99,0.120,0.044,-0.025,0.491,-0.194,0.039,-88.494,32.490,41.346
1747603820.01,0.050,0.007,-0.008,0.491,-0.335,0.088,-87.964,25.781,34.949
1747603820.03,-0.063,-0.038,0.001,0.528,-0.136,0.065,-87.400,21.746,31.211
1747603820.05,-0.029,-0.054,0.035,0.564,0.013,0.063,-86.797,18.766,28.266
1747603820.07,0.028,-0.021,-0.045,0.767,-0.169,0.089,-86.060,16.400,25.971
1747603820.09,0.106,-0.003,-0.047,0.843,-0.171,0.172,-85.105,14.709,24.487
1747603820.11,0.033,0.017,-0.022,0.833,-0.174,0.192,-84.125,14.206,24.192
1747603820.13,-0.119,0.012,0.065,0.835,0.017,0.146,-83.155,13.718,23.813
1747603820.15,-0.188,-0.020,0.098,0.850,0.242,0.139,-82.181,13.355,23.280
1747603820.17,-0.123,-0.010,-0.000,0.939,0.353,0.134,-81.151,13.154,22.716
1747603820.19,0.020,0.059,-0.032,0.962,0.301,0.153,-80.054,12.982,22.189
1747603820.21,0.059,0.014,0.097,0.863,0.243,0.180,-78.994,13.062,21.893
1747603820.23,-0.023,-0.055,0.072,0.823,0.217,0.207,-78.007,13.298,21.857
1747603820.25,0.004,0.013,0.050,0.830,0.079,0.234,-77.043,13.636,22.012
1747603820.27,0.048,0.043,-0.005,1.041,-0.231,0.181,-75.958,13.483,21.923
1747603820.29,0.055,0.032,-0.011,0.987,-0.251,0.108,-74.737,12.736,21.451
1747603820.31,-0.019,-0.047,0.041,0.815,-0.067,0.159,-73.739,12.255,21.080
1747603820.33,-0.086,-0.080,-0.043,0.665,-0.021,0.303,-72.852,12.449,21.321
1747603820.35,0.067,-0.028,0.072,0.839,0.108,0.392,-71.967,13.214,21.972
1747603820.37,0.164,0.022,-0.076,1.085,-0.158,0.327,-70.782,13.625,22.446
1747603820.39,0.030,-0.008,-0.056,1.125,-0.068,0.206,-69.437,13.461,22.373
1747603820.41,-0.259,-0.014,-0.049,0.863,0.121,0.145,-68.312,13.261,22.118
1747603820.43,-0.226,-0.060,0.009,0.745,0.492,0.294,-67.360,13.687,22.161
1747603820.45,0.052,-0.036,0.092,0.815,0.595,0.413,-66.446,14.809,22.621
1747603820.47,0.198,-0.039,-0.066,1.090,0.101,0.342,-65.260,15.529,22.899
1747603820.48,0.130,-0.057,-0.080,0.956,-0.109,0.269,-63.995,15.506,22.884
1747603820.50,0.023,-0.050,0.003,0.656,-0.143,0.281,-63.053,15.447,22.964
1747603820.52,0.102,-0.033,0.002,0.668,-0.080,0.414,-62.238,15.687,23.332
1747603820.54,0.170,0.021,-0.020,0.915,-0.344,0.433,-61.229,15.913,23.816
1747603820.56,0.036,0.042,-0.115,1.068,-0.474,0.238,-60.020,15.528,23.902
1747603820.58,-0.169,-0.006,-0.032,0.966,-0.295,0.141,-58.854,14.876,23.656
1747603820.60,-0.135,-0.081,0.074,0.834,0.242,0.258,-57.785,14.720,23.507
1747603820.62,-0.072,-0.049,0.032,0.659,0.373,0.401,-56.869,15.390,23.753
1747603820.64,-0.056,0.017,-0.004,0.740,0.135,0.431,-56.002,16.081,24.208
1747603820.66,-0.010,0.066,-0.077,0.978,-0.073,0.258,-54.946,16.282,24.381
1747603820.68,-0.090,0.092,-0.035,1.093,-0.174,0.017,-53.746,15.845,24.020
1747603820.70,-0.143,0.051,0.083,1.008,0.121,-0.037,-52.593,15.330,23.382
1747603820.72,-0.028,-0.017,0.064,0.886,0.292,0.063,-51.554,15.229,22.903
1747603820.74,0.074,-0.034,-0.013,0.852,0.165,0.162,-50.579,15.385,22.654
1747603820.76,0.012,-0.027,-0.040,0.924,0.025,0.231,-49.542,15.395,22.558
1747603820.78,-0.053,0.062,0.028,0.982,0.116,0.125,-48.423,15.379,22.395
1747603820.80,-0.038,0.120,0.107,0.865,0.315,0.105,-47.357,15.413,22.069
1747603820.82,0.139,0.064,0.087,0.648,0.203,0.309,-46.488,15.755,22.036
1747603820.84,0.258,-0.036,-0.070,0.740,-0.184,0.411,-45.623,15.970,22.283
1747603820.86,0.063,-0.049,-0.068,0.840,-0.436,0.341,-44.626,15.777,22.477
1747603820.88,-0.134,0.040,-0.001,0.920,-0.209,0.074,-43.588,15.326,22.375
1747603820.90,-0.036,0.032,0.122,0.861,0.233,0.023,-42.579,15.130,21.980
1747603820.92,0.158,-0.038,0.042,0.667,0.192,0.275,-41.691,15.342,21.837
1747603820.94,0.234,-0.011,-0.028,0.616,-0.107,0.388,-40.904,15.566,22.059
1747603820.96,0.082,0.056,-0.047,0.749,-0.288,0.304,-40.034,15.480,22.258
1747603820.98,-0.056,0.065,0.002,0.819,-0.203,0.143,-39.100,15.186,22.230
1747603821.00,-0.022,0.026,0.105,0.897,-0.042,0.146,-38.112,14.960,22.058
1747603821.02,0.083,-0.024,0.013,0.854,-0.106,0.204,-37.093,14.854,21.971
1747603821.04,0.068,-0.076,-0.123,0.855,-0.241,0.137,-36.103,14.610,21.876
1747603821.06,-0.118,-0.127,-0.064,0.891,-0.239,0.071,-35.112,14.229,21.686
1747603821.08,-0.199,-0.076,0.025,0.936,-0.060,-0.047,-34.094,13.889,21.359
1747603821.10,-0.008,0.013,0.107,0.932,-0.089,-0.035,-33.075,13.631,20.951
1747603821.12,0.243,0.074,0.001,0.919,-0.327,0.091,-32.046,13.257,20.661
1747603821.14,0.158,0.033,-0.076,0.877,-0.385,0.185,-31.003,12.780,20.552
1747603821.16,-0.110,-0.068,-0.019,0.919,-0.247,0.148,-29.968,12.378,20.497
1747603821.18,-0.106,-0.134,0.044,0.973,-0.022,0.033,-28.885,12.173,20.333
1747603821.20,0.050,-0.099,0.065,0.959,-0.194,0.014,-27.792,11.966,20.060
1747603821.22,0.280,-0.001,0.015,0.907,-0.537,0.183,-26.737,11.491,19.907
1747603821.24,0.209,0.041,0.004,0.920,-0.533,0.325,-25.651,10.894,19.992
1747603821.26,-0.093,0.028,-0.011,0.839,-0.290,0.339,-24.604,10.495,20.161
1747603821.28,-0.121,-0.068,0.024,0.919,-0.041,0.348,-23.540,10.429,20.370
1747603821.30,0.021,-0.048,0.017,0.966,-0.210,0.306,-22.404,10.384,20.523
1747603821.32,-0.004,0.027,-0.009,1.017,-0.401,0.247,-21.238,10.066,20.613
1747603821.34,-0.104,0.068,-0.030,0.945,-0.326,0.182,-20.078,9.652,20.624
1747603821.36,-0.082,-0.024,-0.008,0.835,-0.129,0.248,-19.042,9.409,20.676
1747603821.38,-0.036,-0.020,-0.006,0.837,-0.177,0.221,-18.059,9.302,20.773
1747603821.40,-0.072,0.020,0.011,0.886,-0.203,0.127,-17.071,9.075,20.808
1747603821.42,-0.060,-0.003,0.017,0.975,-0.146,0.038,-15.988,8.864,20.705
1747603821.44,-0.065,-0.028,-0.025,0.928,0.016,0.046,-14.896,8.735,20.556
1747603821.46,-0.084,-0.038,-0.121,0.778,0.123,0.102,-13.923,8.807,20.481
1747603821.48,0.036,0.020,-0.032,0.784,0.182,0.130,-13.039,9.007,20.499
1747603821.50,0.058,0.168,0.014,0.824,-0.019,0.076,-12.115,9.095,20.470
1747603821.52,-0.004,0.059,0.029,0.832,-0.150,0.059,-11.163,8.970,20.391
1747603821.54,0.013,-0.007,-0.092,0.812,-0.200,0.049,-10.224,8.739,20.311
1747603821.56,-0.013,-0.027,-0.082,0.772,-0.048,0.052,-9.318,8.586,20.223
1747603821.58,-0.017,0.010,-0.042,0.716,0.033,0.110,-8.454,8.575,20.185
1747603821.60,0.027,0.141,0.014,0.693,0.035,0.084,-7.649,8.624,20.154
1747603821.62,0.033,0.114,-0.018,0.696,-0.061,0.058,-6.853,8.617,20.110
1747603821.64,0.081,0.065,-0.049,0.720,-0.219,0.028,-6.052,8.449,20.021
1747603821.66,0.085,-0.058,-0.051,0.669,-0.175,0.111,-5.258,8.182,19.963
1747603821.68,0.085,-0.091,-0.036,0.522,-0.080,0.184,-4.555,8.067,20.006
1747603821.70,0.121,-0.028,-0.033,0.472,-0.140,0.267,-3.960,7.949,20.174
1747603821.72,0.176,0.064,-0.009,0.468,-0.235,0.250,-3.388,7.757,20.388
1747603821.74,0.113,-0.031,-0.045,0.480,-0.284,0.275,-2.816,7.452,20.610
1747603821.76,0.028,-0.112,-0.017,0.444,-0.053,0.269,-2.235,7.259,20.851
1747603821.78,0.027,-0.086,-0.022,0.331,0.064,0.311,-1.757,7.293,21.104
1747603821.80,0.098,0.057,-0.032,0.244,-0.065,0.345,-1.390,7.328,21.434
1747603821.82,0.161,0.038,-0.062,0.247,-0.278,0.264,-1.066,7.123,21.727
1747603821.84,0.120,-0.088,-0.062,0.209,-0.304,0.277,-0.764,6.771,21.983
1747603821.86,-0.041,-0.099,-0.050,0.106,-0.060,0.384,-0.553,6.562,22.323
1747603821.88,-0.097,0.082,-0.047,0.067,0.111,0.451,-0.398,6.611,22.784
1747603821.90,-0.095,0.073,-0.041,0.058,0.024,0.358,-0.274,6.698,23.225
1747603821.92,0.030,-0.109,-0.016,0.047,-0.101,0.242,-0.170,6.662,23.538
1747603821.94,0.137,-0.065,-0.073,-0.054,-0.190,0.258,-0.136,6.487,23.798
1747603821.96,0.089,-0.021,-0.111,-0.121,-0.239,0.403,-0.193,6.224,24.164
1747603821.98,0.050,0.048,-0.016,-0.173,-0.173,0.496,-0.319,5.991,24.699
1747603822.00,0.058,0.009,0.042,-0.235,-0.080,0.634,-0.482,5.848,25.349
1747603822.02,0.067,-0.026,-0.019,-0.240,-0.011,0.680,-0.677,5.802,26.130
1747603822.04,0.046,-0.019,-0.021,-0.253,0.035,0.664,-0.872,5.840,26.913
1747603822.06,-0.011,-0.031,-0.026,-0.331,-0.006,0.816,-1.128,5.860,27.769
1747603822.08,-0.043,0.000,0.007,-0.319,0.184,0.839,-1.403,5.994,28.764
1747603822.10,-0.155,0.072,-0.056,-0.342,0.204,0.731,-1.666,6.226,29.695
1747603822.12,-0.110,0.008,-0.079,-0.333,0.203,0.562,-1.970,6.506,30.484
1747603822.14,0.011,-0.050,-0.069,-0.349,0.023,0.457,-2.296,6.677,31.108
1747603822.16,0.058,-0.027,-0.014,-0.336,-0.140,0.403,-2.623,6.606,31.628
1747603822.18,-0.012,0.048,-0.050,-0.302,-0.164,0.353,-2.939,6.441,32.115
1747603822.20,-0.130,0.086,-0.029,-0.271,0.033,0.250,-3.227,6.397,32.494
1747603822.22,-0.096,0.058,-0.029,-0.304,0.069,0.272,-3.530,6.496,32.822
1747603822.24,-0.082,0.007,-0.035,-0.201,0.006,0.160,-3.788,6.548,33.144
1747603822.26,-0.008,0.043,0.000,-0.192,-0.111,0.053,-3.976,6.504,33.263
1747603822.28,0.135,0.080,-0.045,-0.259,-0.219,0.188,-4.239,6.340,33.422
1747603822.30,-0.142,0.018,-0.047,-0.146,-0.080,0.215,-4.444,6.129,33.717
1747603822.32,-0.202,-0.099,0.073,-0.115,0.229,0.057,-4.567,6.255,33.889
1747603822.34,0.007,-0.031,0.065,-0.125,0.162,0.054,-4.691,6.508,33.954
1747603822.36,0.124,0.142,-0.044,-0.098,0.033,0.188,-4.814,6.624,34.121
1747603822.38,-0.052,0.113,-0.073,-0.052,0.067,0.201,-4.863,6.683,34.362
1747603822.40,-0.137,-0.077,-0.016,-0.064,0.193,0.142,-4.908,6.857,34.576
1747603822.42,0.031,-0.196,0.041,-0.108,0.242,0.081,-4.990,7.146,34.724
1747603822.44,0.131,0.067,-0.020,-0.131,0.081,0.107,-5.107,7.337,34.828
1747603822.46,0.071,0.222,-0.106,-0.205,0.087,0.199,-5.266,7.421,35.014
1747603822.48,-0.008,0.052,-0.135,-0.273,0.225,0.215,-5.505,7.652,35.326
1747603822.50,-0.050,-0.176,-0.070,-0.306,0.237,0.026,-5.822,7.957,35.574
1747603822.52,-0.025,-0.094,-0.092,-0.361,0.062,-0.230,-6.209,8.120,35.542
1747603822.54,-0.080,0.058,-0.144,-0.516,-0.038,-0.256,-6.741,8.075,35.320
1747603822.56,0.015,0.083,-0.165,-0.607,0.075,-0.040,-7.409,8.082,35.295
1747603822.58,0.035,0.065,-0.161,-0.629,0.113,-0.084,-8.114,8.214,35.372
1747603822.60,0.048,-0.075,-0.091,-0.767,0.083,-0.161,-8.928,8.323,35.396
1747603822.62,-0.032,-0.152,-0.056,-0.908,0.138,-0.148,-9.894,8.433,35.387
1747603822.64,0.041,-0.012,-0.122,-0.992,0.231,-0.021,-10.985,8.653,35.528
1747603822.66,-0.007,0.205,-0.133,-1.047,0.235,-0.049,-12.134,8.945,35.731
1747603822.68,-0.063,0.158,-0.099,-1.122,0.331,-0.103,-13.359,9.286,35.902
1747603822.70,-0.059,-0.017,-0.102,-1.177,0.414,-0.175,-14.685,9.739,36.026
1747603822.72,-0.070,-0.070,-0.066,-1.178,0.412,-0.239,-16.048,10.218,36.088
1747603822.74,-0.106,0.014,-0.062,-1.236,0.499,-0.278,-17.466,10.719,36.103
1747603822.76,-0.048,0.077,-0.058,-1.291,0.603,-0.268,-18.932,11.345,36.141
1747603822.78,-0.029,0.113,-0.085,-1.298,0.482,-0.337,-20.457,11.962,36.175
1747603822.80,-0.065,0.071,-0.064,-1.273,0.401,-0.432,-21.979,12.410,36.124
1747603822.82,-0.059,-0.047,-0.006,-1.188,0.465,-0.535,-23.476,12.793,35.927
1747603822.84,0.011,-0.135,-0.000,-1.256,0.423,-0.445,-24.960,13.203,35.718
1747603822.86,0.044,-0.118,0.039,-1.297,0.459,-0.333,-26.476,13.663,35.696
1747603822.88,0.070,-0.041,0.008,-1.291,0.377,-0.294,-28.004,14.147,35.786
1747603822.90,0.108,-0.008,0.029,-1.291,0.354,-0.323,-29.524,14.603,35.885
1747603822.92,0.008,-0.066,-0.000,-1.257,0.309,-0.325,-31.024,14.965,35.943
1747603822.94,-0.033,-0.134,0.014,-1.234,0.339,-0.311,-32.485,15.331,36.020
1747603822.96,-0.001,-0.118,0.079,-1.231,0.477,-0.300,-33.941,15.825,36.125
1747603822.98,-0.008,-0.075,-0.006,-1.256,0.460,-0.207,-35.383,16.434,36.317
1747603823.00,0.064,-0.022,0.014,-1.256,0.340,-0.151,-36.825,17.063,36.648
1747603823.02,0.113,0.043,0.039,-1.234,0.144,-0.245,-38.250,17.532,36.954
1747603823.04,0.071,0.012,-0.041,-1.242,0.084,-0.306,-39.679,17.727,37.141
1747603823.06,0.030,-0.101,-0.033,-1.179,0.061,-0.287,-41.108,17.898,37.308
1747603823.08,-0.021,-0.125,0.037,-1.222,0.095,-0.273,-42.506,18.076,37.496
1747603823.10,-0.004,-0.100,0.003,-1.224,0.078,-0.249,-43.923,18.334,37.729
1747603823.12,0.053,-0.045,-0.004,-1.207,-0.045,-0.220,-45.340,18.525,38.034
1747603823.14,0.066,0.025,0.007,-1.153,-0.070,-0.264,-46.696,18.648,38.316
1747603823.16,-0.039,0.020,-0.027,-1.143,-0.143,-0.290,-48.037,18.635,38.515
1747603823.18,-0.037,-0.053,-0.016,-1.157,0.011,-0.306,-49.394,18.691,38.688
1747603823.20,-0.011,-0.081,-0.033,-1.170,0.044,-0.294,-50.758,18.816,38.867
1747603823.22,0.011,-0.026,-0.007,-1.177,-0.032,-0.264,-52.122,19.000,39.099
1747603823.24,-0.032,0.042,-0.006,-1.147,0.008,-0.320,-53.494,19.161,39.341
1747603823.26,-0.067,0.042,-0.004,-1.140,0.116,-0.393,-54.854,19.269,39.435
1747603823.28,-0.052,-0.011,-0.005,-1.153,0.112,-0.385,-56.241,19.403,39.452
1747603823.30,0.000,-0.010,0.020,-1.192,0.153,-0.370,-57.647,19.635,39.568
1747603823.32,0.037,0.008,-0.018,-1.148,0.095,-0.409,-59.057,19.835,39.657
1747603823.34,0.061,0.004,-0.014,-1.142,0.145,-0.428,-60.445,19.956,39.675
1747603823.36,0.032,-0.042,0.018,-1.222,0.115,-0.411,-61.873,20.119,39.705
1747603823.38,0.035,-0.060,-0.004,-1.231,0.143,-0.411,-63.352,20.361,39.824
1747603823.40,0.056,-0.032,0.011,-1.216,0.111,-0.388,-64.830,20.631,39.977
1747603823.42,0.038,-0.005,-0.024,-1.160,0.029,-0.385,-66.242,20.861,40.162
1747603823.44,0.003,-0.001,-0.018,-1.188,0.017,-0.407,-67.665,21.012,40.339
1747603823.46,-0.010,-0.041,-0.003,-1.170,0.240,-0.442,-69.086,21.202,40.436
1747603823.48,-0.000,-0.074,0.052,-1.162,0.222,-0.398,-70.505,21.611,40.558
1747603823.50,-0.013,-0.039,0.001,-1.278,0.095,-0.364,-71.957,22.140,40.975
1747603823.52,0.023,0.004,-0.072,-1.199,0.041,-0.446,-73.433,22.540,41.350
1747603823.53,0.022,0.023,0.028,-1.142,0.094,-0.380,-74.880,22.915,41.663
1747603823.55,-0.060,-0.008,-0.047,-1.104,0.301,-0.361,-76.190,23.567,42.145
1747603823.57,-0.051,-0.080,-0.038,-1.099,0.295,-0.361,-77.525,24.502,42.733
1747603823.59,-0.037,-0.061,-0.010,-1.108,0.243,-0.326,-78.822,25.688,43.653
1747603823.61,0.014,-0.011,-0.048,-0.999,0.239,-0.381,-80.078,26.848,44.554
1747603823.63,0.106,-0.024,-0.017,-0.957,0.240,-0.321,-81.261,28.118,45.546
1747603823.65,0.009,-0.015,-0.063,-0.922,0.113,-0.317,-82.363,29.652,46.931
1747603823.67,-0.103,-0.027,0.006,-0.893,0.314,-0.337,-83.457,31.609,48.655
1747603823.69,-0.134,-0.001,-0.020,-0.844,0.478,-0.382,-84.513,33.873,50.508
1747603823.71,-0.009,0.004,0.004,-0.809,0.752,-0.322,-85.522,36.888,52.834
1747603823.73,0.062,-0.013,0.025,-0.804,0.631,-0.216,-86.429,42.992,58.169
1747603823.75,0.069,-0.032,0.049,-0.779,0.672,-0.215,-87.216,52.728,67.195
1747603823.77,0.023,-0.010,0.066,-0.739,0.599,-0.218,-87.861,68.529,82.284
1747603823.79,-0.003,0.012,0.055,-0.678,0.573,-0.292,-88.294,91.421,104.533
1747603823.81,0.065,-0.007,0.040,-0.701,0.414,-0.276,-88.388,122.191,134.714
1747603823.83,0.113,-0.014,-0.015,-0.639,0.117,-0.201,-88.043,146.119,158.349
1747603823.85,0.058,-0.025,0.015,-0.578,0.031,-0.126,-87.492,158.991,171.163
1747603823.87,-0.043,-0.012,-0.096,-0.324,0.062,-0.116,-87.069,164.730,176.904
1747603823.89,-0.082,-0.002,-0.019,-0.360,0.182,-0.137,-86.701,169.254,-178.725
1747603823.91,-0.026,0.001,-0.109,-0.156,0.280,-0.118,-86.438,172.768,-175.466
1747603823.93,0.029,0.004,0.013,-0.181,0.156,0.007,-86.271,174.277,-174.210
1747603823.95,-0.022,-0.017,-0.025,-0.029,0.184,-0.016,-86.127,174.611,-174.043
1747603823.97,-0.047,-0.018,-0.025,0.036,0.460,-0.054,-86.157,175.561,-173.458
1747603823.99,-0.002,0.016,-0.056,0.034,0.500,-0.053,-86.198,177.153,-172.449
1747603824.01,0.075,0.023,-0.084,0.175,0.396,0.053,-86.314,177.664,-172.448
1747603824.03,0.031,-0.008,0.047,0.028,0.325,0.075,-86.455,176.518,-174.007
1747603824.05,-0.000,-0.041,0.022,-0.043,0.243,-0.001,-86.429,176.286,-174.575
1747603824.07,0.097,0.005,-0.021,0.004,0.045,-0.006,-86.397,176.562,-174.453
1747603824.09,0.133,-0.006,-0.022,0.129,-0.046,0.002,-86.474,176.557,-174.452
1747603824.11,0.061,0.007,-0.034,0.107,-0.237,-0.006,-86.615,176.259,-174.599
1747603824.13,0.008,0.011,-0.077,0.147,-0.335,0.026,-86.760,175.576,-174.925
1747603824.15,-0.026,-0.000,0.019,0.090,-0.109,0.053,-86.899,174.100,-176.136
1747603824.17,-0.069,-0.016,0.064,0.004,0.100,0.012,-86.945,173.160,-177.084
1747603824.19,-0.051,-0.006,0.047,0.016,0.098,-0.054,-86.960,173.578,-176.781
1747603824.21,-0.013,0.005,0.045,0.013,0.058,-0.072,-86.985,175.087,-175.364
1747603824.23,0.035,0.014,-0.015,0.011,0.044,-0.055,-87.002,176.643,-173.856
1747603824.25,0.036,-0.001,-0.017,0.051,-0.018,-0.022,-87.037,177.554,-172.973
1747603824.27,-0.023,-0.002,0.033,0.018,-0.082,-0.001,-87.066,177.790,-172.677
1747603824.29,-0.084,-0.008,-0.011,0.034,0.011,-0.030,-87.093,178.199,-172.200
1747603824.31,-0.039,0.009,0.027,0.086,0.174,-0.025,-87.155,178.830,-171.687
1747603824.33,-0.027,0.006,0.017,0.093,0.116,-0.004,-87.286,179.093,-171.593
1747603824.35,-0.024,0.009,0.071,-0.042,0.163,-0.011,-87.291,179.569,-171.278
1747603824.37,-0.022,-0.012,0.072,-0.019,0.112,-0.035,-87.244,-179.730,-170.727
1747603824.39,0.029,-0.020,0.091,-0.015,0.183,-0.078,-87.237,-177.756,-168.926
1747603824.41,0.029,-0.021,0.014,0.101,0.021,-0.062,-87.260,-175.883,-167.181
1747603824.43,0.005,-0.009,-0.051,0.130,-0.002,0.019,-87.407,-174.935,-166.221
1747603824.45,0.008,-0.024,-0.046,0.172,0.067,0.089,-87.567,-176.191,-167.485
1747603824.47,-0.006,0.012,-0.045,0.213,0.240,0.078,-87.776,-178.236,-169.733
1747603824.49,-0.074,0.050,-0.058,0.299,0.295,0.024,-88.077,-179.512,-171.320
1747603824.51,-0.085,-0.005,-0.049,0.311,0.278,-0.027,-88.425,-179.133,-171.256
1747603824.53,0.048,0.008,-0.029,0.258,0.327,-0.003,-88.752,-177.027,-169.521
1747603824.55,0.148,-0.008,-0.041,0.276,0.126,0.062,-89.048,-178.508,-171.263
1747603824.57,0.105,-0.021,0.019,0.346,0.005,0.028,-89.422,177.063,-175.768
1747603824.59,-0.012,0.000,0.061,0.256,-0.114,0.003,-89.762,167.674,174.927
1747603824.61,0.048,-0.009,0.033,0.131,-0.006,0.014,-89.952,94.313,101.633
1747603824.63,0.141,-0.019,0.047,0.044,-0.133,0.057,-89.866,50.396,57.774
1747603824.65,0.077,0.001,-0.006,0.087,-0.388,-0.037,-89.812,35.868,43.548
1747603824.67,0.009,0.027,0.040,-0.032,-0.345,-0.088,-89.796,8.356,16.466
1747603824.69,-0.016,-0.014,-0.038,-0.090,-0.302,-0.091,-89.858,-32.670,-24.176
1747603824.71,0.068,-0.012,-0.029,-0.079,-0.241,-0.028,-89.849,-83.208,-74.423
1747603824.73,0.033,0.002,-0.046,0.039,-0.286,-0.006,-89.842,-95.065,-85.962
1747603824.75,-0.061,0.008,-0.069,0.081,-0.158,-0.016,-89.813,-70.913,-61.544
1747603824.77,-0.104,0.006,-0.084,0.130,0.086,-0.028,-89.731,-47.997,-38.578
1747603824.79,-0.062,-0.003,-0.039,0.177,0.247,-0.022,-89.573,-32.848,-23.641
1747603824.81,0.005,0.012,-0.012,0.220,0.242,0.023,-89.368,-21.395,-12.466
1747603824.83,-0.004,-0.003,0.048,0.201,0.222,0.055,-89.146,-11.962,-3.318
1747603824.85,-0.051,-0.015,0.033,0.200,0.195,0.010,-88.931,-7.134,1.293
1747603824.87,-0.012,-0.010,0.038,0.258,0.191,-0.026,-88.682,-6.080,2.117
1747603824.89,0.018,0.018,-0.006,0.380,0.064,-0.023,-88.315,-5.881,2.175
1747603824.91,0.029,0.020,-0.006,0.450,0.060,0.018,-87.836,-4.643,3.357
1747603824.93,0.005,-0.012,0.030,0.479,0.026,0.054,-87.317,-2.783,5.165
1747603824.95,0.000,-0.006,0.052,0.544,-0.058,0.068,-86.727,-1.078,6.878
1747603824.97,-0.019,-0.000,0.030,0.611,-0.111,0.070,-86.067,0.211,8.283
1747603824.99,-0.047,-0.020,0.026,0.641,-0.017,0.073,-85.344,1.088,9.233
1747603825.01,-0.047,-0.005,0.025,0.669,-0.021,0.095,-84.605,1.990,10.147
1747603825.03,-0.029,0.014,0.003,0.741,-0.009,0.106,-83.783,2.698,10.892
1747603825.05,-0.003,-0.015,0.041,0.767,-0.117,0.169,-82.914,3.542,11.797
1747603825.07,-0.039,-0.018,0.010,0.832,-0.290,0.207,-82.005,4.517,13.021
1747603825.09,-0.052,0.027,-0.014,0.923,-0.056,0.138,-80.969,5.028,13.783
1747603825.11,0.043,-0.001,0.062,0.865,0.141,0.233,-79.926,5.694,14.374
1747603825.13,0.009,-0.035,0.050,0.766,0.061,0.278,-78.971,6.868,15.442
1747603825.15,0.037,-0.032,0.058,0.772,-0.035,0.353,-78.054,8.087,16.622
1747603825.17,0.098,0.015,0.068,0.908,-0.012,0.340,-77.053,9.233,17.810
1747603825.19,-0.001,-0.030,-0.013,1.059,-0.222,0.256,-75.879,9.696,18.377
1747603825.21,-0.052,-0.007,-0.010,0.968,-0.172,0.330,-74.663,9.900,18.834
1747603825.23,-0.075,0.043,0.057,0.870,0.196,0.373,-73.563,10.674,19.596
1747603825.25,-0.116,0.008,0.114,0.905,0.247,0.378,-72.504,11.727,20.353
1747603825.27,-0.103,-0.022,-0.071,1.038,0.041,0.332,-71.334,12.409,20.873
1747603825.29,0.062,-0.036,-0.022,1.209,0.286,0.276,-69.976,12.706,20.973
1747603825.31,0.020,-0.031,0.016,1.039,0.209,0.305,-68.641,13.113,21.017
1747603825.33,-0.077,-0.005,0.046,0.817,0.428,0.418,-67.523,13.804,21.375
1747603825.35,-0.009,-0.008,0.128,0.877,0.486,0.519,-66.477,15.079,22.107
1747603825.37,0.088,-0.028,-0.080,1.048,0.050,0.415,-65.277,15.913,22.650
1747603825.39,0.178,-0.077,-0.165,1.265,-0.159,0.297,-63.910,15.881,22.674
1747603825.41,0.038,-0.068,-0.080,1.022,-0.096,0.253,-62.504,15.577,22.467
1747603825.43,-0.154,-0.030,0.052,0.860,0.208,0.394,-61.379,15.702,22.498
1747603825.45,0.062,-0.018,0.179,0.705,0.405,0.646,-60.384,16.706,23.179
1747603825.47,0.236,-0.056,-0.065,0.956,-0.168,0.634,-59.255,17.646,23.998
1747603825.49,0.164,-0.067,-0.160,1.108,-0.538,0.538,-57.932,17.690,24.529
1747603825.51,-0.160,0.032,-0.109,1.157,-0.432,0.217,-56.529,17.114,24.517
1747603825.53,-0.265,0.066,0.089,1.022,0.151,0.093,-55.285,16.613,24.048
1747603825.55,-0.039,-0.043,0.094,0.811,0.303,0.377,-54.213,16.854,23.916
1747603825.57,0.272,-0.011,0.027,0.843,-0.096,0.510,-53.189,17.337,24.291
1747603825.59,0.186,0.044,-0.092,0.993,-0.509,0.423,-52.028,17.219,24.608
1747603825.61,-0.102,0.080,0.009,1.120,-0.370,0.218,-50.753,16.681,24.585
1747603825.63,-0.238,0.071,0.103,0.958,0.100,0.086,-49.549,16.319,24.265
1747603825.65,-0.032,-0.049,-0.025,0.813,0.117,0.270,-48.530,16.332,24.056
1747603825.67,0.259,-0.018,0.009,0.928,-0.148,0.327,-47.494,16.437,24.123
1747603825.69,0.141,0.041,-0.036,1.042,-0.406,0.282,-46.305,16.105,24.127
1747603825.71,-0.054,0.030,0.076,1.049,-0.206,0.223,-45.060,15.652,24.002
1747603825.73,-0.039,-0.012,-0.008,0.905,-0.023,0.197,-43.906,15.466,23.855
1747603825.75,0.207,-0.066,0.011,0.856,-0.025,0.284,-42.883,15.469,23.800
1747603825.77,0.128,-0.053,-0.031,0.918,-0.243,0.346,-41.810,15.367,23.887
1747603825.79,-0.099,0.007,0.004,1.002,-0.190,0.219,-40.668,15.131,23.908
1747603825.81,-0.156,0.008,-0.032,1.021,-0.024,0.068,-39.487,14.870,23.673
1747603825.83,0.000,-0.086,0.021,0.894,0.019,0.083,-38.423,14.726,23.357
1747603825.85,0.178,-0.025,0.031,0.873,-0.204,0.209,-37.408,14.559,23.210
1747603825.87,0.130,0.113,0.006,0.946,-0.370,0.241,-36.335,14.210,23.180
1747603825.89,-0.062,0.147,-0.001,0.991,-0.339,0.135,-35.218,13.761,23.080
1747603825.91,-0.133,-0.017,0.009,1.045,-0.122,0.081,-34.050,13.368,22.848
1747603825.93,-0.010,-0.143,0.004,1.042,-0.026,0.090,-32.858,13.197,22.578
1747603825.95,0.054,-0.094,0.048,0.961,-0.182,0.170,-31.723,13.028,22.417
1747603825.97,0.057,0.012,-0.058,0.910,-0.279,0.155,-30.639,12.709,22.317
1747603825.99,-0.018,0.060,-0.034,0.921,-0.316,0.093,-29.592,12.312,22.162
1747603826.01,-0.089,0.033,0.015,0.994,-0.331,0.061,-28.515,11.860,21.973
1747603826.03,-0.081,-0.039,0.040,1.100,-0.282,0.034,-27.331,11.409,21.723
1747603826.05,-0.025,-0.082,0.054,1.182,-0.202,0.005,-26.026,11.008,21.424
1747603826.07,0.057,-0.071,-0.003,1.086,-0.010,0.010,-24.755,10.786,21.145
1747603826.09,0.113,-0.039,-0.017,1.012,-0.072,0.194,-23.562,10.699,21.004
1747603826.11,0.050,0.055,0.041,1.074,-0.227,0.280,-22.337,10.564,21.072
1747603826.13,-0.013,0.102,0.034,1.201,-0.342,0.196,-21.022,10.246,21.102
1747603826.15,-0.013,-0.009,0.063,1.264,-0.294,0.081,-19.581,9.818,21.004
1747603826.17,-0.045,-0.151,-0.065,1.167,-0.100,0.018,-18.229,9.514,20.795
1747603826.19,-0.061,-0.190,-0.041,1.235,0.210,0.128,-16.871,9.527,20.641
1747603826.21,0.026,0.130,-0.033,1.515,0.137,0.137,-15.305,9.719,20.524
1747603826.23,0.172,0.179,0.153,1.316,0.079,0.175,-13.687,9.862,20.367
1747603826.25,0.117,-0.070,-0.017,1.209,-0.079,0.247,-12.218,9.815,20.354
1747603826.27,0.031,-0.078,-0.061,1.082,-0.058,0.308,-10.877,9.735,20.415
1747603826.29,-0.119,0.066,-0.063,0.920,0.161,0.372,-9.699,9.844,20.593
1747603826.31,-0.119,0.124,-0.002,0.905,0.230,0.323,-8.605,10.129,20.823
1747603826.33,-0.018,0.115,-0.071,0.958,-0.009,0.194,-7.508,10.285,20.901
1747603826.35,0.073,0.002,-0.078,0.943,-0.238,0.121,-6.418,10.145,20.858
1747603826.37,0.039,0.002,0.008,0.938,-0.256,0.061,-5.339,9.810,20.760
1747603826.39,-0.008,0.091,-0.078,0.783,-0.121,0.076,-4.338,9.583,20.649
1747603826.41,-0.097,0.006,-0.136,0.713,-0.044,0.160,-3.480,9.487,20.639
1747603826.43,-0.020,0.010,-0.065,0.724,-0.081,0.038,-2.656,9.434,20.612
1747603826.45,0.042,-0.043,-0.002,0.710,-0.225,-0.009,-1.841,9.243,20.461
1747603826.47,0.107,-0.073,0.009,0.721,-0.231,0.036,-1.017,8.965,20.321
1747603826.49,0.089,-0.009,-0.021,0.692,-0.220,0.116,-0.206,8.719,20.269
1747603826.51,-0.072,0.101,-0.008,0.637,0.016,0.131,0.560,8.593,20.296
1747603826.53,-0.029,-0.014,-0.043,0.605,0.046,0.057,1.272,8.658,20.267
1747603826.55,0.196,-0.137,-0.082,0.535,-0.282,0.057,1.930,8.542,20.205
1747603826.57,0.112,-0.075,-0.057,0.470,-0.352,0.141,2.509,8.132,20.183
1747603826.59,0.005,0.022,-0.012,0.443,-0.191,0.282,3.053,7.813,20.328
1747603826.61,-0.038,0.113,-0.002,0.416,0.011,0.300,3.593,7.683,20.588
1747603826.63,0.027,-0.037,-0.062,0.380,0.037,0.195,4.094,7.722,20.798
1747603826.64,0.098,-0.121,-0.064,0.323,-0.138,0.141,4.532,7.651,20.898
1747603826.66,0.059,-0.002,-0.071,0.204,-0.192,0.208,4.856,7.446,21.032
1747603826.68,-0.013,0.103,-0.080,0.168,-0.150,0.248,5.087,7.231,21.252
1747603826.70,-0.026,-0.039,-0.084,0.111,-0.047,0.189,5.289,7.107,21.469
1747603826.72,0.107,-0.160,-0.065,0.017,-0.121,0.209,5.385,6.986,21.672
1747603826.74,0.104,-0.068,-0.087,-0.122,-0.112,0.308,5.353,6.827,21.944
1747603826.76,0.032,0.067,-0.104,-0.200,-0.057,0.417,5.212,6.683,22.383
1747603826.78,0.033,0.008,-0.051,-0.246,-0.041,0.468,5.018,6.576,22.915
1747603826.80,0.077,-0.047,-0.000,-0.345,-0.097,0.500,4.749,6.459,23.504
1747603826.82,0.071,-0.079,0.010,-0.407,-0.046,0.592,4.388,6.305,24.170
1747603826.84,0.031,-0.018,-0.081,-0.470,0.070,0.685,3.975,6.272,24.950
1747603826.86,-0.041,0.018,-0.066,-0.517,0.148,0.718,3.482,6.331,25.814
1747603826.88,-0.034,0.025,0.013,-0.523,0.321,0.658,2.995,6.551,26.659
1747603826.90,0.096,-0.034,-0.052,-0.598,0.244,0.665,2.437,6.863,27.490
1747603826.92,0.072,-0.015,-0.069,-0.610,0.094,0.643,1.860,7.022,28.310
1747603826.94,-0.007,-0.033,-0.051,-0.642,0.083,0.623,1.231,7.078,29.116
1747603826.96,0.001,-0.037,-0.010,-0.682,0.168,0.586,0.550,7.222,29.908
1747603826.98,-0.052,0.047,-0.070,-0.633,0.223,0.495,-0.088,7.425,30.623
1747603827.00,-0.083,0.106,-0.099,-0.609,0.088,0.365,-0.737,7.620,31.210
1747603827.02,-0.066,0.026,-0.047,-0.584,0.042,0.201,-1.381,7.710,31.649
1747603827.04,0.008,-0.010,0.016,-0.553,-0.113,0.036,-1.985,7.677,31.856
1747603827.06,0.072,0.090,-0.111,-0.576,-0.214,0.066,-2.630,7.495,32.001
1747603827.08,-0.172,0.195,-0.117,-0.554,-0.048,0.037,-3.262,7.311,32.158
1747603827.10,-0.254,-0.064,-0.010,-0.485,0.199,-0.070,-3.850,7.406,32.198
1747603827.12,-0.041,-0.108,0.029,-0.556,0.027,-0.018,-4.433,7.569,32.220
1747603827.14,0.125,0.080,-0.054,-0.593,0.059,0.109,-5.095,7.626,32.388
1747603827.16,-0.052,0.162,-0.143,-0.558,0.124,0.086,-5.727,7.728,32.611
1747603827.18,-0.042,-0.087,0.039,-0.675,0.288,0.038,-6.404,8.004,32.790
1747603827.20,0.086,-0.174,-0.022,-0.714,0.112,0.078,-7.177,8.268,32.988
1747603827.22,0.029,0.108,-0.112,-0.706,0.028,0.040,-7.977,8.356,33.203
1747603827.24,-0.182,0.201,-0.163,-0.726,0.099,-0.019,-8.778,8.436,33.359
1747603827.26,-0.088,-0.169,0.010,-0.772,0.290,-0.098,-9.632,8.672,33.464
1747603827.28,0.158,-0.284,0.008,-0.885,0.205,-0.049,-10.604,8.988,33.564
1747603827.30,0.111,-0.060,-0.105,-0.941,0.218,-0.000,-11.633,9.241,33.768
1747603827.32,-0.126,0.100,-0.124,-0.962,0.254,-0.065,-12.707,9.532,33.968
1747603827.34,-0.085,0.080,-0.067,-1.023,0.290,-0.140,-13.844,9.877,34.084
1747603827.36,0.040,0.004,-0.038,-1.022,0.222,-0.130,-15.029,10.173,34.199
1747603827.38,0.067,-0.049,-0.054,-1.066,0.166,-0.149,-16.238,10.408,34.319
1747603827.40,0.045,-0.061,0.007,-1.146,0.256,-0.111,-17.508,10.664,34.453
1747603827.42,0.028,0.007,-0.021,-1.187,0.309,-0.039,-18.833,11.037,34.709
1747603827.44,-0.023,0.110,-0.032,-1.149,0.305,-0.082,-20.160,11.464,34.980
1747603827.46,-0.064,0.087,-0.041,-1.163,0.320,-0.148,-21.477,11.871,35.181
1747603827.48,-0.054,-0.043,-0.065,-1.110,0.223,-0.196,-22.781,12.199,35.331
1747603827.50,-0.005,-0.118,0.016,-1.157,0.193,-0.226,-24.097,12.465,35.436
1747603827.52,0.026,-0.097,0.003,-1.163,0.237,-0.179,-25.440,12.708,35.570
1747603827.54,-0.091,-0.033,-0.084,-1.141,0.355,-0.172,-26.769,13.104,35.754
1747603827.56,-0.158,-0.021,-0.020,-1.083,0.621,-0.258,-28.045,13.693,35.905
1747603827.58,-0.062,-0.031,0.016,-1.071,0.642,-0.327,-29.330,14.387,35.935
1747603827.60,0.099,-0.029,0.012,-1.131,0.509,-0.303,-30.643,15.073,35.932
1747603827.62,0.078,-0.028,0.006,-1.138,0.303,-0.259,-31.977,15.529,36.014
1747603827.64,0.075,-0.025,-0.042,-1.163,0.138,-0.220,-33.319,15.845,36.164
1747603827.66,0.056,0.007,0.028,-1.176,0.232,-0.264,-34.680,16.126,36.330
1747603827.68,0.024,0.020,-0.008,-1.197,0.252,-0.201,-36.056,16.487,36.513
1747603827.70,-0.026,0.018,0.011,-1.234,0.260,-0.169,-37.438,16.928,36.812
1747603827.72,-0.040,0.004,0.005,-1.186,0.292,-0.189,-38.826,17.423,37.132
1747603827.74,-0.028,-0.034,-0.075,-1.186,0.237,-0.256,-40.186,17.874,37.399
1747603827.76,0.015,-0.090,-0.042,-1.166,0.111,-0.335,-41.561,18.156,37.569
1747603827.78,0.029,-0.067,-0.021,-1.215,-0.031,-0.316,-42.974,18.262,37.708
1747603827.80,-0.012,-0.017,0.014,-1.199,0.075,-0.303,-44.395,18.346,37.895
1747603827.82,-0.086,0.002,-0.009,-1.200,0.136,-0.292,-45.799,18.599,38.102
1747603827.84,-0.069,-0.004,-0.019,-1.155,0.254,-0.317,-47.190,18.932,38.308
1747603827.86,0.000,-0.004,0.001,-1.103,0.223,-0.339,-48.527,19.282,38.441
1747603827.88,0.062,-0.026,0.022,-1.116,0.103,-0.312,-49.847,19.554,38.581
1747603827.90,0.110,-0.050,0.002,-1.153,-0.042,-0.294,-51.176,19.742,38.799
1747603827.92,0.053,-0.030,-0.008,-1.169,-0.057,-0.354,-52.546,19.778,39.007
1747603827.94,-0.020,-0.021,0.009,-1.153,-0.041,-0.341,-53.941,19.822,39.152
1747603827.96,-0.046,0.014,0.040,-1.143,0.062,-0.322,-55.304,19.949,39.328
1747603827.98,-0.018,0.053,0.053,-1.135,0.054,-0.306,-56.644,20.208,39.553
1747603828.00,0.008,0.063,0.036,-1.133,-0.014,-0.329,-57.977,20.416,39.804
1747603828.02,0.033,0.003,-0.006,-1.110,-0.093,-0.341,-59.319,20.478,40.014
1747603828.04,-0.009,-0.019,-0.019,-1.136,-0.037,-0.365,-60.650,20.521,40.181
1747603828.06,-0.084,0.009,0.054,-1.159,0.067,-0.375,-62.045,20.663,40.354
1747603828.08,-0.085,0.043,0.014,-1.115,0.146,-0.395,-63.395,20.889,40.460
1747603828.10,-0.058,0.018,0.016,-1.119,0.288,-0.440,-64.764,21.134,40.494
1747603828.12,-0.089,-0.018,0.011,-1.148,0.270,-0.407,-66.145,21.509,40.541
1747603828.14,-0.106,0.009,0.004,-1.111,0.402,-0.483,-67.530,21.922,40.582
1747603828.16,-0.051,-0.009,-0.023,-1.109,0.442,-0.560,-68.920,22.207,40.360
1747603828.18,0.045,-0.047,-0.015,-1.094,0.423,-0.552,-70.336,22.389,40.032
1747603828.20,0.118,-0.057,-0.004,-1.102,0.390,-0.496,-71.726,22.640,39.846
1747603828.22,0.124,-0.023,-0.042,-1.080,0.182,-0.481,-73.078,22.897,39.745
1747603828.24,0.072,-0.044,-0.052,-1.122,0.171,-0.426,-74.452,23.077,39.791
1747603828.26,0.028,-0.093,-0.039,-1.131,0.221,-0.389,-75.812,23.705,40.168
1747603828.28,-0.035,-0.062,-0.115,-1.064,0.272,-0.406,-77.142,24.352,40.575
1747603828.30,-0.028,-0.039,-0.051,-0.963,0.339,-0.387,-78.378,25.023,40.905
1747603828.32,0.033,-0.037,-0.071,-1.025,0.547,-0.409,-79.582,25.913,41.314
1747603828.34,0.030,-0.006,-0.022,-1.027,0.407,-0.428,-80.864,27.065,41.915
1747603828.36,0.085,-0.013,-0.042,-0.941,0.322,-0.414,-82.079,28.037,42.494
1747603828.38,0.123,-0.051,0.017,-0.948,0.336,-0.334,-83.232,29.561,43.668
1747603828.40,0.066,-0.060,0.017,-0.968,0.398,-0.304,-84.342,32.210,45.915
1747603828.42,0.018,-0.045,-0.020,-0.971,0.373,-0.341,-85.472,36.385,49.672
1747603828.44,0.062,-0.010,-0.053,-0.869,0.351,-0.326,-86.542,42.098,55.008
1747603828.46,0.085,-0.029,-0.069,-0.759,0.331,-0.318,-87.440,50.202,62.720
1747603828.48,0.066,-0.035,-0.058,-0.818,0.105,-0.283,-88.212,65.778,78.059
1747603828.50,0.046,0.008,-0.076,-0.694,0.028,-0.267,-88.669,96.739,108.997
1747603828.52,0.013,-0.028,-0.063,-0.570,0.141,-0.243,-88.655,130.606,142.776
1747603828.54,0.041,-0.027,-0.102,-0.449,0.351,-0.237,-88.367,152.653,164.556
1747603828.56,0.059,0.026,-0.114,-0.376,0.273,-0.206,-88.008,166.201,177.738
1747603828.58,0.053,0.005,-0.060,-0.298,0.089,-0.099,-87.673,172.717,-175.935
1747603828.60,-0.002,-0.015,-0.001,-0.240,0.079,-0.069,-87.369,175.466,-173.257
1747603828.62,-0.016,0.024,-0.019,-0.114,0.280,-0.115,-87.174,178.229,-170.686
1747603828.64,0.048,0.021,0.003,-0.052,0.333,-0.052,-87.084,-179.364,-168.670
1747603828.66,-0.008,-0.026,0.034,0.007,0.055,-0.034,-87.045,-178.295,-167.816
1747603828.68,-0.115,-0.017,-0.015,0.153,-0.020,-0.035,-87.145,-177.499,-167.009
1747603828.70,-0.154,0.014,0.073,0.029,0.372,-0.104,-87.272,-175.577,-165.254
1747603828.72,-0.043,0.013,0.150,-0.064,0.622,-0.052,-87.219,-172.962,-163.258
1747603828.74,0.024,-0.026,0.132,-0.065,0.356,-0.010,-87.143,-172.151,-163.028
1747603828.76,-0.001,-0.065,0.042,-0.006,0.077,-0.048,-87.093,-171.435,-162.530
1747603828.78,-0.018,-0.027,0.008,0.064,0.021,-0.073,-87.118,-169.907,-161.041
1747603828.80,-0.086,0.059,-0.041,0.183,0.149,-0.106,-87.229,-167.189,-158.407
1747603828.82,-0.082,0.019,0.001,0.117,0.254,-0.086,-87.391,-163.618,-155.074
1747603828.84,0.029,0.009,0.060,-0.027,0.263,-0.041,-87.405,-161.403,-153.146
1747603828.86,0.127,-0.016,0.054,-0.004,0.165,0.058,-87.387,-161.533,-153.533
1747603828.88,0.079,-0.010,0.026,0.049,0.085,0.056,-87.432,-162.807,-154.948
1747603828.90,-0.049,0.025,-0.013,0.112,0.099,0.003,-87.532,-162.706,-154.934
1747603828.92,-0.109,0.034,-0.023,-0.006,-0.001,-0.138,-87.580,-160.639,-152.930
1747603828.94,0.026,0.067,-0.050,-0.008,0.003,-0.258,-87.465,-155.679,-147.957
1747603828.96,0.177,-0.007,-0.012,0.046,-0.047,-0.115,-87.383,-151.146,-143.408
1747603828.98,0.057,-0.040,0.017,0.069,-0.209,-0.032,-87.410,-148.967,-141.091
1747603829.00,-0.095,-0.078,0.064,-0.085,-0.311,-0.022,-87.401,-148.935,-140.744
1747603829.02,-0.053,-0.054,0.008,-0.138,-0.183,-0.077,-87.251,-149.513,-141.026
1747603829.04,0.089,0.029,0.007,-0.062,-0.208,-0.070,-87.108,-149.525,-140.836
1747603829.06,0.066,0.041,-0.011,0.007,-0.306,-0.050,-87.055,-148.952,-139.958
1747603829.08,-0.049,-0.007,0.018,-0.098,-0.223,-0.045,-86.991,-148.767,-139.479
1747603829.10,-0.083,-0.022,-0.032,-0.066,-0.047,-0.094,-86.851,-148.573,-139.108
1747603829.12,0.030,0.027,0.045,-0.095,0.176,-0.032,-86.742,-148.057,-138.675
1747603829.14,0.043,-0.028,0.009,-0.051,0.113,0.026,-86.660,-148.945,-139.755
1747603829.16,0.018,0.010,-0.014,-0.028,0.108,-0.018,-86.634,-149.056,-139.978
1747603829.18,0.080,-0.005,-0.007,-0.019,0.049,0.059,-86.613,-149.456,-140.475
1747603829.20,0.017,-0.013,-0.024,-0.005,-0.015,0.058,-86.647,-150.604,-141.638
1747603829.22,-0.029,-0.030,0.011,-0.006,0.064,0.038,-86.664,-151.501,-142.557
1747603829.24,0.009,-0.004,-0.016,0.011,0.075,0.053,-86.696,-152.186,-143.333
1747603829.26,0.034,0.025,-0.009,0.008,0.038,0.086,-86.753,-153.512,-144.736
1747603829.28,-0.010,0.047,-0.007,0.003,0.020,0.046,-86.800,-154.889,-146.133
1747603829.30,-0.014,-0.038,0.043,-0.066,0.109,0.066,-86.802,-155.703,-147.022
1747603829.32,-0.008,-0.054,0.057,-0.133,0.077,0.040,-86.707,-157.529,-148.970
1747603829.34,0.021,-0.009,0.001,-0.086,0.003,0.001,-86.605,-158.709,-150.195
1747603829.36,0.015,0.036,-0.017,-0.016,-0.050,-0.026,-86.544,-158.868,-150.317
1747603829.38,-0.003,0.017,-0.036,0.023,-0.081,0.028,-86.550,-158.727,-150.111
1747603829.40,-0.046,-0.023,-0.057,0.026,-0.043,0.038,-86.583,-159.343,-150.628
1747603829.42,-0.021,-0.021,0.012,-0.050,0.091,0.042,-86.574,-160.179,-151.496
1747603829.44,-0.004,0.012,-0.018,0.047,0.106,0.037,-86.583,-160.972,-152.407
1747603829.46,0.001,0.022,-0.022,0.107,0.138,0.025,-86.690,-160.810,-152.383
1747603829.48,-0.016,-0.003,-0.041,0.114,0.143,0.005,-86.833,-159.757,-151.486
1747603829.50,-0.009,-0.010,-0.022,0.117,0.134,0.025,-86.958,-158.521,-150.418
1747603829.52,0.012,0.006,-0.028,0.152,0.118,0.033,-87.102,-157.980,-150.008
1747603829.54,0.031,0.005,0.004,0.146,0.231,0.015,-87.284,-156.844,-149.073
1747603829.56,0.034,0.008,0.008,0.153,0.141,-0.009,-87.448,-154.762,-147.227
1747603829.58,0.075,-0.016,0.029,0.108,-0.005,0.008,-87.587,-152.895,-145.429
1747603829.60,0.107,-0.024,0.032,0.155,-0.122,0.027,-87.727,-151.773,-144.237
1747603829.62,0.021,-0.005,0.028,0.219,-0.217,0.020,-87.930,-150.043,-142.304
1747603829.64,-0.071,-0.014,0.012,0.294,-0.124,0.005,-88.191,-146.125,-138.165
1747603829.66,-0.068,-0.013,-0.026,0.358,-0.083,0.052,-88.510,-139.161,-131.097
1747603829.68,-0.030,0.035,-0.034,0.390,-0.028,0.109,-88.874,-129.126,-120.980
1747603829.70,0.004,0.010,0.010,0.447,0.034,0.130,-89.229,-107.505,-99.357
1747603829.72,0.024,-0.020,0.031,0.521,0.125,0.143,-89.335,-61.057,-52.999
1747603829.73,0.028,-0.016,0.046,0.595,0.007,0.177,-88.964,-22.590,-14.639
1747603829.75,0.016,-0.001,0.024,0.617,-0.179,0.212,-88.324,-6.103,1.973
1747603829.77,0.001,-0.019,0.084,0.635,-0.019,0.200,-87.628,1.448,9.662
1747603829.79,-0.021,-0.005,0.065,0.733,0.060,0.186,-86.846,5.072,13.239
1747603829.81,-0.052,0.021,-0.008,0.869,-0.078,0.212,-85.907,6.960,15.143
1747603829.83,-0.054,0.019,0.064,0.832,-0.156,0.230,-84.899,8.459,16.762
1747603829.85,-0.053,-0.008,0.028,0.890,-0.060,0.196,-83.899,9.191,17.674
1747603829.87,-0.041,-0.014,0.084,0.948,-0.091,0.203,-82.830,9.608,18.142
1747603829.89,-0.034,0.016,0.051,1.036,-0.119,0.215,-81.672,9.798,18.458
1747603829.91,0.035,0.004,0.042,1.089,-0.234,0.228,-80.436,9.900,18.746
1747603829.93,0.022,-0.033,-0.004,1.073,-0.310,0.212,-79.167,9.741,18.927
1747603829.95,-0.025,-0.030,0.055,1.134,-0.071,0.251,-77.893,9.732,19.099
1747603829.97,-0.093,0.036,0.050,1.188,0.151,0.263,-76.528,10.096,19.367
1747603829.99,-0.067,0.022,-0.041,1.147,0.228,0.284,-75.151,10.537,19.577
1747603830.01,0.017,-0.048,0.092,1.146,0.406,0.287,-73.808,11.205,19.820
1747603830.03,0.019,-0.082,0.052,1.157,0.496,0.382,-72.441,12.025,20.111
1747603830.05,-0.017,-0.047,-0.054,1.129,0.341,0.488,-71.034,13.149,20.737
1747603830.07,0.000,0.067,0.049,1.033,0.288,0.424,-69.747,14.164,21.404
1747603830.09,-0.018,0.034,0.033,1.163,-0.001,0.255,-68.448,14.498,21.531
1747603830.11,0.040,-0.055,-0.064,1.170,-0.019,0.271,-67.077,14.324,21.355
1747603830.13,0.043,-0.081,-0.068,1.211,-0.074,0.297,-65.663,14.238,21.272
1747603830.15,-0.030,-0.052,0.012,1.131,0.233,0.376,-64.266,14.350,21.335
1747603830.17,-0.096,-0.009,0.030,1.034,0.349,0.450,-62.949,15.019,21.634
1747603830.19,0.088,0.009,-0.039,1.019,0.260,0.433,-61.696,15.731,21.991
1747603830.21,0.308,-0.028,-0.015,1.139,-0.240,0.410,-60.380,16.001,22.205
1747603830.23,0.197,-0.113,-0.031,1.270,-0.280,0.387,-58.915,15.742,22.279
1747603830.25,-0.065,-0.120,-0.027,1.044,-0.181,0.377,-57.471,15.557,22.321
1747603830.27,-0.137,-0.021,-0.020,0.855,-0.117,0.384,-56.383,15.609,22.524
1747603830.29,0.091,0.059,0.029,0.975,-0.216,0.472,-55.248,15.716,22.813
1747603830.31,0.109,0.032,-0.043,1.281,-0.390,0.346,-53.882,15.508,22.960
1747603830.33,-0.070,-0.019,-0.030,1.272,-0.190,0.226,-52.366,15.042,22.755
1747603830.35,-0.184,-0.024,0.099,0.932,0.210,0.312,-51.053,14.966,22.639
1747603830.37,0.032,0.043,0.022,0.765,0.235,0.481,-50.031,15.522,22.895
1747603830.39,0.174,0.031,0.071,0.941,-0.124,0.571,-48.944,15.992,23.364
1747603830.41,0.049,0.035,-0.133,1.168,-0.450,0.386,-47.620,15.878,23.649
1747603830.43,-0.105,0.087,0.043,1.249,-0.365,0.108,-46.204,15.266,23.443
1747603830.45,-0.176,0.097,0.038,1.080,-0.130,0.023,-44.863,14.689,22.955
1747603830.47,0.032,-0.048,-0.034,0.825,-0.150,0.269,-43.816,14.396,22.712
1747603830.49,0.212,-0.056,0.082,0.879,-0.184,0.472,-42.774,14.401,22.958
1747603830.51,-0.094,0.144,0.010,0.944,-0.287,0.337,-41.639,14.309,23.174
1747603830.53,-0.033,0.128,0.005,0.962,-0.072,0.197,-40.529,14.108,23.171
1747603830.55,0.076,0.002,-0.017,0.949,-0.034,0.109,-39.395,13.991,22.988
1747603830.57,0.019,-0.132,-0.058,0.817,-0.079,0.173,-38.401,13.838,22.817
1747603830.59,0.077,-0.102,0.023,0.916,-0.106,0.249,-37.389,13.748,22.797
1747603830.61,0.029,0.011,-0.014,0.977,-0.271,0.166,-36.278,13.530,22.705
1747603830.63,-0.007,-0.010,0.014,1.021,-0.325,0.084,-35.127,13.059,22.521
1747603830.65,0.038,-0.098,-0.024,0.965,-0.204,0.043,-33.999,12.655,22.262
1747603830.67,0.026,-0.127,0.024,0.937,-0.099,0.162,-32.921,12.398,22.085
1747603830.69,0.082,-0.067,0.043,0.993,-0.133,0.232,-31.801,12.284,22.058
1747603830.71,0.040,0.042,0.009,1.047,-0.233,0.220,-30.608,12.056,22.050
1747603830.73,-0.002,0.069,0.054,1.033,-0.137,0.059,-29.392,11.815,21.917
1747603830.75,-0.048,-0.031,-0.034,0.997,-0.244,0.111,-28.245,11.514,21.709
1747603830.77,0.093,-0.088,0.044,1.049,-0.242,0.159,-27.079,11.232,21.630
1747603830.79,0.119,-0.015,0.022,1.086,-0.378,0.161,-25.835,10.837,21.531
1747603830.81,0.052,-0.017,0.001,1.142,-0.445,0.221,-24.550,10.346,21.473
1747603830.83,0.000,0.016,0.016,1.176,-0.347,0.238,-23.196,9.915,21.496
1747603830.85,-0.028,0.048,-0.009,1.102,-0.250,0.227,-21.870,9.587,21.516
1747603830.87,-0.043,-0.014,-0.030,1.005,-0.152,0.218,-20.641,9.372,21.565
1747603830.89,-0.018,-0.126,0.035,1.063,-0.089,0.221,-19.433,9.255,21.609
1747603830.91,0.035,0.004,0.085,1.070,-0.087,0.188,-18.192,9.176,21.633
1747603830.93,0.092,0.106,0.041,1.100,-0.113,0.299,-16.934,9.094,21.687
1747603830.95,0.099,0.113,-0.094,1.239,-0.220,0.374,-15.531,8.954,21.854
1747603830.97,0.052,0.016,-0.013,1.208,-0.051,0.212,-14.087,8.819,21.956
1747603830.99,-0.001,-0.108,0.011,0.994,-0.059,0.299,-12.821,8.787,21.998
1747603831.01,-0.090,-0.004,0.019,0.894,-0.031,0.418,-11.698,8.778,22.254
1747603831.03,-0.019,0.182,-0.033,0.921,-0.002,0.376,-10.593,8.829,22.551
1747603831.05,0.116,0.075,-0.108,0.854,-0.188,0.317,-9.534,8.786,22.769
1747603831.07,0.005,-0.004,-0.105,0.794,-0.308,0.330,-8.553,8.515,23.002
1747603831.09,-0.167,0.043,-0.015,0.833,-0.166,0.317,-7.581,8.261,23.227
1747603831.11,-0.204,0.136,0.039,0.877,0.045,0.313,-6.552,8.225,23.455
1747603831.13,-0.025,0.033,-0.048,0.859,0.007,0.179,-5.534,8.305,23.603
1747603831.15,0.181,-0.082,-0.125,0.760,-0.277,0.123,-4.592,8.180,23.628
1747603831.17,0.032,-0.070,-0.071,0.679,-0.322,0.215,-3.757,7.790,23.716
1747603831.19,-0.107,0.023,0.013,0.650,-0.073,0.205,-2.974,7.566,23.860
1747603831.21,-0.089,-0.007,0.035,0.669,0.106,0.195,-2.197,7.606,23.985
1747603831.23,0.069,-0.008,-0.024,0.688,0.117,0.159,-1.388,7.763,24.071
1747603831.25,0.112,-0.078,-0.072,0.585,0.015,0.166,-0.646,7.828,24.135
1747603831.27,0.163,-0.156,-0.061,0.502,-0.138,0.252,-0.012,7.773,24.296
1747603831.29,0.058,0.157,-0.024,0.487,-0.222,0.282,0.592,7.544,24.536
1747603831.31,-0.132,0.200,-0.037,0.543,0.058,0.247,1.218,7.420,24.766
1747603831.33,-0.149,-0.030,-0.034,0.468,0.280,0.164,1.825,7.640,24.898
1747603831.35,0.121,-0.202,-0.004,0.276,0.112,0.282,2.294,7.888,25.051
1747603831.37,0.457,-0.070,-0.159,0.156,-0.344,0.515,2.586,7.749,25.483
1747603831.39,0.231,0.034,-0.100,0.130,-0.466,0.537,2.815,7.210,26.029
1747603831.41,-0.239,-0.054,0.055,0.088,-0.122,0.705,3.021,6.799,26.707
1747603831.43,-0.329,-0.047,0.032,0.106,0.411,0.558,3.216,6.944,27.430
1747603831.45,-0.013,0.004,-0.114,0.048,0.353,0.470,3.371,7.409,27.955
1747603831.47,0.108,0.013,-0.122,-0.027,0.095,0.473,3.467,7.616,28.461
1747603831.49,0.072,0.004,-0.093,-0.071,-0.002,0.569,3.482,7.605,29.041
1747603831.51,-0.023,0.006,0.014,-0.077,0.188,0.443,3.471,7.669,29.643
1747603831.53,0.070,-0.048,0.046,-0.127,0.160,0.433,3.431,7.871,30.112
1747603831.55,0.100,0.007,-0.081,-0.218,0.054,0.559,3.322,7.937,30.694
1747603831.57,0.038,0.035,-0.124,-0.239,0.118,0.696,3.151,7.975,31.462
1747603831.59,-0.105,-0.013,-0.002,-0.235,0.381,0.542,2.972,8.234,32.225
1747603831.61,-0.053,-0.015,-0.009,-0.240,0.202,0.317,2.777,8.581,32.736
1747603831.63,0.103,-0.016,-0.063,-0.290,-0.141,0.341,2.529,8.582,33.126
1747603831.65,0.073,0.102,-0.110,-0.235,-0.191,0.380,2.282,8.332,33.582
1747603831.67,-0.170,0.120,-0.062,-0.196,0.111,0.337,2.114,8.253,34.033
1747603831.69,-0.137,-0.092,0.014,-0.220,0.256,0.075,1.914,8.510,34.325
1747603831.71,0.226,-0.334,0.077,-0.309,-0.142,0.105,1.634,8.619,34.448
1747603831.73,0.236,0.007,-0.036,-0.295,-0.420,0.182,1.315,8.229,34.651
1747603831.75,-0.018,0.266,-0.034,-0.287,-0.149,0.297,1.034,7.881,34.995
1747603831.77,-0.191,0.116,-0.100,-0.337,0.159,0.377,0.719,7.908,35.429
1747603831.79,-0.108,-0.124,-0.123,-0.339,0.186,0.181,0.387,8.123,35.818
1747603831.81,0.014,-0.125,-0.001,-0.352,0.081,-0.095,0.008,8.284,35.937
1747603831.83,-0.013,0.079,-0.041,-0.355,0.004,-0.230,-0.429,8.327,35.817
1747603831.85,-0.094,0.232,-0.180,-0.449,0.057,-0.106,-0.909,8.350,35.694
1747603831.87,-0.120,0.127,-0.196,-0.509,0.235,-0.088,-1.460,8.517,35.706
1747603831.89,-0.067,-0.193,-0.056,-0.551,0.270,-0.262,-2.082,8.817,35.634
1747603831.91,0.040,-0.215,-0.056,-0.640,0.046,-0.365,-2.806,9.002,35.401
1747603831.93,0.091,0.027,-0.103,-0.741,-0.103,-0.141,-3.636,8.906,35.249
1747603831.95,0.033,0.208,-0.104,-0.807,0.099,0.052,-4.518,8.912,35.402
1747603831.97,-0.003,0.035,-0.037,-0.859,0.265,0.032,-5.447,9.151,35.652
1747603831.99,0.102,-0.213,-0.022,-0.934,0.132,-0.010,-6.461,9.402,35.871
1747603832.01,0.082,-0.130,-0.031,-0.991,0.080,0.022,-7.548,9.534,36.097
1747603832.03,-0.026,0.086,-0.076,-1.046,0.192,0.045,-8.681,9.711,36.385
1747603832.05,-0.025,0.145,-0.108,-1.115,0.244,0.043,-9.889,10.016,36.698
1747603832.07,-0.022,0.057,-0.128,-1.138,0.163,-0.039,-11.158,10.305,37.001
1747603832.09,-0.064,-0.110,-0.045,-1.165,0.050,-0.217,-12.488,10.454,37.162
1747603832.11,-0.101,-0.153,-0.045,-1.160,0.004,-0.354,-13.848,10.449,37.114
1747603832.13,-0.088,-0.041,-0.086,-1.210,0.159,-0.306,-15.252,10.479,37.027
1747603832.15,-0.073,0.104,-0.057,-1.207,0.284,-0.299,-16.668,10.727,36.991
1747603832.17,-0.049,0.058,0.027,-1.142,0.315,-0.346,-18.055,11.036,36.934
1747603832.19,0.079,-0.095,0.038,-1.123,0.355,-0.366,-19.402,11.381,36.810
1747603832.21,0.116,-0.150,0.020,-1.176,0.327,-0.254,-20.744,11.717,36.762
1747603832.23,0.115,-0.033,0.041,-1.217,0.261,-0.120,-22.119,12.087,36.915
1747603832.25,0.022,0.102,0.024,-1.239,0.262,-0.108,-23.520,12.465,37.153
1747603832.27,-0.011,0.097,-0.022,-1.208,0.392,-0.128,-24.912,12.902,37.402
1747603832.29,-0.091,0.003,-0.038,-1.152,0.504,-0.201,-26.272,13.509,37.606
1747603832.31,-0.151,-0.113,-0.033,-1.178,0.596,-0.275,-27.633,14.135,37.732
