Time,AccX,AccY,AccZ,GyroX,GyroY,GyroZ,Pitch,Roll,Yaw
1747604285.58,0.147,-0.055,-0.078,-0.048,-0.050,0.040,-87.170,29.721,16.399
1747604285.59,0.178,0.005,-0.140,0.049,-0.173,0.087,-87.137,31.004,17.815
1747604285.60,0.092,0.034,-0.159,0.163,-0.142,0.057,-86.987,31.082,18.084
1747604285.62,-0.035,0.012,-0.141,0.201,0.029,-0.000,-86.774,29.343,16.419
1747604285.64,-0.106,-0.021,-0.036,0.094,0.148,-0.010,-86.629,27.884,14.850
1747604285.66,-0.010,-0.036,-0.014,0.039,0.187,0.047,-86.562,27.852,14.609
1747604285.68,0.099,0.012,0.001,0.037,0.091,0.068,-86.487,28.800,15.390
1747604285.70,0.015,0.018,-0.006,0.036,-0.001,-0.007,-86.430,29.022,15.580
1747604285.72,-0.041,0.022,-0.002,0.006,0.028,-0.042,-86.419,28.421,14.959
1747604285.74,-0.044,0.018,-0.003,0.018,-0.059,-0.064,-86.440,27.403,13.960
1747604285.76,0.005,0.015,0.015,0.011,-0.117,-0.046,-86.452,26.195,12.853
1747604285.78,0.013,0.023,0.050,-0.027,-0.189,-0.007,-86.473,25.725,12.548
1747604285.80,-0.030,-0.017,0.051,-0.084,-0.202,-0.010,-86.527,25.755,12.813
1747604285.82,-0.044,-0.033,0.087,-0.098,-0.157,-0.033,-86.641,26.061,13.320
1747604285.84,-0.066,-0.014,0.045,-0.049,-0.160,-0.058,-86.739,25.660,13.102
1747604285.86,-0.039,0.010,-0.005,-0.018,-0.126,-0.039,-86.801,24.880,12.482
1747604285.88,-0.009,0.004,-0.040,0.030,-0.053,-0.001,-86.812,24.396,12.104
1747604285.90,0.008,0.007,-0.027,0.003,0.032,0.053,-86.782,24.751,12.467
1747604285.92,-0.020,-0.017,-0.010,0.002,0.041,0.049,-86.762,25.783,13.463
1747604285.94,-0.028,-0.005,-0.024,0.027,0.089,0.040,-86.722,26.480,14.086
1747604285.96,0.000,0.018,-0.011,0.036,0.090,0.028,-86.674,26.886,14.387
1747604285.98,0.052,0.015,-0.002,0.077,0.041,0.040,-86.582,26.790,14.172
1747604286.00,0.022,-0.002,0.005,0.044,0.065,0.082,-86.499,27.355,14.686
1747604286.02,-0.009,-0.020,0.017,0.073,0.033,0.044,-86.409,27.820,15.088
1747604286.04,0.005,-0.013,0.012,0.104,-0.000,0.052,-86.296,27.847,15.105
1747604286.06,0.013,0.013,0.011,0.131,-0.035,0.027,-86.151,27.612,14.875
1747604286.08,-0.012,0.011,-0.005,0.163,-0.104,-0.000,-85.995,26.653,13.998
1747604286.10,0.002,0.002,0.001,0.197,-0.103,-0.000,-85.817,25.301,12.764
1747604286.12,-0.004,-0.029,0.005,0.202,-0.084,0.026,-85.608,24.035,11.607
1747604286.14,0.024,-0.029,-0.006,0.244,-0.101,0.064,-85.364,23.438,11.111
1747604286.16,0.004,0.025,-0.033,0.371,-0.049,0.039,-85.031,22.381,10.147
1747604286.18,-0.029,0.023,-0.002,0.420,0.044,0.067,-84.582,21.081,8.837
1747604286.20,-0.107,-0.043,-0.007,0.416,0.070,0.093,-84.105,20.323,8.030
1747604286.22,-0.057,-0.050,-0.003,0.386,0.322,0.122,-83.640,20.134,7.600
1747604286.24,0.059,0.046,-0.010,0.505,0.142,0.114,-83.114,20.104,7.263
1747604286.26,0.049,0.067,-0.052,0.570,0.022,0.035,-82.494,19.124,6.216
1747604286.28,0.043,-0.008,0.074,0.494,0.037,0.108,-81.901,18.254,5.299
1747604286.30,-0.019,-0.080,-0.021,0.538,0.025,0.137,-81.307,18.020,5.026
1747604286.32,-0.029,-0.047,-0.008,0.644,-0.055,0.076,-80.621,17.486,4.480
1747604286.34,-0.081,0.062,-0.077,0.749,-0.026,0.014,-79.842,16.328,3.409
1747604286.36,-0.070,0.026,-0.064,0.805,0.278,-0.025,-78.989,15.134,2.049
1747604286.38,-0.057,-0.016,-0.017,0.704,0.461,0.026,-78.147,14.469,0.885
1747604286.40,-0.040,-0.052,0.002,0.696,0.452,0.146,-77.347,14.478,0.391
1747604286.42,0.105,-0.030,0.059,0.646,0.362,0.216,-76.564,15.046,0.453
1747604286.44,0.175,-0.014,-0.028,0.816,0.135,0.154,-75.714,15.300,0.422
1747604286.46,0.173,-0.029,-0.038,0.880,-0.063,0.140,-74.707,14.965,0.029
1747604286.48,0.045,0.000,-0.044,0.744,-0.079,0.125,-73.758,14.507,-0.366
1747604286.50,-0.138,0.016,0.091,0.669,-0.062,0.098,-72.957,14.193,-0.662
1747604286.52,-0.134,-0.012,-0.007,0.627,0.220,0.129,-72.209,14.087,-0.934
1747604286.54,0.007,-0.024,-0.005,0.864,0.033,0.123,-71.365,14.099,-1.127
1747604286.56,-0.004,0.007,-0.118,1.137,-0.075,-0.015,-70.229,13.429,-1.794
1747604286.58,-0.136,0.006,-0.029,0.963,0.398,-0.159,-69.046,12.602,-2.906
1747604286.60,-0.350,-0.033,0.026,0.733,0.610,-0.171,-68.162,12.110,-4.075
1747604286.62,-0.264,-0.105,0.025,0.680,0.835,-0.046,-67.409,12.290,-4.854
1747604286.64,-0.019,-0.015,-0.021,0.835,0.595,-0.080,-66.601,12.571,-5.498
1747604286.66,0.087,0.018,-0.139,1.011,0.385,-0.051,-65.579,12.388,-6.292
1747604286.68,0.153,-0.014,0.073,1.042,0.611,-0.079,-64.425,12.265,-7.110
1747604286.70,0.012,-0.026,0.134,0.922,0.432,0.073,-63.321,12.355,-7.741
1747604286.72,0.016,0.005,0.019,0.792,0.337,0.217,-62.368,12.747,-7.860
1747604286.74,0.307,0.033,-0.045,1.015,-0.151,0.230,-61.295,12.907,-7.847
1747604286.76,0.273,-0.008,-0.051,1.014,-0.405,0.130,-60.105,12.494,-8.009
1747604286.78,-0.040,-0.039,-0.085,0.771,-0.339,0.131,-59.063,11.820,-8.233
1747604286.80,-0.150,-0.010,0.134,0.664,0.141,0.195,-58.252,11.815,-8.253
1747604286.82,-0.137,0.033,-0.002,0.667,0.133,0.272,-57.459,12.143,-8.095
1747604286.84,0.015,0.001,-0.004,0.864,0.119,0.214,-56.548,12.456,-7.983
1747604286.86,-0.020,-0.016,-0.058,0.789,0.107,0.083,-55.554,12.506,-8.113
1747604286.88,-0.152,-0.002,-0.015,0.644,0.101,0.032,-54.745,12.413,-8.412
1747604286.90,-0.018,-0.026,0.056,0.655,0.199,0.129,-54.023,12.537,-8.558
1747604286.92,0.129,-0.007,-0.002,0.739,-0.217,0.154,-53.209,12.507,-8.626
1747604286.94,0.080,0.012,-0.061,0.796,-0.382,0.027,-52.323,12.010,-8.836
1747604286.96,-0.050,0.020,-0.040,0.773,-0.123,0.060,-51.435,11.511,-9.131
1747604286.98,-0.077,0.017,0.018,0.750,0.189,0.199,-50.558,11.518,-9.224
1747604287.00,0.013,0.013,0.050,0.752,0.229,0.236,-49.656,11.875,-9.148
1747604287.02,0.141,0.032,0.022,0.705,0.014,0.307,-48.787,12.180,-8.997
1747604287.04,0.132,-0.004,-0.010,0.732,-0.151,0.337,-47.908,12.305,-8.760
1747604287.06,-0.003,-0.041,-0.012,0.757,-0.152,0.269,-46.999,12.284,-8.581
1747604287.08,-0.034,0.019,0.021,0.794,-0.089,0.127,-46.089,12.198,-8.584
1747604287.10,-0.042,0.090,0.006,0.827,-0.126,0.074,-45.164,11.983,-8.762
1747604287.12,-0.034,0.080,0.016,0.841,-0.170,0.143,-44.203,11.730,-8.925
1747604287.14,-0.005,0.021,-0.004,0.817,-0.051,0.143,-43.235,11.585,-8.993
1747604287.16,-0.044,-0.035,0.004,0.786,-0.039,0.104,-42.315,11.488,-9.117
1747604287.18,-0.068,-0.084,0.006,0.755,0.084,0.105,-41.435,11.473,-9.218
1747604287.20,0.059,-0.055,0.013,0.817,0.056,0.127,-40.527,11.523,-9.357
1747604287.22,0.104,0.033,-0.005,0.860,-0.085,0.163,-39.546,11.512,-9.380
1747604287.24,0.042,0.073,0.015,0.882,-0.191,0.142,-38.547,11.316,-9.456
1747604287.26,-0.016,0.022,0.012,0.871,-0.167,0.063,-37.537,11.049,-9.615
1747604287.28,-0.034,-0.064,0.022,0.874,-0.089,0.080,-36.545,10.801,-9.809
1747604287.30,0.034,-0.044,0.033,0.824,-0.031,0.157,-35.564,10.715,-9.920
1747604287.32,0.108,0.037,0.012,0.834,-0.153,0.277,-34.598,10.669,-9.878
1747604287.34,0.108,0.094,0.003,0.912,-0.247,0.293,-33.549,10.531,-9.745
1747604287.36,0.011,0.099,0.013,0.881,-0.255,0.217,-32.488,10.290,-9.664
1747604287.38,-0.055,0.011,0.012,0.836,-0.055,0.202,-31.479,10.145,-9.644
1747604287.40,-0.058,-0.039,-0.007,0.810,-0.013,0.237,-30.512,10.161,-9.570
1747604287.42,0.007,0.033,0.004,0.852,-0.110,0.215,-29.539,10.168,-9.494
1747604287.44,0.033,0.117,-0.017,0.920,-0.231,0.129,-28.497,9.974,-9.515
1747604287.46,-0.034,0.104,-0.017,0.951,-0.271,0.033,-27.428,9.620,-9.658
1747604287.48,-0.084,0.026,0.024,0.942,-0.145,-0.030,-26.347,9.298,-9.900
1747604287.50,-0.071,-0.031,0.027,0.909,-0.106,0.046,-25.304,9.073,-10.114
1747604287.52,0.089,-0.025,0.017,0.882,-0.042,0.136,-24.280,8.987,-10.205
1747604287.54,0.161,0.011,0.001,0.882,-0.155,0.208,-23.253,8.898,-10.183
1747604287.56,0.104,0.008,-0.014,0.884,-0.206,0.222,-22.218,8.723,-10.103
1747604287.58,0.095,0.000,0.013,0.936,-0.191,0.197,-21.151,8.530,-10.040
1747604287.60,0.019,-0.024,-0.017,0.916,-0.199,0.218,-20.070,8.350,-9.985
1747604287.62,-0.076,-0.020,0.014,0.929,-0.115,0.234,-18.985,8.196,-9.876
1747604287.64,-0.055,0.030,0.022,0.910,-0.053,0.208,-17.911,8.149,-9.792
1747604287.66,0.026,0.061,0.004,0.908,-0.101,0.253,-16.852,8.109,-9.695
1747604287.68,0.062,0.033,-0.020,0.898,-0.143,0.260,-15.795,8.004,-9.547
1747604287.70,-0.035,0.058,-0.011,0.919,-0.119,0.233,-14.722,7.888,-9.433
1747604287.72,-0.104,0.054,-0.019,0.874,-0.044,0.259,-13.664,7.822,-9.336
1747604287.74,-0.103,0.016,-0.021,0.754,-0.019,0.453,-12.676,7.858,-9.074
1747604287.76,0.071,-0.078,-0.144,0.742,-0.024,0.417,-11.783,7.908,-8.672
1747604287.78,0.156,-0.023,-0.096,0.765,-0.163,0.382,-10.854,7.891,-8.338
1747604287.80,0.091,-0.055,-0.017,0.695,-0.267,0.390,-9.970,7.689,-8.013
1747604287.82,-0.039,-0.128,-0.024,0.680,-0.253,0.383,-9.130,7.422,-7.678
1747604287.84,-0.131,-0.078,0.030,0.774,0.005,0.330,-8.283,7.318,-7.364
1747604287.86,-0.141,0.063,0.052,0.898,0.167,0.201,-7.270,7.454,-7.181
1747604287.88,-0.150,0.027,0.010,0.783,0.216,0.120,-6.304,7.684,-7.107
1747604287.90,-0.081,-0.110,-0.011,0.788,0.211,-0.030,-5.408,7.919,-7.158
1747604287.92,-0.066,-0.061,0.019,0.822,0.251,-0.134,-4.508,8.184,-7.377
1747604287.94,-0.053,0.049,0.027,0.881,0.197,-0.120,-3.565,8.410,-7.654
1747604287.96,-0.048,0.132,0.030,0.939,0.131,-0.177,-2.559,8.577,-7.971
1747604287.98,-0.039,0.056,-0.012,0.908,0.155,-0.208,-1.548,8.749,-8.329
1747604288.00,0.014,-0.031,-0.015,0.878,0.203,-0.203,-0.579,8.939,-8.705
1747604288.02,0.042,-0.010,-0.005,0.889,0.077,-0.200,0.391,9.076,-9.074
1747604288.04,0.076,0.061,0.012,0.867,-0.045,-0.194,1.345,9.114,-9.455
1747604288.06,0.046,-0.001,-0.024,0.891,-0.056,-0.189,2.318,9.048,-9.821
1747604288.08,0.043,0.009,-0.038,0.882,-0.023,-0.220,3.283,9.011,-10.201
1747604288.10,0.019,0.007,-0.013,0.896,0.101,-0.226,4.238,9.096,-10.621
1747604288.12,0.044,0.033,-0.005,0.935,0.091,-0.180,5.243,9.250,-11.042
1747604288.14,0.167,0.079,-0.015,0.925,-0.095,-0.125,6.260,9.285,-11.412
1747604288.16,0.145,0.066,-0.005,0.964,-0.116,-0.033,7.311,9.167,-11.696
1747604288.18,0.011,0.046,-0.031,0.936,0.083,-0.015,8.382,9.173,-11.896
1747604288.20,-0.010,-0.098,-0.064,0.864,0.118,-0.018,9.390,9.341,-12.100
1747604288.22,0.067,-0.041,-0.085,0.805,-0.016,-0.014,10.323,9.448,-12.315
1747604288.24,0.106,0.051,-0.064,0.795,-0.195,-0.011,11.221,9.347,-12.499
1747604288.26,0.117,0.060,-0.052,0.783,-0.283,0.042,12.123,9.089,-12.643
1747604288.28,0.033,0.040,-0.062,0.749,-0.182,0.056,12.999,8.826,-12.723
1747604288.30,0.021,-0.060,-0.056,0.700,-0.085,0.076,13.833,8.695,-12.781
1747604288.32,0.023,-0.026,-0.030,0.679,-0.099,0.094,14.619,8.610,-12.800
1747604288.34,0.076,0.035,-0.009,0.645,-0.178,0.093,15.383,8.458,-12.808
1747604288.36,0.112,0.009,-0.060,0.625,-0.284,0.081,16.121,8.186,-12.820
1747604288.38,0.027,-0.010,-0.061,0.588,-0.216,0.069,16.820,7.887,-12.839
1747604288.40,-0.071,-0.093,-0.039,0.532,-0.079,0.062,17.461,7.726,-12.846
1747604288.42,-0.054,-0.045,0.003,0.505,-0.092,0.028,18.055,7.646,-12.877
1747604288.44,0.003,0.014,0.001,0.479,-0.193,-0.010,18.618,7.514,-12.940
1747604288.46,0.036,-0.018,-0.060,0.447,-0.282,-0.023,19.140,7.257,-13.013
1747604288.48,-0.020,-0.051,-0.071,0.396,-0.177,-0.017,19.619,7.019,-13.076
1747604288.50,-0.042,-0.084,-0.057,0.327,-0.104,-0.013,20.029,6.894,-13.122
1747604288.52,0.010,-0.053,-0.039,0.293,-0.156,-0.023,20.373,6.775,-13.168
1747604288.54,0.020,0.022,-0.030,0.298,-0.175,-0.031,20.704,6.609,-13.231
1747604288.56,0.001,0.013,-0.058,0.256,-0.156,-0.016,21.019,6.444,-13.287
1747604288.57,0.012,-0.007,-0.075,0.214,-0.152,-0.004,21.282,6.282,-13.321
1747604288.59,0.015,-0.027,-0.063,0.163,-0.134,-0.009,21.498,6.132,-13.337
1747604288.62,-0.011,-0.043,-0.035,0.104,-0.114,-0.014,21.646,6.003,-13.350
1747604288.63,-0.034,-0.022,-0.034,0.088,-0.127,-0.023,21.751,5.880,-13.366
1747604288.65,-0.017,-0.002,-0.079,0.041,-0.137,-0.039,21.823,5.746,-13.395
1747604288.67,-0.027,-0.024,-0.045,0.018,-0.118,-0.046,21.850,5.620,-13.443
1747604288.69,-0.041,-0.004,-0.026,0.009,-0.107,-0.050,21.859,5.513,-13.487
1747604288.71,-0.040,0.022,-0.029,0.022,-0.104,-0.063,21.872,5.420,-13.546
1747604288.73,-0.027,0.025,-0.034,0.034,-0.091,-0.080,21.899,5.340,-13.629
1747604288.75,-0.029,-0.008,-0.003,0.027,-0.064,-0.080,21.918,5.288,-13.730
1747604288.77,-0.035,-0.000,-0.004,0.042,-0.059,-0.082,21.952,5.254,-13.817
1747604288.79,-0.024,-0.005,-0.013,0.059,-0.065,-0.101,21.993,5.223,-13.915
1747604288.81,-0.006,-0.001,0.007,0.073,-0.057,-0.109,22.057,5.200,-14.032
1747604288.83,-0.017,-0.025,0.019,0.077,-0.027,-0.097,22.127,5.194,-14.157
1747604288.85,-0.027,-0.004,0.016,0.101,0.003,-0.065,22.220,5.209,-14.253
1747604288.87,-0.008,0.006,-0.010,0.118,0.004,-0.056,22.336,5.235,-14.324
1747604288.89,0.017,0.000,0.005,0.138,0.007,-0.050,22.477,5.271,-14.396
1747604288.91,0.014,-0.013,0.007,0.123,-0.002,-0.034,22.633,5.299,-14.462
1747604288.93,0.006,-0.023,-0.007,0.126,0.019,-0.012,22.778,5.308,-14.486
1747604288.95,0.004,-0.025,-0.001,0.117,0.050,0.003,22.914,5.357,-14.497
1747604288.97,0.010,-0.008,-0.030,0.098,0.061,0.042,23.037,5.415,-14.481
1747604288.99,-0.009,-0.001,-0.024,0.104,0.099,0.049,23.146,5.483,-14.424
1747604289.01,-0.027,0.013,-0.011,0.093,0.178,0.017,23.299,5.642,-14.388
1747604289.03,-0.055,-0.056,-0.066,-0.002,0.178,0.012,23.342,5.836,-14.383
1747604289.05,-0.020,-0.011,-0.099,-0.102,0.151,0.003,23.288,6.017,-14.356
1747604289.07,-0.004,-0.060,-0.097,-0.159,0.227,-0.010,23.157,6.223,-14.332
1747604289.09,-0.056,-0.061,-0.092,-0.282,0.155,-0.020,22.897,6.453,-14.316
1747604289.11,-0.059,-0.086,-0.096,-0.419,0.124,-0.044,22.491,6.595,-14.278
1747604289.13,0.002,-0.075,-0.152,-0.552,0.095,-0.042,21.941,6.718,-14.240
1747604289.15,0.069,-0.110,-0.139,-0.715,0.090,0.050,21.223,6.797,-14.132
1747604289.17,0.122,-0.122,-0.098,-0.873,0.042,0.187,20.334,6.775,-13.858
1747604289.19,0.222,-0.148,-0.093,-0.987,-0.001,0.320,19.305,6.648,-13.400
1747604289.21,0.203,-0.101,-0.089,-1.074,0.059,0.405,18.186,6.475,-12.799
1747604289.23,0.072,-0.094,-0.054,-1.176,0.218,0.451,16.958,6.435,-12.124
1747604289.25,0.009,-0.115,-0.069,-1.276,0.299,0.454,15.634,6.551,-11.395
1747604289.27,0.002,-0.090,-0.077,-1.346,0.299,0.473,14.202,6.706,-10.671
1747604289.29,0.034,-0.086,-0.080,-1.359,0.222,0.447,12.724,6.834,-9.913
1747604289.31,-0.052,-0.038,-0.049,-1.395,0.308,0.310,11.218,7.012,-9.247
1747604289.33,-0.112,-0.026,-0.043,-1.432,0.319,0.247,9.662,7.251,-8.709
1747604289.35,-0.014,-0.071,-0.022,-1.470,0.394,0.321,8.040,7.617,-8.147
1747604289.37,0.074,-0.054,-0.058,-1.487,0.325,0.260,6.409,7.960,-7.534
1747604289.39,0.070,-0.023,-0.072,-1.509,0.253,0.170,4.760,8.222,-7.031
1747604289.41,-0.059,-0.005,-0.022,-1.548,0.276,0.104,3.058,8.496,-6.584
1747604289.43,-0.087,-0.010,-0.058,-1.617,0.313,0.116,1.290,8.819,-6.145
1747604289.45,-0.020,0.011,-0.069,-1.607,0.309,0.009,-0.511,9.169,-5.725
1747604289.47,-0.091,0.042,-0.063,-1.605,0.288,-0.222,-2.338,9.511,-5.508
1747604289.49,-0.227,-0.017,-0.062,-1.648,0.358,-0.367,-4.221,9.878,-5.482
1747604289.51,-0.149,-0.072,-0.094,-1.654,0.352,-0.411,-6.159,10.273,-5.547
1747604289.53,0.012,-0.015,-0.043,-1.671,0.265,-0.417,-8.106,10.615,-5.624
1747604289.55,0.075,0.080,0.031,-1.706,0.275,-0.381,-10.073,10.914,-5.675
1747604289.57,0.140,0.087,0.025,-1.749,0.358,-0.271,-12.088,11.271,-5.611
1747604289.59,0.169,-0.014,-0.050,-1.790,0.363,-0.162,-14.123,11.725,-5.412
1747604289.61,0.137,-0.102,0.022,-1.791,0.333,-0.114,-16.160,12.219,-5.103
1747604289.63,0.084,-0.117,0.053,-1.777,0.264,-0.098,-18.178,12.657,-4.750
1747604289.65,0.087,-0.068,0.043,-1.743,0.276,-0.118,-20.166,13.085,-4.386
1747604289.67,0.028,-0.031,0.015,-1.766,0.252,-0.143,-22.152,13.505,-4.040
1747604289.69,-0.003,-0.050,0.053,-1.755,0.211,-0.108,-24.154,13.912,-3.646
1747604289.71,0.026,-0.071,0.049,-1.635,0.206,-0.080,-26.052,14.340,-3.222
1747604289.73,-0.026,-0.069,0.018,-1.595,0.213,-0.141,-27.858,14.746,-2.835
1747604289.75,-0.038,-0.072,0.053,-1.590,0.207,-0.157,-29.659,15.146,-2.485
1747604289.77,0.017,-0.079,0.027,-1.568,0.107,-0.092,-31.441,15.526,-2.096
1747604289.79,0.086,-0.077,0.057,-1.481,0.068,-0.049,-33.146,15.882,-1.612
1747604289.81,0.049,-0.067,0.048,-1.410,-0.058,-0.086,-34.757,16.168,-1.132
1747604289.83,-0.126,-0.036,-0.012,-1.404,-0.043,-0.173,-36.342,16.301,-0.734
1747604289.85,-0.188,0.003,0.040,-1.350,-0.004,-0.175,-37.924,16.456,-0.407
1747604289.87,-0.060,0.027,0.047,-1.343,0.102,-0.164,-39.436,16.733,-0.062
1747604289.89,0.109,-0.011,-0.066,-1.366,0.003,-0.198,-40.981,17.013,0.285
1747604289.91,0.094,-0.090,-0.094,-1.281,-0.035,-0.258,-42.496,17.171,0.556
1747604289.93,-0.004,-0.147,-0.065,-1.346,-0.102,-0.220,-44.002,17.242,0.800
1747604289.95,0.060,-0.188,-0.027,-1.498,-0.145,-0.116,-45.610,17.393,1.234
1747604289.97,0.259,-0.177,0.037,-1.548,-0.222,0.017,-47.278,17.685,1.926
1747604289.99,0.341,-0.094,0.077,-1.564,-0.392,0.170,-48.950,18.080,2.962
1747604290.01,0.154,0.031,-0.007,-1.514,-0.598,0.155,-50.561,18.363,4.188
1747604290.03,-0.081,0.099,-0.035,-1.449,-0.582,-0.001,-52.132,18.468,5.204
1747604290.05,-0.186,0.049,-0.042,-1.421,-0.506,-0.157,-53.717,18.405,5.938
1747604290.07,-0.174,-0.013,0.013,-1.417,-0.432,-0.191,-55.317,18.308,6.512
1747604290.09,-0.143,-0.021,0.051,-1.383,-0.217,-0.188,-56.914,18.361,7.069
1747604290.11,-0.136,0.011,-0.048,-1.304,-0.082,-0.251,-58.448,18.638,7.587
1747604290.13,-0.218,0.017,-0.145,-1.121,-0.117,-0.447,-59.897,18.622,7.740
1747604290.15,-0.191,-0.066,-0.145,-0.966,0.173,-0.635,-61.215,18.229,7.306
1747604290.17,-0.081,-0.159,-0.050,-1.251,0.587,-0.626,-62.607,18.028,6.588
1747604290.19,0.157,-0.138,0.065,-1.405,0.357,-0.234,-64.256,18.653,6.630
1747604290.21,0.346,-0.077,0.053,-1.198,0.123,0.022,-65.710,19.785,7.642
1747604290.23,0.435,-0.029,-0.084,-1.089,-0.221,0.005,-66.890,20.845,8.840
1747604290.25,0.199,-0.044,-0.188,-1.185,-0.665,-0.164,-68.150,21.215,9.842
1747604290.27,-0.096,-0.094,-0.170,-1.181,-0.721,-0.308,-69.502,20.992,10.522
1747604290.29,-0.119,-0.041,-0.089,-1.129,-0.425,-0.372,-70.895,20.584,10.827
1747604290.31,-0.045,0.008,0.014,-1.097,-0.390,-0.255,-72.200,20.463,11.194
1747604290.33,-0.162,-0.007,-0.037,-0.963,-0.399,-0.161,-73.396,20.699,11.973
1747604290.35,-0.311,-0.044,-0.203,-0.875,0.106,-0.315,-74.457,20.935,12.494
1747604290.37,-0.405,-0.008,-0.142,-0.917,0.822,-0.484,-75.559,21.141,12.180
1747604290.39,-0.285,0.034,0.057,-1.110,1.256,-0.377,-76.831,22.204,12.064
1747604290.41,0.013,-0.070,0.164,-1.186,1.426,-0.256,-78.191,24.671,13.011
1747604290.43,0.325,-0.068,0.055,-1.197,0.809,-0.139,-79.502,28.205,15.295
1747604290.45,0.337,0.113,-0.020,-0.992,-0.004,-0.387,-80.740,30.894,17.605
1747604290.47,0.062,0.135,-0.089,-0.785,-0.284,-0.633,-81.903,30.710,17.641
1747604290.49,-0.120,0.021,-0.021,-0.839,-0.185,-0.626,-83.054,28.913,16.104
1747604290.51,-0.172,-0.056,-0.015,-0.991,-0.120,-0.494,-84.283,28.225,15.635
1747604290.53,-0.088,-0.108,0.009,-1.047,0.270,-0.339,-85.541,29.865,17.236
1747604290.55,0.080,-0.126,0.051,-1.070,0.799,-0.085,-86.680,37.470,24.221
1747604290.57,0.101,-0.039,-0.027,-0.969,0.731,0.037,-87.509,55.411,41.281
1747604290.59,0.021,0.074,-0.139,-0.664,0.459,-0.124,-87.920,77.334,62.536
1747604290.61,-0.004,0.096,-0.123,-0.494,0.251,-0.263,-88.187,96.236,81.049
1747604290.63,-0.027,0.025,-0.036,-0.462,-0.103,-0.280,-88.341,116.541,101.263
1747604290.65,-0.092,-0.079,0.004,-0.469,-0.203,-0.310,-88.295,137.814,122.762
1747604290.67,-0.050,-0.084,0.063,-0.441,0.116,-0.197,-88.021,154.530,139.555
1747604290.69,0.014,0.004,0.022,-0.392,0.312,-0.024,-87.618,162.231,147.005
1747604290.71,0.013,0.069,-0.024,-0.326,0.304,-0.029,-87.236,165.541,149.967
1747604290.73,-0.020,0.027,0.012,-0.251,0.264,-0.064,-86.933,168.517,152.621
1747604290.75,-0.038,0.014,-0.013,-0.202,0.243,-0.055,-86.683,170.914,154.722
1747604290.77,-0.047,0.006,-0.012,-0.150,0.231,-0.108,-86.504,173.029,156.576
1747604290.79,0.004,-0.043,0.035,-0.198,0.146,-0.106,-86.324,175.722,159.034
1747604290.81,0.082,-0.024,0.029,-0.171,-0.041,-0.075,-86.108,177.408,160.680
1747604290.83,0.103,0.055,-0.005,-0.056,-0.233,0.012,-85.979,177.810,161.250
1747604290.85,0.024,-0.009,0.033,-0.083,-0.279,-0.008,-85.910,177.328,161.078
1747604290.87,-0.056,-0.070,0.064,-0.093,-0.112,-0.084,-85.798,177.911,161.882
1747604290.89,-0.071,-0.004,0.018,-0.027,-0.006,-0.088,-85.750,179.309,163.343
1747604290.91,-0.028,0.021,0.033,-0.083,-0.039,-0.055,-85.681,-179.629,164.430
1747604290.93,0.063,0.031,-0.032,0.011,-0.005,0.009,-85.628,-179.363,164.725
1747604290.95,0.038,0.002,-0.007,0.035,-0.114,0.060,-85.667,-179.969,164.177
1747604290.97,-0.057,-0.005,-0.011,0.084,0.007,0.037,-85.725,179.278,163.512
1747604290.99,-0.068,-0.021,0.026,0.075,0.146,0.033,-85.834,178.813,162.941
1747604291.01,-0.003,-0.014,0.050,0.069,0.105,0.022,-85.899,178.535,162.504
1747604291.03,0.057,0.003,0.002,0.182,-0.087,0.042,-86.045,177.877,161.828
1747604291.05,0.036,0.000,0.006,0.170,-0.190,0.038,-86.250,176.998,161.137
1747604291.07,0.045,-0.010,0.048,0.140,-0.140,0.066,-86.412,175.718,160.028
1747604291.09,-0.035,0.011,0.010,0.140,-0.083,0.036,-86.577,174.529,158.972
1747604291.11,-0.029,-0.016,0.060,0.057,-0.031,0.048,-86.675,173.339,157.837
1747604291.13,-0.009,-0.007,0.048,0.142,-0.028,0.008,-86.773,172.494,157.019
1747604291.15,-0.003,0.008,-0.014,0.226,-0.091,0.012,-86.985,171.627,156.223
1747604291.17,-0.007,0.038,-0.037,0.301,-0.037,0.037,-87.270,170.104,154.781
1747604291.19,-0.042,0.020,-0.022,0.335,0.007,0.084,-87.619,166.990,151.688
1747604291.21,-0.051,-0.038,0.029,0.294,0.091,0.045,-87.934,162.746,147.387
1747604291.23,-0.025,-0.044,0.017,0.280,0.036,0.042,-88.227,158.519,143.064
1747604291.25,0.091,-0.020,-0.033,0.405,-0.060,0.070,-88.535,150.931,135.489
1747604291.27,0.156,0.024,-0.026,0.518,-0.069,0.159,-88.892,130.838,115.477
1747604291.29,0.094,0.011,0.070,0.428,-0.318,0.211,-88.921,99.114,83.980
1747604291.31,-0.135,0.024,0.098,0.190,-0.168,0.081,-88.739,81.279,66.464
1747604291.33,-0.156,-0.045,0.172,0.064,0.199,-0.045,-88.708,75.724,60.854
1747604291.35,-0.024,-0.011,0.169,0.140,-0.124,-0.103,-88.759,70.627,55.655
1747604291.37,0.007,0.056,-0.029,0.426,-0.473,-0.145,-88.738,53.843,39.263
1747604291.39,0.044,0.028,-0.076,0.578,-0.265,-0.044,-88.394,33.748,19.602
1747604291.41,-0.022,0.015,-0.106,0.575,0.016,0.035,-87.790,23.899,9.911
1747604291.43,-0.144,-0.033,-0.024,0.445,0.298,-0.000,-87.252,19.812,5.622
1747604291.45,-0.197,-0.054,-0.073,0.409,0.550,-0.061,-86.796,16.514,1.840
1747604291.47,-0.043,0.003,-0.023,0.486,0.710,0.002,-86.330,14.466,-0.965
1747604291.49,0.106,0.047,-0.021,0.524,0.496,0.095,-85.746,13.882,-2.265
1747604291.51,0.119,0.008,-0.042,0.453,0.436,0.084,-85.167,14.077,-2.589
1747604291.53,0.010,-0.071,-0.025,0.397,0.402,0.027,-84.692,13.978,-3.166
1747604291.55,-0.003,-0.051,-0.037,0.481,0.224,-0.002,-84.210,13.247,-4.289
1747604291.57,0.044,0.035,-0.111,0.578,0.213,-0.022,-83.616,12.113,-5.649
1747604291.59,0.045,0.028,-0.070,0.569,0.267,-0.042,-82.976,10.980,-7.074
1747604291.61,-0.068,-0.047,-0.117,0.528,0.280,-0.080,-82.378,9.880,-8.482
1747604291.63,-0.105,-0.056,-0.088,0.619,0.253,-0.099,-81.761,8.698,-10.006
1747604291.65,-0.046,0.013,-0.131,0.771,0.288,-0.149,-80.980,7.363,-11.625
1747604291.67,0.012,-0.016,-0.114,0.857,0.512,-0.175,-80.080,5.995,-13.496
1747604291.69,-0.029,-0.042,-0.050,0.775,0.510,-0.046,-79.160,5.351,-14.763
1747604291.71,-0.117,-0.054,-0.067,0.715,0.601,0.091,-78.316,5.695,-15.083
1747604291.73,0.120,-0.058,-0.052,0.934,0.634,0.192,-77.394,6.778,-14.740
1747604291.75,0.345,-0.013,-0.095,0.991,0.686,0.206,-76.230,7.880,-14.425
1747604291.77,0.235,0.021,0.065,0.767,0.121,0.260,-75.188,8.847,-13.978
1747604291.78,-0.120,-0.029,-0.019,0.641,-0.023,0.297,-74.341,9.472,-13.322
1747604291.80,-0.160,-0.054,0.118,0.570,0.226,0.240,-73.625,10.331,-12.592
1747604291.82,-0.023,0.022,0.060,0.881,0.132,0.093,-72.791,10.696,-12.514
1747604291.84,0.095,0.016,-0.028,1.023,-0.207,0.082,-71.669,10.266,-12.947
1747604291.86,0.101,0.020,0.058,0.836,-0.288,0.182,-70.594,9.829,-13.099
1747604291.88,0.011,-0.016,0.050,0.678,0.095,0.304,-69.699,10.019,-12.741
1747604291.90,-0.063,-0.006,0.177,0.650,0.300,0.270,-68.910,10.908,-12.185
1747604291.92,-0.192,0.046,-0.051,0.822,-0.016,0.160,-68.058,11.201,-11.998
1747604291.94,0.000,0.032,0.011,1.017,0.249,0.034,-66.990,11.100,-12.309
1747604291.96,-0.024,0.038,0.043,0.837,0.022,0.032,-65.925,10.861,-12.789
1747604291.98,-0.171,0.016,0.131,0.557,0.376,0.160,-65.123,10.936,-12.925
1747604292.00,-0.071,0.005,0.171,0.624,0.404,0.212,-64.454,11.622,-12.763
1747604292.02,0.077,0.015,0.013,0.713,0.073,0.288,-63.635,12.213,-12.473
1747604292.04,0.138,0.123,-0.050,0.866,-0.178,0.089,-62.712,12.176,-12.430
1747604292.06,0.092,0.156,0.062,1.005,-0.249,-0.032,-61.636,11.536,-12.909
1747604292.08,-0.044,0.071,0.116,0.881,0.142,-0.038,-60.584,10.961,-13.489
1747604292.10,0.008,-0.105,0.124,0.755,0.311,0.079,-59.679,10.979,-13.853
1747604292.12,0.124,-0.169,-0.141,0.741,0.135,0.207,-58.807,11.268,-13.870
1747604292.14,0.108,-0.067,-0.135,0.831,-0.122,0.168,-57.904,11.356,-13.824
1747604292.16,-0.040,0.073,-0.074,0.987,-0.110,0.077,-56.836,11.063,-13.997
1747604292.18,-0.116,0.081,0.065,0.825,0.153,0.013,-55.810,10.843,-14.363
1747604292.20,-0.081,-0.017,0.011,0.736,0.069,0.247,-54.923,10.951,-14.425
1747604292.22,0.113,-0.080,-0.019,0.887,-0.037,0.323,-53.965,11.216,-14.149
1747604292.24,0.144,-0.083,-0.091,0.918,-0.247,0.202,-52.872,11.160,-14.001
1747604292.26,-0.012,-0.038,-0.049,0.965,-0.179,0.096,-51.796,10.818,-14.113
1747604292.28,-0.029,-0.054,0.059,0.872,0.103,0.152,-50.727,10.700,-14.249
1747604292.30,0.070,-0.071,0.032,0.756,0.083,0.356,-49.769,10.923,-14.128
1747604292.32,0.175,-0.071,-0.043,0.810,-0.124,0.439,-48.807,11.301,-13.702
1747604292.34,0.082,-0.061,-0.062,0.864,-0.431,0.467,-47.779,11.309,-13.244
1747604292.36,0.053,0.014,0.027,0.959,-0.327,0.303,-46.647,11.137,-12.921
1747604292.38,-0.107,0.101,0.009,0.867,-0.307,0.174,-45.566,10.836,-12.888
1747604292.40,-0.160,0.054,0.008,0.824,-0.111,0.235,-44.582,10.621,-12.854
1747604292.42,-0.050,-0.005,-0.010,0.825,-0.036,0.328,-43.601,10.694,-12.687
1747604292.44,-0.048,-0.008,-0.009,0.876,-0.146,0.302,-42.579,10.763,-12.451
1747604292.46,-0.052,0.030,0.028,0.929,-0.070,0.185,-41.502,10.727,-12.363
1747604292.48,-0.078,0.069,0.006,0.928,-0.097,0.032,-40.431,10.578,-12.512
1747604292.50,-0.061,0.039,-0.010,0.904,-0.062,0.098,-39.391,10.360,-12.715
1747604292.52,0.038,-0.007,-0.005,0.933,-0.139,0.178,-38.331,10.249,-12.780
1747604292.54,0.002,-0.025,0.019,0.991,-0.237,0.176,-37.220,10.016,-12.788
1747604292.56,-0.000,-0.026,0.036,1.068,-0.115,0.068,-36.023,9.748,-12.898
1747604292.58,-0.014,-0.014,0.002,1.024,-0.029,0.000,-34.816,9.544,-13.173
1747604292.60,0.021,-0.014,0.002,0.905,-0.020,0.152,-33.725,9.472,-13.306
1747604292.62,0.117,-0.001,0.029,0.940,-0.045,0.328,-32.655,9.513,-13.209
1747604292.64,0.095,0.053,0.023,1.047,-0.140,0.296,-31.470,9.521,-13.021
1747604292.66,-0.005,0.086,0.010,1.051,-0.172,0.183,-30.236,9.359,-12.971
1747604292.68,-0.002,0.004,0.020,0.984,-0.170,0.176,-29.053,9.162,-12.993
1747604292.70,-0.013,-0.035,0.004,0.981,-0.106,0.203,-27.923,9.014,-12.984
1747604292.72,-0.004,0.012,0.006,1.000,-0.097,0.192,-26.774,8.954,-12.965
1747604292.74,-0.028,0.044,-0.008,1.002,-0.155,0.195,-25.617,8.826,-12.931
1747604292.76,0.043,0.013,-0.011,1.037,-0.189,0.186,-24.428,8.637,-12.907
1747604292.78,0.097,-0.001,0.047,0.999,-0.187,0.221,-23.249,8.439,-12.856
1747604292.80,0.033,0.023,0.021,0.940,-0.177,0.271,-22.108,8.288,-12.759
1747604292.82,-0.023,0.009,-0.053,0.960,-0.163,0.293,-21.001,8.161,-12.595
1747604292.84,0.022,0.023,0.002,1.040,-0.168,0.214,-19.830,8.033,-12.493
1747604292.86,0.058,-0.002,0.008,1.054,-0.226,0.207,-18.604,7.815,-12.446
1747604292.88,0.086,-0.059,0.022,1.083,-0.173,0.286,-17.360,7.624,-12.357
1747604292.90,-0.026,-0.039,0.027,1.073,-0.042,0.312,-16.094,7.560,-12.176
1747604292.92,-0.077,0.074,0.012,1.100,0.118,0.325,-14.817,7.672,-11.978
1747604292.94,-0.047,0.100,-0.043,1.046,-0.034,0.278,-13.553,7.785,-11.818
1747604292.96,-0.016,-0.020,-0.058,1.017,-0.120,0.222,-12.346,7.706,-11.697
1747604292.98,0.029,-0.070,0.005,1.040,-0.089,0.167,-11.147,7.598,-11.653
1747604293.00,-0.081,-0.026,0.095,1.037,0.021,0.218,-9.943,7.566,-11.615
1747604293.02,-0.104,0.015,-0.003,1.039,0.055,0.261,-8.730,7.645,-11.503
1747604293.04,0.023,0.020,-0.075,1.014,-0.039,0.176,-7.528,7.671,-11.402
1747604293.06,0.077,-0.052,-0.119,0.933,-0.125,0.126,-6.395,7.576,-11.421
1747604293.08,-0.023,-0.207,-0.062,0.879,-0.078,0.181,-5.362,7.438,-11.393
1747604293.10,0.010,0.050,0.075,0.941,0.071,0.203,-4.303,7.448,-11.302
1747604293.12,-0.056,0.214,0.111,0.975,0.147,0.192,-3.184,7.593,-11.212
1747604293.14,0.007,0.051,-0.046,0.996,0.052,0.124,-2.040,7.721,-11.175
1747604293.16,0.034,-0.026,-0.115,0.977,-0.059,0.017,-0.901,7.691,-11.250
1747604293.18,0.015,-0.036,-0.040,1.009,0.079,0.022,0.217,7.692,-11.386
1747604293.20,-0.055,0.102,0.094,1.015,0.161,0.076,1.378,7.853,-11.480
1747604293.22,-0.040,0.156,0.015,1.057,0.069,0.033,2.558,7.985,-11.566
1747604293.24,-0.006,0.074,-0.090,1.066,0.029,-0.091,3.748,8.060,-11.750
1747604293.26,-0.034,-0.055,-0.041,1.036,0.121,-0.149,4.912,8.161,-12.049
1747604293.28,-0.030,-0.042,-0.015,1.030,0.058,-0.063,6.068,8.300,-12.327
1747604293.30,0.079,0.137,-0.014,1.035,-0.128,-0.114,7.213,8.315,-12.606
1747604293.32,0.084,0.063,-0.021,1.069,-0.103,-0.131,8.377,8.193,-12.925
1747604293.34,0.059,-0.082,-0.067,1.038,-0.059,-0.139,9.542,8.145,-13.266
1747604293.36,0.056,-0.107,-0.060,0.963,0.059,-0.111,10.656,8.201,-13.582
1747604293.38,0.051,-0.016,-0.030,0.955,0.068,-0.045,11.720,8.329,-13.833
1747604293.40,0.071,0.128,-0.008,0.908,0.025,-0.010,12.776,8.432,-14.031
1747604293.42,0.082,0.040,-0.085,0.889,0.020,0.027,13.806,8.476,-14.191
1747604293.44,0.042,-0.053,-0.078,0.812,0.092,0.076,14.783,8.558,-14.297
1747604293.46,-0.010,-0.072,-0.089,0.745,0.123,0.123,15.673,8.709,-14.329
1747604293.48,0.114,-0.047,-0.083,0.698,-0.022,0.147,16.512,8.768,-14.300
1747604293.50,0.136,0.064,-0.027,0.660,-0.203,0.146,17.306,8.610,-14.246
1747604293.52,0.075,-0.002,-0.027,0.636,-0.202,0.128,18.063,8.352,-14.190
1747604293.54,-0.034,-0.059,-0.031,0.574,-0.017,0.081,18.765,8.211,-14.150
1747604293.56,-0.072,-0.123,-0.024,0.502,0.054,0.057,19.384,8.245,-14.130
1747604293.58,0.006,-0.090,-0.045,0.408,-0.060,0.050,19.911,8.268,-14.131
1747604293.60,0.097,-0.059,-0.070,0.387,-0.181,0.020,20.358,8.130,-14.146
1747604293.62,0.020,-0.012,-0.067,0.338,-0.159,0.033,20.775,7.933,-14.175
1747604293.64,-0.066,-0.057,-0.077,0.232,-0.025,0.036,21.109,7.830,-14.166
1747604293.66,-0.024,-0.124,-0.027,0.158,-0.006,0.022,21.327,7.826,-14.167
1747604293.68,0.049,-0.078,-0.034,0.083,-0.103,0.037,21.472,7.757,-14.144
1747604293.70,0.062,-0.022,-0.053,0.058,-0.112,0.063,21.554,7.605,-14.077
1747604293.72,0.010,-0.020,-0.060,0.025,-0.080,0.081,21.617,7.468,-13.992
1747604293.74,-0.015,-0.029,-0.026,-0.019,-0.026,0.096,21.634,7.368,-13.866
1747604293.76,0.012,-0.018,-0.030,-0.048,-0.057,0.102,21.613,7.278,-13.717
1747604293.78,0.014,0.008,-0.040,-0.039,-0.083,0.084,21.573,7.154,-13.575
1747604293.80,-0.020,0.033,-0.029,-0.025,-0.053,0.074,21.554,7.032,-13.450
1747604293.82,-0.056,-0.000,-0.025,-0.082,-0.013,0.094,21.503,6.960,-13.314
1747604293.84,-0.049,0.018,-0.015,-0.043,0.099,0.069,21.454,6.969,-13.175
1747604293.86,-0.036,0.053,-0.065,-0.048,0.080,0.087,21.404,7.032,-13.054
1747604293.88,-0.039,0.005,-0.048,-0.109,0.105,0.095,21.318,7.092,-12.907
1747604293.90,-0.003,-0.060,-0.078,-0.158,0.057,0.107,21.194,7.120,-12.742
1747604293.92,0.035,-0.048,-0.107,-0.278,0.017,0.114,20.957,7.107,-12.559
1747604293.94,-0.012,-0.053,-0.055,-0.431,0.088,0.197,20.580,7.066,-12.292
1747604293.96,-0.019,-0.074,-0.125,-0.570,0.182,0.210,20.047,7.120,-11.953
1747604293.98,-0.007,-0.140,-0.143,-0.738,0.199,0.168,19.333,7.226,-11.604
1747604294.00,0.035,-0.193,-0.102,-0.884,0.111,0.199,18.444,7.312,-11.250
1747604294.02,0.048,-0.122,-0.148,-1.028,-0.018,0.235,17.381,7.233,-10.806
1747604294.04,0.013,-0.086,-0.148,-1.145,0.020,0.194,16.183,7.093,-10.368
1747604294.06,-0.059,-0.107,-0.061,-1.253,0.079,0.167,14.854,7.055,-9.965
1747604294.08,-0.051,-0.129,-0.059,-1.273,0.164,0.206,13.433,7.086,-9.534
1747604294.10,0.024,-0.069,-0.029,-1.265,0.267,0.115,12.037,7.261,-9.118
1747604294.12,-0.016,-0.041,-0.011,-1.268,0.235,0.085,10.630,7.485,-8.792
1747604294.14,-0.071,-0.050,-0.008,-1.277,0.308,0.066,9.178,7.745,-8.472
1747604294.16,-0.018,-0.012,-0.006,-1.321,0.335,0.111,7.731,8.078,-8.149
1747604294.18,0.137,-0.044,-0.080,-1.329,0.321,0.180,6.255,8.397,-7.711
1747604294.20,0.084,-0.047,-0.017,-1.290,0.351,0.098,4.791,8.722,-7.279
1747604294.22,-0.047,-0.041,-0.016,-1.349,0.351,0.004,3.316,9.125,-6.962
1747604294.24,-0.098,-0.058,-0.084,-1.483,0.364,0.064,1.720,9.503,-6.638
1747604294.26,0.065,-0.073,-0.095,-1.518,0.339,0.064,0.037,9.901,-6.222
1747604294.28,0.134,-0.038,0.002,-1.519,0.215,-0.083,-1.666,10.230,-5.894
1747604294.30,-0.007,-0.059,-0.043,-1.568,0.243,-0.128,-3.416,10.480,-5.649
1747604294.32,-0.121,-0.073,-0.045,-1.625,0.244,-0.179,-5.245,10.780,-5.414
1747604294.34,-0.121,-0.048,-0.044,-1.628,0.212,-0.343,-7.133,11.055,-5.301
1747604294.36,-0.059,-0.061,-0.029,-1.612,0.128,-0.494,-9.034,11.235,-5.373
1747604294.38,-0.024,-0.098,-0.023,-1.611,0.138,-0.522,-10.957,11.346,-5.556
1747604294.40,-0.003,-0.105,-0.020,-1.612,0.181,-0.483,-12.893,11.464,-5.724
1747604294.42,0.051,-0.048,0.093,-1.616,0.282,-0.383,-14.793,11.713,-5.823
1747604294.44,0.053,0.013,0.047,-1.610,0.393,-0.321,-16.666,12.088,-5.809
1747604294.46,0.125,0.015,-0.010,-1.609,0.437,-0.233,-18.535,12.598,-5.695
1747604294.48,0.129,-0.010,0.008,-1.581,0.250,-0.188,-20.360,13.072,-5.487
1747604294.50,0.042,0.003,0.012,-1.548,0.179,-0.233,-22.152,13.381,-5.270
1747604294.52,0.011,0.001,0.054,-1.550,0.106,-0.242,-23.940,13.593,-5.079
1747604294.54,-0.001,-0.035,0.044,-1.504,0.218,-0.242,-25.699,13.832,-4.899
1747604294.56,-0.040,-0.076,-0.020,-1.487,0.354,-0.241,-27.432,14.227,-4.709
1747604294.58,-0.051,-0.089,0.019,-1.484,0.375,-0.283,-29.142,14.747,-4.546
1747604294.60,-0.036,-0.069,0.009,-1.550,0.321,-0.268,-30.895,15.211,-4.366
1747604294.62,0.052,-0.020,-0.006,-1.519,0.192,-0.255,-32.675,15.640,-4.133
1747604294.64,0.013,0.017,0.002,-1.529,0.053,-0.233,-34.419,15.900,-3.854
1747604294.66,-0.034,0.033,0.030,-1.463,0.095,-0.311,-36.142,16.082,-3.616
1747604294.68,-0.003,0.016,0.013,-1.475,0.072,-0.338,-37.850,16.279,-3.476
1747604294.70,0.075,-0.014,0.009,-1.559,0.045,-0.276,-39.618,16.461,-3.264
1747604294.72,0.148,-0.032,0.026,-1.564,-0.018,-0.174,-41.403,16.710,-2.886
1747604294.74,0.101,-0.017,-0.028,-1.518,-0.182,-0.162,-43.136,16.894,-2.410
1747604294.76,0.004,-0.037,-0.019,-1.508,-0.168,-0.200,-44.851,16.989,-1.953
1747604294.78,-0.026,-0.043,-0.004,-1.561,-0.155,-0.213,-46.596,17.087,-1.522
1747604294.80,0.031,-0.006,0.037,-1.574,-0.276,-0.199,-48.387,17.204,-1.050
1747604294.82,0.078,0.048,0.016,-1.508,-0.478,-0.219,-50.134,17.113,-0.573
1747604294.84,0.060,0.090,0.031,-1.507,-0.544,-0.280,-51.865,16.788,-0.193
1747604294.86,-0.064,0.062,0.045,-1.476,-0.496,-0.328,-53.603,16.395,0.055
1747604294.88,-0.114,-0.034,0.032,-1.428,-0.298,-0.291,-55.293,16.096,0.255
1747604294.90,-0.012,-0.100,0.011,-1.477,-0.280,-0.162,-56.957,16.065,0.619
1747604294.92,0.120,-0.080,0.029,-1.422,-0.184,-0.140,-58.603,16.329,1.213
1747604294.94,0.063,-0.026,0.007,-1.315,-0.259,-0.241,-60.152,16.461,1.686
1747604294.96,-0.058,-0.039,0.003,-1.321,-0.228,-0.297,-61.677,16.393,1.947
1747604294.97,-0.053,-0.076,0.003,-1.310,-0.138,-0.315,-63.219,16.357,2.150
1747604294.99,-0.003,-0.031,0.025,-1.240,-0.151,-0.279,-64.724,16.390,2.382
1747604295.01,-0.011,0.016,-0.002,-1.190,-0.147,-0.284,-66.113,16.373,2.584
1747604295.03,0.033,-0.029,0.057,-1.254,-0.016,-0.249,-67.569,16.574,2.890
1747604295.05,0.032,-0.090,-0.050,-1.158,-0.179,-0.326,-68.981,16.673,3.120
1747604295.07,0.053,-0.065,-0.041,-1.162,-0.002,-0.347,-70.352,16.539,3.129
1747604295.09,0.046,0.027,0.031,-1.231,0.038,-0.284,-71.748,16.712,3.287
1747604295.11,0.049,-0.006,0.050,-1.334,0.100,-0.232,-73.248,17.281,3.814
1747604295.13,0.159,-0.115,0.038,-1.411,-0.196,-0.069,-74.782,18.362,4.982
1747604295.15,0.219,-0.071,-0.103,-1.321,-0.519,-0.027,-76.277,19.711,6.844
1747604295.17,0.182,0.013,-0.067,-1.334,-0.679,-0.038,-77.726,21.189,9.053
1747604295.19,0.059,0.020,-0.104,-1.254,-0.968,0.014,-79.083,22.871,11.764
1747604295.21,0.174,-0.070,-0.127,-1.278,-1.192,0.071,-80.403,25.038,15.238
1747604295.23,0.362,-0.137,-0.168,-1.001,-1.541,0.217,-81.516,28.108,19.950
1747604295.25,0.149,-0.049,-0.162,-0.856,-1.808,0.163,-82.289,31.401,25.269
1747604295.27,-0.266,0.036,-0.152,-0.713,-1.407,-0.053,-83.025,33.547,29.394
1747604295.29,-0.565,-0.093,-0.123,-0.565,-0.637,-0.136,-83.704,35.192,32.230
1747604295.31,-0.833,0.014,-0.221,-0.386,0.354,-0.395,-84.294,35.694,32.978
1747604295.33,-0.912,0.186,-0.053,-0.220,1.326,-0.621,-84.935,33.454,29.776
1747604295.35,-0.521,0.002,0.071,-0.384,2.262,-0.421,-85.525,31.142,25.372
1747604295.37,0.018,-0.168,0.245,-0.636,2.250,-0.067,-86.179,35.145,26.718
1747604295.39,0.479,-0.054,0.051,-0.665,1.331,0.148,-86.714,46.062,35.591
1747604295.41,0.817,0.082,-0.048,-0.554,0.604,0.092,-87.009,59.253,47.730
1747604295.43,0.635,0.143,-0.089,-0.395,-0.110,-0.219,-87.317,68.623,56.851
1747604295.45,0.214,0.045,-0.108,-0.228,-0.619,-0.420,-87.769,73.288,61.974
1747604295.47,-0.125,-0.043,-0.144,-0.231,-1.003,-0.592,-88.408,74.292,63.938
1747604295.49,-0.248,-0.130,-0.051,-0.383,-0.869,-0.482,-89.106,83.262,74.060
1747604295.51,-0.182,-0.097,0.002,-0.492,-0.093,-0.079,-89.321,125.570,116.973
1747604295.53,-0.177,-0.009,0.029,-0.489,0.718,0.150,-88.846,147.570,138.622
1747604295.55,-0.163,0.073,-0.050,-0.376,1.282,0.157,-88.331,152.595,142.451
1747604295.57,-0.132,0.044,-0.038,-0.289,1.176,0.014,-87.944,155.914,144.332
1747604295.59,-0.067,-0.015,-0.036,-0.226,0.955,-0.164,-87.703,162.268,149.474
1747604295.61,0.095,-0.005,-0.043,-0.140,0.604,-0.195,-87.562,169.603,155.903
1747604295.63,0.201,-0.021,0.019,-0.188,0.141,-0.130,-87.409,174.738,160.626
1747604295.65,0.196,0.014,0.047,-0.140,-0.232,-0.031,-87.212,176.707,162.670
1747604295.67,0.060,0.002,0.036,-0.128,-0.242,-0.049,-87.080,177.300,163.578
1747604295.69,-0.012,-0.036,0.082,-0.193,-0.217,-0.068,-86.895,178.450,164.969
1747604295.71,-0.075,-0.011,0.042,-0.200,-0.220,-0.143,-86.668,-179.565,167.232
1747604295.73,-0.071,0.010,0.035,-0.163,-0.035,-0.129,-86.449,-177.239,169.718
1747604295.75,-0.054,0.041,0.011,-0.148,0.098,-0.079,-86.276,-175.420,171.483
1747604295.77,-0.067,0.003,0.020,-0.213,0.215,-0.029,-86.063,-174.647,172.078
1747604295.79,-0.071,-0.027,0.013,-0.203,0.270,-0.019,-85.822,-174.370,172.069
1747604295.81,-0.041,-0.003,-0.002,-0.112,0.310,-0.030,-85.636,-173.964,172.156
1747604295.83,0.012,0.013,0.012,-0.002,0.243,-0.020,-85.572,-173.341,172.451
1747604295.85,0.046,0.006,0.012,-0.020,0.034,-0.019,-85.570,-172.869,172.753
1747604295.87,0.072,-0.030,0.020,0.004,-0.131,-0.006,-85.546,-172.734,172.951
1747604295.89,0.040,0.009,-0.000,0.055,-0.183,-0.008,-85.575,-172.697,173.192
1747604295.91,0.008,0.029,0.010,0.072,-0.079,-0.006,-85.650,-172.649,173.381
1747604295.93,-0.018,-0.006,0.004,0.052,-0.083,-0.006,-85.723,-172.575,173.540
1747604295.95,-0.027,-0.010,-0.007,0.023,-0.022,0.018,-85.760,-172.772,173.421
1747604295.97,-0.050,-0.011,0.015,0.002,0.116,0.004,-85.778,-173.044,173.096
1747604295.99,-0.049,-0.011,0.022,0.003,0.226,0.004,-85.778,-172.897,173.039
1747604296.01,-0.009,0.002,0.015,0.033,0.181,0.006,-85.803,-172.683,173.015
1747604296.03,0.021,0.008,0.003,0.077,0.098,-0.014,-85.861,-172.278,173.259
1747604296.05,0.047,-0.006,-0.011,0.082,0.021,0.021,-85.951,-171.876,173.594
1747604296.07,0.045,-0.010,0.007,0.126,-0.073,0.032,-86.065,-172.037,173.463
1747604296.09,-0.012,0.008,0.005,0.165,-0.137,0.019,-86.236,-172.235,173.390
1747604296.11,-0.044,0.015,-0.000,0.126,-0.015,-0.011,-86.409,-172.013,173.713
1747604296.13,0.005,-0.007,0.038,0.055,0.088,-0.011,-86.507,-171.564,174.105
1747604296.15,0.074,-0.016,0.039,0.045,-0.009,0.047,-86.559,-171.857,173.761
1747604296.17,0.055,-0.009,0.036,0.090,-0.118,0.044,-86.640,-172.763,172.931
1747604296.19,-0.038,-0.005,0.014,0.157,-0.111,-0.008,-86.780,-172.812,173.022
1747604296.21,-0.056,0.007,-0.019,0.195,-0.075,0.002,-86.978,-172.272,173.670
1747604296.23,-0.034,-0.005,-0.003,0.230,-0.098,0.037,-87.217,-172.301,173.743
1747604296.25,-0.014,-0.011,0.015,0.245,-0.055,0.057,-87.494,-172.975,173.154
1747604296.27,-0.025,0.003,0.029,0.273,-0.095,0.056,-87.781,-173.740,172.471
1747604296.29,-0.028,0.033,0.006,0.390,-0.048,0.064,-88.164,-174.339,171.968
1747604296.31,-0.007,0.005,0.039,0.402,-0.003,0.123,-88.632,-176.636,169.696
1747604296.33,-0.004,-0.043,0.062,0.368,0.026,0.110,-89.064,176.485,162.798
1747604296.35,-0.012,-0.029,0.028,0.442,0.011,0.072,-89.492,162.077,148.366
1747604296.37,0.011,0.043,-0.001,0.532,-0.009,0.095,-89.739,70.876,57.169
1747604296.39,0.020,0.043,0.031,0.508,-0.111,0.137,-89.219,29.783,16.132
1747604296.41,-0.016,-0.054,0.005,0.529,-0.120,0.121,-88.626,22.752,9.248
1747604296.43,-0.053,-0.047,0.027,0.644,-0.008,0.136,-87.957,19.310,5.889
1747604296.45,-0.061,0.064,0.030,0.663,0.063,0.125,-87.190,17.216,3.745
1747604296.47,-0.050,0.069,0.038,0.680,0.050,0.072,-86.416,15.311,1.773
1747604296.49,-0.027,-0.023,0.031,0.643,0.046,0.068,-85.665,13.674,0.070
1747604296.51,0.018,-0.072,0.008,0.719,-0.009,0.110,-84.900,12.846,-0.789
1747604296.53,-0.055,-0.013,-0.085,0.907,0.059,0.021,-83.974,11.735,-1.890
1747604296.55,-0.146,-0.009,-0.099,1.060,0.507,-0.161,-82.867,9.544,-4.417
1747604296.57,-0.219,-0.009,-0.041,1.018,0.805,-0.222,-81.724,7.360,-7.397
1747604296.59,-0.223,0.005,-0.093,0.974,1.124,-0.128,-80.612,6.138,-9.735
1747604296.61,-0.047,-0.010,0.024,0.919,1.360,0.051,-79.546,6.735,-10.610
1747604296.63,-0.014,-0.047,0.008,0.853,1.152,0.086,-78.538,7.980,-10.863
1747604296.65,0.036,-0.082,-0.128,0.854,0.878,0.126,-77.551,8.950,-11.009
1747604296.67,0.182,-0.056,-0.074,0.910,0.901,0.168,-76.528,10.010,-10.974
1747604296.69,0.312,0.004,0.021,0.831,0.522,0.192,-75.512,10.953,-10.909
1747604296.71,0.240,0.012,0.014,0.856,-0.086,0.191,-74.529,11.315,-10.820
1747604296.73,0.105,0.011,-0.068,0.773,-0.275,0.173,-73.578,11.152,-10.717
1747604296.75,0.042,-0.025,0.049,0.998,-0.120,0.122,-72.556,10.805,-10.869
1747604296.77,-0.022,-0.045,0.043,0.857,-0.118,0.187,-71.450,10.567,-11.016
1747604296.79,-0.090,0.005,0.077,0.699,0.107,0.219,-70.536,10.764,-10.817
1747604296.81,-0.149,0.064,0.117,0.560,0.206,0.147,-69.805,11.165,-10.622
1747604296.83,-0.136,0.095,0.074,0.652,0.186,0.132,-69.103,11.448,-10.608
1747604296.85,-0.085,0.053,0.042,0.784,0.213,0.082,-68.273,11.570,-10.719
1747604296.87,-0.023,-0.005,-0.019,0.845,0.254,-0.001,-67.343,11.480,-11.160
1747604296.89,0.043,-0.027,-0.037,0.916,0.220,0.052,-66.357,11.333,-11.637
1747604296.91,0.009,-0.044,0.056,0.874,0.283,0.017,-65.335,11.312,-12.020
1747604296.93,-0.139,-0.042,-0.036,0.805,0.212,-0.142,-64.407,11.020,-12.646
1747604296.95,-0.169,-0.030,-0.101,0.813,0.536,-0.205,-63.545,10.674,-13.558
1747604296.97,0.015,-0.045,-0.070,0.922,0.573,-0.081,-62.617,10.640,-14.335
1747604296.99,0.124,-0.044,0.054,1.101,0.477,-0.085,-61.470,10.707,-14.984
1747604297.01,-0.045,-0.025,-0.001,0.918,0.489,-0.272,-60.346,10.508,-15.879
1747604297.03,-0.220,-0.020,-0.094,0.852,0.419,-0.216,-59.409,10.147,-16.934
1747604297.05,0.017,-0.040,-0.032,0.833,0.563,0.077,-58.505,10.341,-17.404
1747604297.07,0.310,-0.056,-0.011,1.017,0.216,0.130,-57.443,10.736,-17.528
1747604297.09,0.330,-0.036,-0.053,1.106,0.002,0.059,-56.208,10.635,-17.780
1747604297.11,0.266,-0.004,0.090,1.031,-0.276,0.013,-54.969,10.222,-18.178
1747604297.13,0.139,-0.008,-0.047,0.825,-0.408,0.169,-53.918,9.666,-18.372
1747604297.15,0.163,-0.066,0.006,0.798,-0.427,0.335,-52.975,9.390,-18.201
1747604297.17,0.171,-0.067,0.015,0.892,-0.460,0.454,-51.956,9.265,-17.740
1747604297.19,0.091,0.031,0.049,0.993,-0.247,0.447,-50.784,9.258,-17.242
1747604297.21,-0.055,0.107,0.054,0.912,-0.211,0.409,-49.621,9.414,-16.805
1747604297.23,-0.170,0.104,-0.059,0.840,-0.171,0.338,-48.582,9.481,-16.445
1747604297.25,-0.062,0.020,0.042,0.917,-0.167,0.246,-47.530,9.480,-16.231
1747604297.27,-0.011,0.017,0.011,0.962,-0.207,0.146,-46.420,9.287,-16.216
1747604297.29,0.003,0.023,0.098,0.925,-0.058,0.082,-45.330,9.110,-16.260
1747604297.31,-0.034,0.046,-0.058,0.797,-0.124,0.064,-44.333,8.930,-16.440
1747604297.33,-0.064,0.003,-0.077,0.702,-0.173,0.257,-43.480,8.800,-16.445
1747604297.35,-0.101,-0.016,-0.010,0.831,-0.117,0.019,-42.588,8.636,-16.476
1747604297.37,-0.052,-0.004,0.019,0.870,-0.029,-0.092,-41.636,8.369,-16.776
1747604297.39,-0.017,0.043,0.110,0.943,0.107,-0.132,-40.632,8.217,-17.125
1747604297.41,-0.020,0.078,-0.056,0.840,0.035,-0.198,-39.637,7.987,-17.676
1747604297.43,-0.002,-0.058,-0.092,0.772,-0.086,0.001,-38.743,7.745,-18.027
1747604297.45,0.087,-0.106,-0.006,0.746,-0.078,0.250,-37.870,7.696,-18.034
1747604297.47,0.205,0.006,0.047,0.878,0.030,0.148,-36.943,7.710,-18.015
1747604297.49,0.146,0.030,0.055,0.976,-0.022,0.167,-35.837,7.757,-18.004
1747604297.51,-0.022,-0.038,-0.121,0.915,-0.187,0.172,-34.723,7.670,-17.988
1747604297.53,-0.008,-0.142,0.007,0.884,-0.109,0.199,-33.681,7.552,-17.933
1747604297.55,0.039,-0.180,0.057,0.915,-0.090,0.258,-32.625,7.526,-17.821
1747604297.57,0.013,-0.099,0.010,1.002,-0.105,0.226,-31.504,7.507,-17.689
1747604297.59,-0.112,0.088,0.003,0.963,-0.056,0.056,-30.365,7.423,-17.695
1747604297.61,-0.204,0.136,0.051,0.910,0.002,0.006,-29.296,7.306,-17.864
1747604297.63,-0.053,0.097,0.066,0.965,0.056,0.034,-28.244,7.292,-18.046
1747604297.65,0.024,0.082,0.009,1.037,-0.037,0.078,-27.093,7.278,-18.154
1747604297.67,0.052,0.158,-0.003,1.040,-0.149,0.091,-25.901,7.149,-18.251
1747604297.69,0.050,0.157,0.037,1.030,-0.137,0.125,-24.714,6.942,-18.318
1747604297.71,0.050,0.029,0.028,1.055,-0.002,0.122,-23.518,6.855,-18.351
1747604297.73,-0.031,-0.071,-0.002,1.077,0.099,0.095,-22.282,6.895,-18.418
1747604297.75,0.028,-0.027,-0.023,1.004,0.105,0.044,-21.104,7.018,-18.513
1747604297.77,0.004,0.029,-0.039,1.013,-0.098,0.118,-19.953,7.001,-18.601
1747604297.79,0.035,0.063,-0.021,1.039,-0.111,0.091,-18.772,6.861,-18.662
1747604297.81,0.004,0.078,0.027,1.085,-0.011,0.002,-17.559,6.755,-18.795
1747604297.83,-0.061,-0.011,-0.013,1.020,0.037,0.018,-16.371,6.746,-18.963
1747604297.85,-0.018,-0.067,-0.012,0.990,0.039,0.060,-15.227,6.762,-19.071
1747604297.87,0.072,-0.036,-0.047,0.957,-0.075,0.152,-14.100,6.742,-19.134
1747604297.89,0.126,-0.019,-0.079,0.889,-0.229,0.294,-13.017,6.585,-19.029
1747604297.91,0.105,0.002,-0.005,0.823,-0.093,0.297,-12.013,6.424,-18.819
1747604297.93,0.010,-0.061,-0.026,0.750,0.102,0.273,-11.080,6.504,-18.606
1747604297.95,-0.102,-0.149,-0.086,0.707,0.174,0.310,-10.216,6.708,-18.396
1747604297.97,-0.041,-0.064,-0.009,0.785,0.178,0.272,-9.343,6.949,-18.168
1747604297.99,-0.065,0.047,-0.001,0.816,0.138,0.189,-8.390,7.150,-18.034
1747604298.01,-0.072,0.000,0.023,0.777,0.084,0.106,-7.474,7.300,-17.983
1747604298.03,-0.051,-0.076,-0.045,0.731,0.036,0.031,-6.604,7.350,-18.037
1747604298.05,0.015,-0.075,-0.010,0.710,0.029,0.029,-5.790,7.391,-18.139
1747604298.07,0.071,-0.024,0.020,0.741,0.014,0.106,-4.962,7.394,-18.193
1747604298.09,0.015,0.114,0.048,0.752,0.106,0.128,-4.097,7.458,-18.169
1747604298.11,-0.042,0.084,-0.007,0.759,0.069,0.102,-3.220,7.570,-18.168
1747604298.13,0.084,-0.022,-0.055,0.761,-0.066,0.047,-2.345,7.591,-18.234
1747604298.14,0.151,-0.098,-0.035,0.794,-0.127,0.047,-1.479,7.446,-18.318
1747604298.16,0.059,-0.062,0.047,0.819,0.038,0.091,-0.547,7.385,-18.382
1747604298.19,-0.071,0.042,0.029,0.802,0.232,0.147,0.380,7.549,-18.386
1747604298.21,0.017,0.093,-0.002,0.800,0.253,0.162,1.319,7.834,-18.342
1747604298.22,0.186,0.121,-0.037,0.774,-0.023,0.169,2.233,8.003,-18.305
1747604298.24,0.186,-0.027,-0.049,0.804,-0.170,0.178,3.151,7.855,-18.240
1747604298.26,0.091,-0.017,-0.021,0.837,0.028,0.217,4.111,7.750,-18.155
1747604298.28,-0.021,0.077,0.000,0.919,0.273,0.298,5.144,7.920,-18.008
1747604298.30,-0.062,0.139,-0.047,0.896,0.265,0.237,6.227,8.240,-17.846
1747604298.32,0.035,0.105,-0.063,0.822,-0.054,0.162,7.231,8.366,-17.764
1747604298.34,0.074,-0.012,-0.094,0.793,-0.171,0.034,8.165,8.213,-17.784
1747604298.36,0.002,-0.039,-0.092,0.730,-0.121,-0.028,9.023,8.044,-17.923
1747604298.38,-0.079,0.000,-0.050,0.718,0.009,0.016,9.839,8.019,-18.030
1747604298.40,-0.066,0.179,-0.038,0.720,0.005,0.008,10.655,8.049,-18.123
1747604298.42,0.019,0.093,-0.056,0.697,-0.168,-0.034,11.452,7.983,-18.237
1747604298.44,0.070,0.014,-0.089,0.694,-0.233,-0.120,12.239,7.784,-18.437
1747604298.46,-0.009,-0.092,-0.088,0.630,-0.103,-0.113,12.968,7.630,-18.674
1747604298.48,-0.001,-0.057,-0.033,0.583,-0.052,-0.053,13.635,7.605,-18.863
1747604298.50,0.052,0.026,-0.027,0.545,-0.131,-0.027,14.265,7.541,-18.989
1747604298.52,0.052,0.026,-0.082,0.503,-0.182,-0.025,14.864,7.373,-19.091
1747604298.54,0.043,-0.058,-0.069,0.456,-0.116,-0.011,15.397,7.222,-19.165
1747604298.56,0.006,-0.120,-0.035,0.369,-0.048,-0.045,15.864,7.170,-19.249
1747604298.58,-0.019,-0.146,-0.042,0.292,-0.046,-0.026,16.240,7.137,-19.323
1747604298.60,-0.010,-0.034,-0.027,0.272,-0.079,-0.036,16.552,7.091,-19.394
1747604298.62,-0.063,0.010,-0.025,0.214,-0.029,-0.064,16.821,7.053,-19.484
1747604298.64,-0.033,-0.083,-0.040,0.140,0.027,-0.076,17.019,7.092,-19.583
1747604298.66,0.063,-0.098,-0.094,0.020,-0.055,-0.025,17.093,7.098,-19.646
1747604298.68,0.044,-0.099,-0.099,-0.094,-0.041,0.034,17.056,7.040,-19.624
1747604298.70,0.030,-0.074,-0.049,-0.165,0.012,0.063,16.926,6.989,-19.541
1747604298.72,0.004,-0.024,-0.049,-0.265,-0.029,0.100,16.690,6.952,-19.405
1747604298.74,-0.013,-0.092,-0.130,-0.443,0.015,0.065,16.327,6.901,-19.234
1747604298.76,0.026,-0.182,-0.187,-0.611,-0.088,0.115,15.738,6.817,-19.054
1747604298.78,0.008,-0.168,-0.126,-0.755,-0.086,0.142,14.969,6.647,-18.784
1747604298.80,0.004,-0.094,-0.099,-0.869,-0.000,0.129,14.075,6.521,-18.484
1747604298.82,-0.016,-0.112,-0.100,-0.976,0.131,0.146,13.050,6.530,-18.182
1747604298.84,-0.044,-0.065,-0.117,-1.081,0.201,0.114,11.892,6.665,-17.865
1747604298.86,-0.055,-0.079,-0.099,-1.181,0.218,0.067,10.631,6.863,-17.590
1747604298.88,0.003,-0.063,-0.136,-1.293,0.156,0.078,9.243,7.021,-17.317
1747604298.90,-0.068,-0.071,-0.096,-1.367,0.206,0.083,7.740,7.182,-16.999
1747604298.92,-0.023,-0.044,-0.110,-1.404,0.204,0.003,6.165,7.397,-16.716
1747604298.94,-0.013,-0.032,-0.051,-1.433,0.205,-0.032,4.555,7.615,-16.489
1747604298.96,-0.028,-0.050,-0.070,-1.484,0.246,-0.085,2.895,7.856,-16.299
1747604298.98,-0.008,-0.094,-0.030,-1.503,0.217,-0.169,1.175,8.118,-16.162
1747604299.00,-0.021,-0.088,-0.007,-1.483,0.266,-0.245,-0.548,8.391,-16.114
1747604299.02,-0.057,-0.037,-0.045,-1.502,0.344,-0.251,-2.273,8.735,-16.103
1747604299.04,0.049,-0.007,-0.094,-1.534,0.414,-0.246,-4.030,9.182,-16.086
1747604299.06,0.034,-0.010,-0.051,-1.603,0.355,-0.220,-5.841,9.627,-16.010
1747604299.08,0.027,-0.017,-0.003,-1.621,0.297,-0.221,-7.695,10.000,-15.912
1747604299.10,0.064,0.006,0.002,-1.664,0.139,-0.206,-9.595,10.277,-15.788
1747604299.12,0.015,0.039,0.021,-1.627,0.213,-0.245,-11.483,10.474,-15.657
1747604299.14,-0.088,0.039,-0.040,-1.669,0.226,-0.310,-13.393,10.732,-15.590
1747604299.16,-0.055,-0.042,0.016,-1.690,0.291,-0.338,-15.355,11.035,-15.567
1747604299.18,0.063,-0.123,0.056,-1.620,0.111,-0.271,-17.291,11.290,-15.498
1747604299.20,0.067,-0.103,0.021,-1.585,0.024,-0.304,-19.150,11.351,-15.420
1747604299.22,0.015,-0.043,0.059,-1.578,0.034,-0.309,-20.988,11.393,-15.394
1747604299.24,0.021,-0.029,0.005,-1.597,0.048,-0.195,-22.829,11.448,-15.318
1747604299.26,0.093,-0.032,0.070,-1.545,0.130,-0.056,-24.603,11.661,-15.064
1747604299.28,0.093,-0.000,0.072,-1.483,0.198,-0.034,-26.298,11.991,-14.703
1747604299.30,0.037,0.033,-0.004,-1.516,0.137,-0.079,-27.975,12.350,-14.380
1747604299.32,-0.030,-0.023,0.053,-1.513,0.153,-0.013,-29.681,12.678,-14.013
1747604299.34,0.012,-0.058,0.037,-1.501,0.156,-0.027,-31.373,13.078,-13.572
1747604299.36,0.009,-0.029,0.011,-1.532,0.144,-0.100,-33.066,13.452,-13.176
1747604299.38,0.049,-0.000,-0.014,-1.587,0.083,-0.050,-34.826,13.801,-12.776
1747604299.40,0.089,-0.032,0.026,-1.523,0.038,-0.001,-36.561,14.192,-12.254
1747604299.42,-0.004,-0.052,-0.006,-1.551,-0.083,-0.064,-38.261,14.449,-11.731
1747604299.44,-0.047,-0.036,-0.004,-1.567,-0.056,-0.142,-40.018,14.622,-11.289
1747604299.46,0.009,-0.034,-0.069,-1.541,-0.086,-0.143,-41.771,14.807,-10.903
1747604299.48,0.053,-0.069,-0.021,-1.553,0.041,-0.051,-43.518,15.097,-10.419
1747604299.50,0.122,-0.104,0.053,-1.533,0.236,0.032,-45.229,15.677,-9.752
1747604299.52,0.123,-0.077,-0.007,-1.465,0.261,-0.085,-46.863,16.503,-9.089
1747604299.54,-0.024,-0.031,-0.027,-1.571,0.059,-0.070,-48.564,17.082,-8.480
1747604299.56,-0.006,0.012,0.051,-1.552,-0.058,-0.001,-50.282,17.685,-7.676
1747604299.58,0.020,0.119,0.078,-1.521,-0.211,-0.123,-51.978,18.161,-6.867
1747604299.60,-0.045,0.128,-0.013,-1.423,-0.403,-0.257,-53.637,18.195,-6.344
1747604299.62,-0.080,0.010,-0.036,-1.396,-0.417,-0.313,-55.270,17.962,-6.003
1747604299.64,-0.061,-0.083,-0.006,-1.413,-0.321,-0.336,-56.895,17.752,-5.757
1747604299.66,0.006,-0.095,0.035,-1.521,-0.358,-0.187,-58.587,17.694,-5.329
1747604299.68,0.079,-0.090,0.028,-1.504,-0.446,-0.109,-60.307,17.922,-4.519
1747604299.70,-0.024,-0.109,-0.046,-1.269,-0.431,-0.177,-61.860,18.015,-3.792
1747604299.72,-0.090,-0.132,-0.135,-1.243,-0.352,-0.275,-63.285,17.927,-3.381
1747604299.74,-0.009,-0.107,-0.087,-1.317,-0.175,-0.269,-64.765,17.901,-3.047
1747604299.76,0.143,0.002,0.130,-1.409,-0.159,-0.126,-66.371,18.350,-2.346
1747604299.78,0.226,0.040,0.046,-1.306,-0.474,0.086,-67.838,19.121,-1.113
1747604299.80,0.184,-0.051,-0.016,-1.138,-0.631,0.101,-69.095,19.955,0.496
1747604299.82,0.028,-0.084,-0.051,-1.266,-0.686,0.036,-70.342,20.593,2.019
1747604299.84,0.042,-0.050,0.005,-1.465,-0.464,0.001,-71.820,21.630,3.845
1747604299.86,0.169,0.086,0.131,-1.504,-0.766,0.120,-73.375,23.318,6.272
1747604299.88,0.214,0.037,0.056,-1.426,-1.440,0.365,-74.778,25.312,9.734
1747604299.90,0.468,-0.193,-0.073,-1.275,-1.887,0.511,-75.949,27.878,14.331
1747604299.92,0.398,-0.259,-0.279,-1.142,-2.484,0.479,-76.847,30.280,19.441
1747604299.94,-0.142,0.022,-0.255,-0.827,-2.068,0.068,-77.653,31.495,23.508
1747604299.96,-0.774,0.239,-0.177,-0.429,-0.968,-0.394,-78.362,30.680,24.493
1747604299.98,-1.157,0.065,-0.139,-0.367,0.075,-0.674,-79.045,28.406,22.731
1747604300.00,-1.009,-0.116,-0.085,-0.553,1.089,-0.475,-79.826,27.050,20.679
1747604300.02,-0.315,-0.123,-0.026,-0.718,1.842,0.009,-80.608,29.388,21.358
1747604300.04,0.218,-0.066,-0.001,-0.748,2.009,0.291,-81.207,35.555,25.347
1747604300.06,0.368,0.021,-0.016,-0.725,1.401,0.174,-81.669,42.678,30.561
1747604300.08,0.456,0.109,-0.078,-0.565,0.604,-0.145,-82.205,47.679,34.497
1747604300.10,0.536,0.112,-0.088,-0.515,-0.175,-0.393,-82.806,49.570,36.162
1747604300.12,0.217,0.010,0.062,-0.615,-1.025,-0.628,-83.670,50.058,37.392
1747604300.14,-0.100,-0.086,0.036,-0.578,-1.092,-0.733,-84.742,48.652,37.304
1747604300.16,-0.091,-0.044,0.049,-0.602,-0.516,-0.423,-85.680,48.108,37.684
1747604300.18,-0.180,-0.051,0.065,-0.740,0.092,-0.076,-86.374,54.096,43.976
1747604300.20,-0.267,-0.016,0.003,-0.873,0.762,-0.049,-86.851,68.033,57.465
1747604300.22,-0.272,-0.030,0.024,-0.904,1.133,-0.096,-87.146,88.032,76.376
1747604300.24,-0.058,0.018,-0.038,-0.787,1.127,-0.222,-87.163,109.391,96.443
1747604300.26,0.150,0.041,-0.036,-0.603,0.802,-0.187,-86.992,126.545,112.490
1747604300.28,0.224,0.031,-0.042,-0.460,0.353,-0.195,-86.752,138.039,123.342
1747604300.30,0.202,-0.005,-0.017,-0.306,0.176,-0.188,-86.539,146.002,131.053
1747604300.32,0.156,-0.033,0.031,-0.232,0.007,-0.143,-86.390,150.896,135.822
1747604300.34,0.061,-0.029,0.056,-0.331,-0.276,-0.192,-86.189,155.604,140.698
1747604300.36,-0.012,-0.001,-0.009,-0.306,-0.468,-0.202,-85.917,160.297,145.855
1747604300.38,-0.012,0.021,-0.033,-0.119,-0.155,-0.117,-85.747,163.622,149.576
1747604300.40,-0.012,-0.022,0.038,-0.103,0.079,-0.006,-85.665,164.831,150.810
1747604300.42,-0.106,-0.014,0.051,-0.196,0.144,-0.008,-85.495,165.455,151.308
1747604300.44,-0.172,0.054,-0.001,-0.150,0.249,-0.083,-85.301,167.027,152.643
1747604300.46,-0.079,0.014,-0.024,-0.085,0.457,-0.040,-85.193,168.620,153.831
1747604300.48,0.046,-0.027,0.035,-0.130,0.429,-0.023,-85.084,169.707,154.396
1747604300.50,0.058,0.022,0.047,-0.124,0.258,-0.079,-84.937,171.007,155.303
1747604300.52,0.053,0.015,0.014,0.010,0.114,-0.031,-84.875,171.972,156.069
1747604300.54,0.065,-0.027,0.028,0.061,0.005,-0.001,-84.937,172.105,156.151
1747604300.56,0.035,-0.054,0.064,-0.044,-0.066,-0.019,-84.950,172.078,156.148
1747604300.58,-0.055,0.002,0.041,-0.042,-0.113,-0.088,-84.892,172.814,157.002
1747604300.60,-0.032,0.029,-0.002,0.035,-0.112,-0.056,-84.905,173.634,157.957
1747604300.62,0.040,-0.024,0.019,0.008,0.040,-0.004,-84.941,173.849,158.221
1747604300.64,0.056,-0.042,0.035,-0.008,0.037,0.019,-84.922,173.687,157.993
1747604300.66,-0.030,0.010,-0.011,0.058,-0.024,-0.016,-84.944,173.699,158.005
1747604300.68,-0.069,0.029,-0.015,0.166,0.034,-0.020,-85.069,173.870,158.175
1747604300.70,-0.035,0.002,0.012,0.147,0.051,0.010,-85.259,173.749,158.009
1747604300.72,0.016,-0.015,0.024,0.122,0.098,0.040,-85.392,173.173,157.336
1747604300.74,0.022,-0.015,0.011,0.134,0.068,0.038,-85.531,172.446,156.505
1747604300.76,0.011,-0.018,0.025,0.154,-0.082,0.029,-85.689,171.809,155.873
1747604300.78,0.006,0.001,0.020,0.207,-0.187,0.007,-85.891,171.064,155.287
1747604300.80,0.027,0.027,0.011,0.215,-0.171,0.008,-86.128,170.195,154.631
1747604300.82,0.036,0.023,0.016,0.209,-0.197,0.026,-86.356,168.954,153.592
1747604300.84,-0.001,-0.012,0.013,0.157,-0.259,0.019,-86.547,167.473,152.375
1747604300.86,-0.031,-0.022,0.033,0.212,-0.255,-0.004,-86.716,166.345,151.544
1747604300.88,-0.042,0.009,0.014,0.294,-0.204,0.012,-86.993,164.586,150.060
1747604300.90,-0.056,0.018,0.058,0.268,-0.106,0.039,-87.300,161.949,147.585
1747604300.92,-0.081,-0.018,0.051,0.217,-0.058,-0.001,-87.548,159.295,145.027
1747604300.94,-0.051,-0.001,0.042,0.237,0.024,0.026,-87.782,156.876,142.625
1747604300.96,0.013,0.008,0.065,0.351,0.139,0.083,-88.050,151.284,136.928
1747604300.98,-0.029,0.019,0.065,0.530,0.128,0.041,-88.415,140.091,125.582
1747604301.00,-0.145,0.047,-0.005,0.640,0.153,-0.056,-88.866,118.071,103.394
1747604301.02,-0.160,0.025,-0.020,0.510,0.236,-0.104,-89.086,80.752,65.867
1747604301.04,-0.001,-0.026,0.087,0.337,0.306,-0.029,-88.987,54.013,38.784
1747604301.06,0.059,-0.060,0.065,0.402,0.124,0.035,-88.683,39.534,24.042
1747604301.08,0.046,-0.083,-0.035,0.446,-0.073,0.026,-88.270,30.421,14.914
1747604301.10,0.134,-0.054,-0.098,0.678,-0.076,0.029,-87.699,23.077,7.669
1747604301.12,0.201,0.042,-0.170,0.895,-0.160,0.080,-86.805,17.398,2.089
1747604301.14,0.061,0.121,-0.165,0.789,-0.263,0.094,-85.832,14.582,-0.435
1747604301.16,-0.130,0.006,-0.006,0.608,0.165,0.059,-85.041,13.138,-1.832
1747604301.18,-0.181,-0.110,0.070,0.570,0.395,0.075,-84.387,12.674,-2.640
1747604301.20,-0.114,-0.051,-0.014,0.738,0.424,0.085,-83.644,12.486,-3.307
1747604301.22,-0.020,0.047,-0.059,0.791,0.527,0.071,-82.743,12.149,-4.185
1747604301.24,-0.024,0.062,0.010,0.663,0.786,0.052,-81.910,12.050,-5.038
1747604301.26,-0.114,-0.014,0.084,0.612,0.907,0.013,-81.210,12.332,-5.740
1747604301.27,-0.159,-0.006,0.050,0.638,0.822,0.003,-80.515,12.392,-6.703
1747604301.30,-0.017,0.027,0.005,0.745,0.769,0.015,-79.745,12.391,-7.622
1747604301.31,0.079,0.015,0.047,0.769,0.429,0.023,-78.873,12.225,-8.514
1747604301.33,-0.092,-0.031,0.040,0.640,0.424,-0.062,-78.098,11.773,-9.443
1747604301.35,-0.173,-0.016,0.005,0.623,0.655,-0.153,-77.427,11.182,-10.715
1747604301.37,-0.087,0.019,0.010,0.815,0.449,-0.149,-76.686,10.439,-12.155
1747604301.39,-0.021,0.001,-0.141,1.097,0.541,-0.276,-75.615,9.290,-13.909
1747604301.41,-0.088,-0.043,-0.105,1.068,0.802,-0.440,-74.456,7.776,-16.262
1747604301.43,-0.239,-0.094,-0.015,0.910,1.393,-0.379,-73.353,6.863,-18.534
1747604301.45,-0.408,-0.051,0.018,0.666,1.664,-0.284,-72.536,7.057,-20.173
1747604301.47,-0.118,0.044,0.025,0.679,1.684,-0.112,-71.812,8.015,-21.278
1747604301.49,0.443,-0.013,-0.117,1.046,0.939,0.077,-70.883,9.077,-21.772
1747604301.51,0.708,-0.130,-0.093,1.166,0.217,0.215,-69.526,9.584,-21.952
1747604301.53,0.438,-0.131,0.020,1.066,-0.344,0.242,-68.258,9.615,-21.809
1747604301.55,0.135,-0.046,-0.057,0.826,-0.183,0.170,-67.149,9.412,-21.702
1747604301.57,0.129,-0.011,0.067,1.050,-0.437,0.193,-66.115,9.200,-21.649
1747604301.59,0.265,-0.016,-0.016,1.296,-0.733,0.191,-64.733,8.535,-21.647
1747604301.61,0.196,-0.034,-0.000,1.273,-0.781,0.259,-63.183,7.724,-21.593
1747604301.63,-0.101,0.008,0.030,1.041,-0.433,0.274,-61.835,7.218,-21.372
1747604301.65,-0.259,0.069,0.153,0.907,-0.046,0.412,-60.720,7.420,-20.883
1747604301.67,-0.124,0.064,0.079,0.957,0.051,0.475,-59.605,8.122,-20.167
1747604301.69,0.130,0.029,0.011,1.153,-0.312,0.333,-58.335,8.472,-19.647
1747604301.71,0.113,0.052,-0.042,1.233,-0.452,0.198,-56.929,8.117,-19.504
1747604301.73,-0.061,0.026,0.150,1.066,-0.075,0.240,-55.585,7.846,-19.458
1747604301.75,-0.129,-0.065,0.022,0.912,0.072,0.241,-54.457,8.113,-19.287
1747604301.77,-0.111,-0.114,-0.024,0.984,0.040,0.296,-53.349,8.368,-19.059
1747604301.79,0.044,-0.045,0.005,1.129,-0.015,0.142,-52.115,8.529,-18.955
1747604301.81,-0.011,0.100,-0.037,1.168,-0.090,0.050,-50.787,8.294,-19.154
1747604301.83,-0.046,0.138,0.071,1.078,0.111,0.100,-49.492,8.203,-19.339
1747604301.85,0.017,0.029,0.022,0.982,-0.029,0.240,-48.319,8.317,-19.304
1747604301.87,0.112,-0.102,-0.017,1.023,0.007,0.198,-47.166,8.394,-19.216
1747604301.89,0.003,-0.137,-0.054,1.019,-0.098,0.150,-45.963,8.362,-19.229
1747604301.91,-0.077,-0.006,0.008,1.007,0.077,0.163,-44.816,8.330,-19.274
1747604301.93,0.085,0.145,0.045,0.980,0.118,0.084,-43.660,8.447,-19.411
1747604301.95,0.127,0.099,-0.035,0.950,-0.249,0.242,-42.529,8.385,-19.394
1747604301.97,0.015,-0.039,-0.099,0.971,-0.400,0.252,-41.407,8.091,-19.214
1747604301.99,-0.111,-0.126,-0.041,1.040,-0.190,0.063,-40.251,7.749,-19.169
1747604302.01,-0.139,-0.079,0.035,1.051,0.106,-0.037,-39.050,7.586,-19.432
1747604302.03,-0.047,0.002,0.052,0.956,0.126,0.025,-37.924,7.636,-19.631
1747604302.05,0.246,0.057,0.030,0.940,-0.175,0.222,-36.851,7.637,-19.657
1747604302.07,0.150,0.001,-0.058,1.014,-0.385,0.258,-35.706,7.384,-19.519
1747604302.09,-0.013,-0.039,-0.031,1.057,-0.144,0.131,-34.502,7.108,-19.425
1747604302.11,-0.032,-0.014,0.019,1.001,0.023,0.065,-33.323,7.033,-19.500
1747604302.13,0.077,-0.003,0.042,0.990,-0.016,0.213,-32.181,7.037,-19.517
1747604302.15,0.180,0.035,0.044,0.963,-0.182,0.285,-31.039,7.028,-19.338
1747604302.17,0.122,0.047,-0.019,0.924,-0.306,0.339,-29.922,6.854,-19.072
1747604302.19,-0.004,0.038,-0.021,0.919,-0.256,0.290,-28.834,6.642,-18.799
1747604302.21,-0.053,0.071,0.061,0.987,-0.098,0.221,-27.720,6.542,-18.619
1747604302.23,0.035,0.100,0.029,1.023,-0.146,0.262,-26.544,6.495,-18.496
1747604302.25,0.108,0.089,-0.017,0.984,-0.204,0.299,-25.369,6.389,-18.273
1747604302.27,0.053,0.008,0.009,0.947,-0.167,0.262,-24.233,6.256,-18.050
1747604302.29,-0.039,-0.067,0.015,0.929,-0.057,0.230,-23.144,6.204,-17.880
1747604302.31,-0.034,-0.032,-0.002,0.981,-0.013,0.258,-22.029,6.248,-17.715
1747604302.33,0.058,0.077,0.029,0.991,-0.119,0.279,-20.878,6.253,-17.549
1747604302.35,-0.015,0.097,0.009,1.009,-0.214,0.332,-19.700,6.130,-17.352
1747604302.37,0.016,0.025,-0.023,1.064,-0.162,0.240,-18.497,5.979,-17.171
1747604302.39,-0.027,-0.058,-0.037,1.062,-0.092,0.123,-17.247,5.849,-17.092
1747604302.41,-0.122,-0.124,0.006,1.072,0.082,0.088,-16.051,5.841,-17.117
1747604302.43,-0.148,-0.066,0.028,1.100,0.187,0.109,-14.792,5.988,-17.155
1747604302.45,-0.018,0.088,-0.005,1.056,0.125,0.114,-13.541,6.182,-17.169
1747604302.47,0.028,0.096,-0.025,1.011,0.041,0.112,-12.363,6.265,-17.181
1747604302.49,0.036,-0.022,0.013,0.961,0.017,0.080,-11.216,6.303,-17.226
1747604302.51,0.082,-0.084,-0.029,0.921,0.013,0.118,-10.143,6.309,-17.256
1747604302.53,-0.002,-0.014,-0.060,1.001,0.149,0.225,-9.036,6.394,-17.201
1747604302.55,-0.045,0.088,0.005,0.979,0.239,0.251,-7.878,6.667,-17.066
1747604302.57,-0.020,0.107,0.001,0.947,0.101,0.280,-6.754,6.886,-16.904
1747604302.59,0.056,-0.023,0.032,0.924,-0.048,0.210,-5.663,6.939,-16.775
1747604302.61,0.056,-0.104,-0.006,0.896,-0.174,0.147,-4.602,6.803,-16.723
1747604302.63,-0.022,0.005,-0.035,0.891,-0.130,0.214,-3.571,6.607,-16.644
1747604302.65,-0.091,0.131,-0.024,0.895,-0.063,0.220,-2.527,6.523,-16.519
1747604302.67,-0.083,0.042,-0.050,0.904,0.072,0.175,-1.462,6.522,-16.407
1747604302.69,-0.025,-0.091,0.054,0.941,0.117,0.116,-0.404,6.644,-16.371
1747604302.71,-0.040,0.013,0.051,1.026,0.095,0.120,0.722,6.772,-16.371
1747604302.73,0.017,0.161,-0.009,1.040,0.102,0.079,1.921,6.885,-16.414
1747604302.75,0.115,0.054,-0.056,1.059,-0.136,0.069,3.124,6.867,-16.498
1747604302.77,0.057,-0.014,-0.004,1.071,-0.090,0.083,4.332,6.716,-16.566
1747604302.79,-0.053,-0.081,0.006,1.011,0.176,0.073,5.522,6.772,-16.633
1747604302.81,-0.093,-0.049,-0.041,0.995,0.397,0.101,6.684,7.112,-16.656
1747604302.83,-0.007,0.087,-0.013,0.946,0.197,0.036,7.792,7.503,-16.716
1747604302.85,0.110,0.005,-0.086,0.865,-0.192,-0.010,8.826,7.526,-16.852
1747604302.87,0.120,-0.079,-0.138,0.834,-0.353,-0.058,9.778,7.192,-17.018
1747604302.89,-0.033,-0.034,-0.088,0.819,-0.169,-0.077,10.700,6.912,-17.212
1747604302.91,-0.135,0.007,-0.029,0.764,0.064,-0.135,11.595,6.896,-17.434
1747604302.93,-0.113,-0.027,0.019,0.786,0.075,-0.096,12.470,7.069,-17.686
1747604302.95,0.070,-0.033,-0.030,0.713,-0.121,-0.183,13.322,7.112,-17.967
1747604302.97,0.107,-0.071,-0.143,0.592,-0.302,-0.177,14.018,6.906,-18.273
1747604302.99,-0.015,-0.061,-0.107,0.541,0.004,-0.147,14.639,6.784,-18.542
1747604303.01,-0.048,0.017,-0.028,0.441,0.159,-0.078,15.178,6.955,-18.749
1747604303.03,0.084,-0.053,-0.051,0.334,0.147,-0.030,15.610,7.173,-18.865
1747604303.05,0.223,-0.098,-0.123,0.148,0.054,0.028,15.884,7.304,-18.917
1747604303.07,0.160,-0.131,-0.184,0.006,0.012,0.213,16.005,7.289,-18.787
1747604303.09,0.072,-0.093,-0.159,-0.170,0.040,0.239,15.923,7.255,-18.509
1747604303.11,0.046,-0.148,-0.093,-0.348,0.027,0.240,15.671,7.210,-18.194
1747604303.13,0.063,-0.110,-0.168,-0.524,0.013,0.257,15.213,7.107,-17.837
1747604303.15,-0.020,-0.102,-0.140,-0.698,0.133,0.293,14.544,7.089,-17.422
1747604303.17,-0.007,-0.097,-0.160,-0.854,0.160,0.271,13.717,7.168,-16.958
1747604303.19,0.054,-0.083,-0.181,-0.979,0.024,0.280,12.714,7.174,-16.476
1747604303.21,0.011,-0.101,-0.156,-1.132,0.014,0.251,11.556,7.084,-15.984
1747604303.23,-0.071,-0.061,-0.086,-1.211,0.067,0.223,10.258,7.027,-15.514
1747604303.25,-0.038,-0.073,-0.111,-1.283,0.111,0.199,8.877,7.080,-15.071
1747604303.27,-0.033,-0.068,-0.117,-1.331,0.130,0.147,7.423,7.147,-14.665
1747604303.29,-0.001,-0.087,-0.049,-1.403,0.139,0.083,5.889,7.277,-14.324
1747604303.31,-0.009,-0.093,-0.057,-1.411,0.099,0.059,4.301,7.372,-14.018
1747604303.33,-0.014,-0.013,-0.028,-1.467,0.082,0.050,2.687,7.456,-13.732
1747604303.35,-0.043,0.013,-0.008,-1.432,0.135,0.054,1.046,7.561,-13.414
1747604303.37,-0.050,-0.035,-0.014,-1.434,0.219,-0.074,-0.575,7.777,-13.183
1747604303.39,-0.027,-0.091,-0.026,-1.453,0.205,-0.119,-2.217,8.015,-13.042
1747604303.41,-0.067,-0.054,-0.022,-1.435,0.117,-0.157,-3.863,8.208,-12.938
1747604303.43,-0.078,0.043,-0.013,-1.414,0.203,-0.224,-5.499,8.383,-12.895
1747604303.45,-0.094,0.048,0.023,-1.386,0.290,-0.330,-7.123,8.643,-12.942
1747604303.47,-0.109,-0.040,-0.009,-1.376,0.370,-0.381,-8.738,9.002,-13.074
1747604303.49,-0.013,-0.089,-0.034,-1.387,0.331,-0.345,-10.360,9.408,-13.208
1747604303.51,0.107,-0.029,-0.058,-1.382,0.228,-0.283,-11.986,9.681,-13.258
1747604303.53,0.123,0.044,0.092,-1.416,0.191,-0.309,-13.615,9.937,-13.285
1747604303.55,-0.024,-0.013,-0.037,-1.446,0.255,-0.307,-15.278,10.135,-13.316
1747604303.57,0.017,-0.147,-0.077,-1.467,0.350,-0.296,-16.988,10.489,-13.339
1747604303.59,0.061,-0.164,0.010,-1.478,0.314,-0.300,-18.711,10.876,-13.349
1747604303.61,0.021,-0.061,0.086,-1.432,0.366,-0.331,-20.409,11.231,-13.360
1747604303.63,0.008,0.029,0.018,-1.468,0.384,-0.341,-22.103,11.646,-13.396
1747604303.65,0.013,0.018,-0.019,-1.494,0.314,-0.316,-23.827,12.051,-13.403
1747604303.67,0.064,-0.036,-0.008,-1.447,0.176,-0.261,-25.554,12.351,-13.348
1747604303.69,0.157,-0.041,0.032,-1.481,0.141,-0.253,-27.242,12.543,-13.248
1747604303.71,0.097,-0.059,0.001,-1.511,0.096,-0.231,-28.975,12.719,-13.139
1747604303.73,0.011,-0.104,0.060,-1.516,0.204,-0.194,-30.719,12.978,-12.988
1747604303.75,0.045,-0.081,0.019,-1.567,0.221,-0.157,-32.479,13.369,-12.741
1747604303.77,0.013,-0.004,-0.042,-1.567,-0.073,-0.105,-34.245,13.639,-12.421
1747604303.79,-0.015,0.045,-0.036,-1.512,-0.212,-0.172,-36.007,13.663,-12.088
1747604303.81,-0.069,0.014,0.028,-1.400,-0.011,-0.368,-37.679,13.574,-11.974
1747604303.83,-0.116,-0.054,0.019,-1.379,0.133,-0.445,-39.337,13.585,-12.109
1747604303.85,-0.088,-0.092,0.005,-1.486,0.119,-0.340,-41.021,13.687,-12.199
1747604303.87,0.118,-0.056,0.085,-1.508,0.109,-0.107,-42.775,13.954,-11.973
1747604303.89,0.242,0.019,0.024,-1.383,-0.024,-0.078,-44.389,14.341,-11.514
1747604303.91,0.043,0.033,-0.029,-1.344,-0.183,-0.180,-45.927,14.415,-11.161
1747604303.93,-0.007,-0.040,0.018,-1.380,0.007,-0.268,-47.496,14.486,-10.947
1747604303.95,-0.015,-0.061,-0.017,-1.467,-0.090,-0.249,-49.141,14.564,-10.800
1747604303.97,0.107,-0.012,0.065,-1.491,-0.209,-0.089,-50.848,14.688,-10.408
1747604303.99,0.197,0.084,0.020,-1.349,-0.404,-0.054,-52.429,14.789,-9.830
1747604304.01,0.030,0.103,0.001,-1.259,-0.429,-0.126,-53.894,14.651,-9.359
1747604304.03,-0.131,0.000,0.005,-1.270,-0.122,-0.245,-55.340,14.549,-9.054
1747604304.05,-0.158,-0.084,0.035,-1.313,0.013,-0.308,-56.842,14.588,-8.971
1747604304.07,-0.020,-0.080,0.056,-1.447,-0.022,-0.208,-58.446,14.772,-8.758
1747604304.09,0.178,0.016,0.049,-1.339,-0.282,-0.121,-60.041,15.026,-8.258
1747604304.11,0.153,0.081,-0.022,-1.162,-0.519,-0.217,-61.457,14.911,-7.839
1747604304.13,-0.012,0.002,-0.061,-1.205,-0.424,-0.271,-62.828,14.459,-7.676
1747604304.15,-0.047,-0.083,0.031,-1.265,-0.151,-0.261,-64.275,14.244,-7.546
1747604304.17,-0.018,-0.058,0.032,-1.199,-0.122,-0.202,-65.698,14.330,-7.325
1747604304.19,-0.046,-0.044,0.016,-1.168,-0.071,-0.199,-67.081,14.482,-7.010
1747604304.21,0.009,-0.072,-0.042,-1.045,-0.055,-0.164,-68.349,14.676,-6.731
1747604304.23,-0.022,-0.056,-0.014,-1.090,-0.075,-0.200,-69.560,14.855,-6.450
1747604304.25,-0.024,0.017,0.077,-1.355,-0.018,-0.241,-70.998,15.106,-6.118
1747604304.27,0.020,0.037,0.081,-1.278,-0.106,-0.196,-72.527,15.539,-5.612
1747604304.29,0.067,-0.013,0.098,-1.400,-0.223,-0.165,-74.026,16.116,-4.806
1747604304.31,0.069,-0.012,0.028,-1.334,-0.356,-0.188,-75.592,16.705,-3.791
1747604304.33,0.059,-0.043,-0.004,-1.503,-0.189,-0.234,-77.214,17.405,-2.715
1747604304.35,0.107,-0.046,-0.022,-1.507,-0.481,-0.195,-78.923,18.431,-1.297
1747604304.37,0.183,-0.039,-0.082,-1.588,-0.793,-0.142,-80.658,19.901,0.961
1747604304.39,0.325,-0.065,-0.083,-1.433,-1.104,-0.051,-82.341,22.213,4.409
1747604304.41,0.288,-0.115,-0.166,-1.244,-1.677,0.227,-83.680,26.491,10.345
1747604304.43,0.162,-0.103,-0.171,-1.303,-1.844,0.262,-84.764,34.298,20.291
1747604304.45,0.106,-0.087,-0.177,-1.150,-1.557,0.134,-85.738,45.324,33.287
1747604304.47,-0.164,0.011,-0.301,-0.796,-1.719,-0.110,-86.415,56.474,46.360
1747604304.48,-0.483,0.129,-0.354,-0.502,-1.284,-0.409,-87.052,62.860,54.585
1747604304.51,-0.573,0.043,-0.141,-0.451,-0.345,-0.402,-87.724,68.089,60.793
1747604304.52,-0.530,-0.046,0.003,-0.407,0.440,-0.293,-88.241,78.280,70.942
1747604304.54,-0.450,0.001,-0.049,-0.332,1.100,-0.193,-88.551,93.653,85.496
1747604304.56,-0.183,0.000,-0.021,-0.360,1.627,-0.067,-88.623,111.264,101.553
1747604304.58,0.079,-0.014,0.008,-0.430,1.577,-0.013,-88.412,129.311,117.768
1747604304.60,0.220,0.060,0.004,-0.439,1.171,-0.137,-88.085,143.605,130.488
1747604304.62,0.323,0.052,0.028,-0.362,0.690,-0.154,-87.761,155.549,141.398
1747604304.64,0.351,0.030,0.011,-0.205,0.406,-0.220,-87.544,163.828,149.081
1747604304.66,0.183,-0.023,-0.061,-0.226,-0.191,-0.264,-87.376,171.007,156.125
1747604304.68,-0.059,-0.020,-0.099,-0.291,-0.455,-0.336,-87.112,178.731,164.307
1747604304.70,-0.161,-0.048,-0.031,-0.294,0.071,-0.190,-86.772,-176.092,169.753
1747604304.72,-0.152,-0.056,0.046,-0.315,0.701,-0.042,-86.407,-174.073,171.313
1747604304.74,-0.137,0.013,0.003,-0.244,0.914,0.104,-86.091,-174.575,169.863
1747604304.76,-0.147,0.014,-0.027,-0.218,0.882,0.018,-85.839,-174.928,168.469
1747604304.78,-0.032,-0.014,-0.004,-0.153,0.740,-0.055,-85.619,-173.909,168.538
1747604304.80,0.113,0.003,0.011,-0.077,0.394,-0.065,-85.484,-172.534,169.263
1747604304.82,0.178,0.035,0.037,0.014,0.090,-0.046,-85.427,-171.341,170.178
1747604304.84,0.105,-0.003,0.057,0.073,-0.192,-0.029,-85.501,-170.917,170.678
1747604304.86,0.007,-0.030,0.144,-0.059,-0.207,-0.012,-85.496,-170.835,171.010
1747604304.88,-0.096,-0.049,0.128,-0.095,-0.162,-0.060,-85.402,-170.944,171.128
1747604304.90,-0.136,-0.007,0.089,-0.075,0.091,-0.111,-85.280,-169.871,172.255
1747604304.92,-0.092,0.016,0.051,-0.046,0.250,-0.064,-85.198,-168.592,173.321
1747604304.94,-0.051,0.005,0.038,-0.146,0.280,-0.014,-85.086,-167.975,173.632
1747604304.96,0.008,0.023,0.017,-0.108,0.190,0.038,-84.930,-168.296,173.033
1747604304.98,-0.019,0.005,0.006,-0.060,0.219,0.037,-84.856,-168.723,172.390
1747604305.00,-0.041,-0.038,0.080,-0.108,0.214,0.008,-84.757,-168.909,171.930
1747604305.02,-0.036,-0.018,0.039,-0.069,0.045,-0.051,-84.645,-168.608,172.079
1747604305.04,0.039,0.005,-0.018,0.011,-0.071,-0.012,-84.601,-168.218,172.494
1747604305.06,0.077,-0.013,-0.005,0.032,-0.129,0.006,-84.636,-168.318,172.511
1747604305.08,0.019,0.003,-0.012,-0.018,-0.167,-0.020,-84.627,-168.380,172.622
1747604305.10,-0.039,0.024,-0.067,0.043,-0.025,-0.033,-84.623,-168.072,173.068
1747604305.12,-0.002,0.031,-0.045,0.108,0.169,0.002,-84.707,-167.512,173.524
1747604305.14,0.041,0.001,-0.035,0.091,0.062,0.092,-84.843,-167.845,173.043
1747604305.16,-0.010,-0.007,-0.032,0.045,-0.020,0.061,-84.938,-168.800,172.083
1747604305.18,-0.036,0.001,-0.044,0.081,0.111,0.031,-85.020,-169.117,171.733
1747604305.20,0.017,-0.012,-0.021,0.160,0.228,0.021,-85.165,-168.882,171.756
1747604305.22,0.068,-0.006,-0.049,0.212,0.165,0.034,-85.390,-168.523,171.877
1747604305.24,0.075,0.038,-0.059,0.198,-0.046,0.060,-85.633,-168.588,171.745
1747604305.26,0.040,0.014,-0.038,0.192,-0.157,0.047,-85.860,-168.824,171.629
1747604305.28,0.004,-0.006,-0.007,0.227,-0.057,0.021,-86.104,-168.891,171.701
1747604305.30,-0.020,-0.031,0.047,0.234,0.049,0.010,-86.377,-168.437,172.151
1747604305.32,-0.004,-0.010,0.046,0.238,0.004,0.038,-86.647,-168.116,172.426
1747604305.34,-0.001,0.017,0.012,0.294,-0.076,0.028,-86.964,-168.010,172.584
1747604305.36,-0.054,0.038,0.018,0.322,-0.102,-0.004,-87.311,-166.941,173.768
1747604305.38,-0.088,-0.002,0.023,0.323,0.033,-0.036,-87.668,-164.312,176.451
1747604305.40,-0.038,-0.020,0.059,0.229,0.165,0.010,-87.953,-161.317,179.329
1747604305.42,0.033,-0.010,0.060,0.280,0.096,0.069,-88.245,-159.604,-179.130
1747604305.44,0.019,-0.017,0.059,0.268,-0.031,0.078,-88.574,-158.424,-177.988
1747604305.46,-0.026,-0.018,0.032,0.267,-0.149,0.038,-88.883,-156.088,-175.542
1747604305.48,-0.006,0.001,0.012,0.277,-0.032,0.001,-89.163,-148.811,-168.144
1747604305.50,0.046,0.004,0.037,0.364,-0.067,0.051,-89.462,-130.276,-149.581
1747604305.52,0.047,0.009,0.005,0.358,-0.218,0.099,-89.674,-77.915,-97.042
1747604305.54,0.016,-0.001,0.013,0.371,-0.247,0.095,-89.481,-23.102,-41.947
1747604305.56,-0.034,0.013,0.022,0.441,-0.150,0.104,-89.048,-6.071,-24.691
1747604305.58,-0.082,-0.011,0.026,0.349,-0.016,0.148,-88.586,1.592,-16.930
1747604305.60,-0.048,-0.082,0.058,0.344,0.088,0.159,-88.203,7.020,-11.547
1747604305.62,0.019,-0.095,-0.044,0.514,0.011,0.169,-87.691,10.139,-8.493
1747604305.64,0.089,-0.012,-0.137,0.654,-0.079,0.163,-86.994,11.578,-7.004
1747604305.66,0.065,0.111,-0.121,0.752,-0.107,0.110,-86.178,11.352,-7.132
1747604305.68,-0.076,0.091,-0.082,0.798,0.166,0.097,-85.280,10.490,-7.990
1747604305.70,-0.172,-0.003,0.074,0.772,0.420,0.172,-84.359,10.685,-8.148
1747604305.72,-0.191,-0.010,0.088,0.631,0.693,0.192,-83.533,11.809,-7.652
1747604305.74,-0.078,-0.039,0.130,0.597,0.750,0.177,-82.817,13.178,-7.131
1747604305.76,0.000,0.002,0.094,0.742,0.486,0.106,-82.044,13.781,-7.261
1747604305.78,-0.041,0.060,-0.022,0.818,0.360,0.043,-81.153,13.338,-8.163
1747604305.80,-0.045,0.029,-0.001,0.903,0.310,-0.007,-80.181,12.522,-9.387
1747604305.82,-0.052,0.017,-0.016,0.767,0.525,-0.027,-79.235,11.729,-10.642
1747604305.84,-0.077,-0.046,0.120,0.754,0.520,-0.048,-78.410,11.240,-11.807
1747604305.86,-0.063,-0.077,-0.051,0.757,0.487,0.026,-77.569,10.944,-12.697
1747604305.88,0.115,-0.033,-0.102,1.029,0.432,0.066,-76.578,10.998,-13.227
1747604305.90,0.189,0.063,-0.180,1.238,0.099,-0.131,-75.274,10.212,-14.387
1747604305.92,0.003,-0.049,-0.084,1.111,0.130,-0.315,-73.974,8.523,-16.293
1747604305.94,-0.119,-0.176,-0.074,0.854,0.491,-0.127,-72.924,7.400,-17.810
1747604305.96,-0.117,-0.149,-0.078,0.746,0.743,0.060,-72.042,7.695,-18.324
1747604305.98,0.056,-0.028,-0.031,1.008,0.715,0.175,-71.054,8.553,-18.299
1747604306.00,0.264,-0.029,-0.077,1.265,0.726,0.065,-69.725,9.226,-18.527
1747604306.02,0.073,-0.023,0.031,1.084,0.089,0.119,-68.375,9.364,-18.889
1747604306.04,-0.282,-0.009,-0.093,0.922,0.203,0.007,-67.182,9.189,-19.220
1747604306.06,-0.050,-0.044,-0.020,0.897,0.467,0.026,-66.236,9.291,-19.644
1747604306.08,0.344,-0.103,-0.059,1.284,-0.152,0.163,-64.983,9.319,-19.862
1747604306.10,0.303,-0.030,-0.055,1.278,-0.254,0.082,-63.470,8.847,-20.123
1747604306.12,0.091,-0.016,0.051,1.040,-0.242,0.197,-62.138,8.398,-20.335
1747604306.14,-0.048,-0.008,0.028,0.877,-0.109,0.363,-61.024,8.514,-20.031
1747604306.16,0.054,0.031,0.122,0.926,-0.330,0.406,-59.966,8.828,-19.453
1747604306.18,0.126,0.045,0.065,1.099,-0.628,0.469,-58.751,8.805,-18.883
1747604306.20,-0.048,0.053,0.031,1.142,-0.567,0.438,-57.387,8.606,-18.287
1747604306.22,-0.219,0.136,0.090,1.068,-0.213,0.199,-56.065,8.447,-18.008
1747604306.24,-0.195,0.181,0.132,0.944,-0.008,0.120,-54.918,8.312,-18.058
1747604306.26,-0.077,0.060,0.070,1.004,0.095,0.193,-53.805,8.384,-18.079
1747604306.28,-0.018,-0.037,0.068,1.007,0.251,0.195,-52.627,8.667,-18.018
1747604306.30,0.003,0.008,0.035,0.950,0.312,0.192,-51.489,9.057,-17.988
1747604306.32,0.035,0.073,0.081,0.906,0.254,0.262,-50.392,9.497,-17.905
1747604306.34,0.150,0.087,-0.032,0.967,-0.047,0.194,-49.307,9.708,-17.818
1747604306.36,0.104,-0.010,-0.057,1.020,-0.222,0.109,-48.155,9.518,-17.867
1747604306.38,-0.027,-0.118,-0.070,1.009,-0.150,0.022,-46.997,9.143,-18.089
1747604306.40,-0.081,-0.183,0.001,0.939,0.228,0.059,-45.891,9.025,-18.318
1747604306.42,0.055,-0.167,-0.013,0.879,0.367,0.117,-44.855,9.380,-18.411
1747604306.44,0.173,-0.067,-0.016,0.900,0.141,0.223,-43.826,9.727,-18.340
1747604306.46,0.265,0.030,-0.011,1.017,-0.196,0.228,-42.704,9.754,-18.282
1747604306.48,0.198,0.043,0.036,1.084,-0.289,0.206,-41.463,9.494,-18.266
1747604306.50,0.084,0.017,0.006,0.888,-0.201,0.214,-40.305,9.257,-18.207
1747604306.52,0.020,-0.043,-0.035,0.817,-0.132,0.405,-39.306,9.203,-17.970
1747604306.54,0.013,-0.044,-0.028,0.889,-0.037,0.466,-38.274,9.430,-17.501
1747604306.56,-0.044,0.072,-0.010,1.016,-0.201,0.287,-37.115,9.488,-17.183
1747604306.58,-0.078,0.127,0.071,1.021,-0.243,0.084,-35.924,9.222,-17.171
1747604306.60,-0.014,0.020,-0.009,0.905,-0.255,0.070,-34.827,8.846,-17.300
1747604306.62,0.063,-0.115,-0.034,0.908,-0.204,0.187,-33.777,8.577,-17.309
1747604306.64,-0.055,-0.048,0.004,0.960,-0.182,0.178,-32.696,8.384,-17.252
1747604306.66,-0.134,0.066,0.032,1.077,-0.013,0.059,-31.522,8.257,-17.318
1747604306.68,-0.028,0.102,0.044,1.066,0.077,-0.094,-30.299,8.180,-17.580
1747604306.70,-0.011,0.047,-0.032,1.250,0.014,-0.094,-29.021,8.093,-17.980
1747604306.72,-0.033,0.019,0.022,1.149,0.382,0.085,-27.667,8.221,-18.255
1747604306.74,0.016,0.032,0.007,1.182,0.263,0.195,-26.338,8.591,-18.348
1747604306.76,0.101,0.088,0.070,1.240,0.139,0.159,-24.930,8.826,-18.382
1747604306.78,0.118,0.057,0.117,1.276,0.088,0.071,-23.473,8.900,-18.486
1747604306.80,0.108,-0.046,0.038,1.150,-0.003,0.145,-22.108,8.901,-18.612
1747604306.82,0.052,-0.091,-0.077,1.122,0.152,0.315,-20.752,8.986,-18.541
1747604306.84,-0.042,0.004,-0.003,1.026,0.303,0.386,-19.490,9.338,-18.321
1747604306.86,0.016,0.098,-0.006,1.035,0.114,0.351,-18.268,9.687,-18.106
1747604306.88,0.044,0.102,0.048,1.106,-0.168,0.295,-16.990,9.700,-17.970
1747604306.90,0.051,0.090,0.023,1.068,-0.339,0.207,-15.721,9.414,-17.918
1747604306.92,-0.060,0.005,-0.046,0.919,-0.219,0.223,-14.568,9.079,-17.889
1747604306.94,-0.160,-0.119,-0.043,0.909,0.098,0.308,-13.503,9.045,-17.722
1747604306.96,0.031,-0.028,0.010,1.050,0.010,0.189,-12.361,9.170,-17.641
1747604306.98,0.175,0.056,0.010,1.095,-0.323,0.156,-11.106,8.995,-17.665
1747604307.00,0.049,0.028,-0.017,1.079,-0.368,0.212,-9.835,8.550,-17.658
1747604307.02,-0.070,0.017,-0.027,0.969,-0.121,0.244,-8.632,8.296,-17.576
1747604307.04,-0.098,0.016,-0.056,0.911,-0.011,0.278,-7.532,8.265,-17.455
1747604307.06,0.056,-0.015,-0.032,0.943,-0.120,0.290,-6.440,8.217,-17.296
1747604307.08,0.103,-0.004,0.056,1.029,-0.149,0.259,-5.283,8.061,-17.153
1747604307.10,-0.081,-0.055,0.033,0.978,0.030,0.243,-4.109,7.992,-17.049
1747604307.12,-0.175,-0.023,-0.083,0.881,0.194,0.265,-3.016,8.143,-16.920
1747604307.14,-0.061,0.033,-0.061,0.875,0.055,0.201,-1.996,8.329,-16.792
1747604307.16,0.187,0.037,-0.053,0.857,-0.389,0.201,-0.996,8.134,-16.724
1747604307.18,0.098,-0.024,0.006,0.900,-0.404,0.196,0.023,7.623,-16.631
1747604307.20,-0.143,-0.037,0.070,0.953,0.030,0.208,1.099,7.403,-16.545
1747604307.22,-0.175,-0.021,0.032,0.906,0.355,0.209,2.183,7.652,-16.438
1747604307.24,-0.027,0.012,-0.036,0.905,0.198,0.186,3.240,7.996,-16.341
1747604307.26,0.142,0.077,-0.038,0.898,-0.206,0.116,4.283,8.015,-16.308
1747604307.28,0.080,0.040,-0.063,0.972,-0.409,0.040,5.354,7.608,-16.339
1747604307.30,-0.118,-0.022,-0.001,0.996,-0.135,-0.081,6.475,7.308,-16.514
1747604307.32,-0.172,-0.076,0.009,0.965,0.151,-0.127,7.562,7.377,-16.773
1747604307.34,-0.176,0.009,0.034,0.970,0.163,-0.150,8.644,7.626,-17.069
1747604307.36,0.067,0.170,-0.042,0.961,-0.083,-0.231,9.708,7.740,-17.432
1747604307.38,0.101,0.073,-0.093,0.936,-0.266,-0.251,10.741,7.591,-17.854
1747604307.40,0.054,-0.074,-0.043,0.895,-0.230,-0.215,11.750,7.384,-18.256
1747604307.42,0.069,-0.068,-0.023,0.823,0.044,-0.150,12.696,7.341,-18.599
1747604307.44,0.087,-0.088,-0.087,0.746,0.167,-0.011,13.559,7.538,-18.813
1747604307.46,0.079,0.067,-0.084,0.676,0.089,0.068,14.372,7.715,-18.888
1747604307.48,0.141,0.046,-0.128,0.561,-0.106,0.103,15.086,7.702,-18.889
1747604307.50,0.087,-0.095,-0.131,0.403,-0.118,0.068,15.652,7.552,-18.855
1747604307.52,-0.004,-0.130,-0.182,0.257,-0.056,0.063,16.035,7.436,-18.815
1747604307.54,-0.071,-0.071,-0.139,0.133,0.063,0.089,16.270,7.417,-18.744
1747604307.56,-0.058,-0.058,-0.127,-0.071,0.075,0.041,16.308,7.500,-18.653
1747604307.58,0.000,-0.142,-0.155,-0.248,0.015,-0.026,16.135,7.521,-18.605
1747604307.60,-0.007,-0.179,-0.178,-0.443,0.115,0.007,15.747,7.589,-18.580
1747604307.62,0.085,-0.161,-0.178,-0.639,0.145,0.143,15.147,7.692,-18.393
1747604307.64,0.161,-0.105,-0.168,-0.805,0.014,0.195,14.351,7.717,-18.068
1747604307.66,0.166,-0.106,-0.123,-0.966,0.113,0.204,13.389,7.673,-17.667
1747604307.67,0.017,-0.156,-0.130,-1.113,0.260,0.264,12.246,7.791,-17.193
1747604307.69,-0.026,-0.074,-0.146,-1.262,0.246,0.196,10.936,8.020,-16.705
1747604307.71,-0.008,-0.020,-0.140,-1.351,0.133,0.114,9.478,8.164,-16.297
1747604307.73,-0.053,-0.056,-0.148,-1.420,0.168,0.063,7.918,8.280,-15.956
1747604307.75,-0.083,-0.068,-0.106,-1.495,0.270,0.010,6.276,8.483,-15.634
1747604307.77,-0.091,-0.012,-0.061,-1.540,0.297,-0.098,4.553,8.799,-15.392
1747604307.79,-0.054,0.014,-0.091,-1.575,0.200,-0.190,2.768,9.075,-15.240
1747604307.81,-0.039,0.001,-0.064,-1.602,0.157,-0.247,0.937,9.276,-15.172
1747604307.83,-0.058,-0.051,-0.065,-1.627,0.226,-0.244,-0.931,9.482,-15.101
1747604307.85,-0.093,-0.065,0.060,-1.581,0.397,-0.367,-2.796,9.852,-15.089
1747604307.87,-0.065,-0.062,0.013,-1.557,0.394,-0.460,-4.645,10.303,-15.219
1747604307.89,-0.099,-0.031,-0.026,-1.571,0.427,-0.488,-6.505,10.743,-15.395
1747604307.91,-0.067,-0.030,-0.037,-1.609,0.426,-0.511,-8.392,11.213,-15.590
1747604307.93,-0.011,-0.055,0.030,-1.562,0.395,-0.547,-10.292,11.644,-15.792
1747604307.95,-0.010,-0.082,0.081,-1.556,0.389,-0.574,-12.159,12.046,-16.032
1747604307.97,0.023,-0.091,0.043,-1.549,0.425,-0.541,-14.026,12.451,-16.259
1747604307.99,0.070,-0.096,0.028,-1.554,0.402,-0.457,-15.873,12.862,-16.414
1747604308.01,0.114,-0.122,0.047,-1.533,0.485,-0.393,-17.700,13.364,-16.469
1747604308.03,0.138,-0.131,0.059,-1.576,0.464,-0.297,-19.521,13.953,-16.416
1747604308.05,0.134,-0.085,0.018,-1.559,0.248,-0.197,-21.328,14.413,-16.211
1747604308.07,0.141,-0.013,0.054,-1.523,0.089,-0.203,-23.082,14.694,-15.966
1747604308.09,0.148,-0.025,-0.010,-1.518,0.011,-0.208,-24.818,14.833,-15.721
1747604308.11,0.052,-0.109,-0.038,-1.559,0.022,-0.173,-26.565,14.980,-15.431
1747604308.13,0.017,-0.140,-0.023,-1.561,-0.023,-0.149,-28.337,15.128,-15.130
1747604308.15,0.000,-0.056,0.011,-1.530,-0.127,-0.184,-30.079,15.201,-14.806
1747604308.17,-0.133,0.081,0.033,-1.439,-0.025,-0.458,-31.806,15.198,-14.689
1747604308.19,-0.325,0.103,-0.077,-1.397,0.034,-0.676,-33.560,15.026,-14.929
1747604308.21,-0.303,0.035,0.041,-1.362,0.255,-0.808,-35.279,14.943,-15.441
1747604308.23,-0.123,0.017,0.034,-1.474,0.231,-0.786,-37.084,14.871,-16.027
1747604308.25,0.211,0.022,0.032,-1.454,0.133,-0.525,-38.905,14.863,-16.424
1747604308.27,0.303,0.002,0.017,-1.465,-0.095,-0.310,-40.631,14.856,-16.436
1747604308.29,0.228,-0.041,0.031,-1.437,-0.142,-0.295,-42.332,14.793,-16.298
1747604308.31,0.167,-0.055,0.029,-1.412,-0.170,-0.252,-43.973,14.721,-16.159
1747604308.33,0.134,-0.068,0.019,-1.522,-0.280,-0.098,-45.639,14.693,-15.840
1747604308.35,0.193,-0.098,0.072,-1.506,-0.443,0.033,-47.346,14.723,-15.241
1747604308.37,0.164,-0.107,-0.021,-1.507,-0.540,0.037,-48.983,14.680,-14.512
1747604308.39,0.005,-0.072,0.003,-1.543,-0.492,-0.020,-50.660,14.631,-13.808
1747604308.41,-0.145,-0.014,0.055,-1.494,-0.315,-0.085,-52.362,14.634,-13.213
1747604308.43,-0.087,0.049,0.022,-1.445,-0.201,-0.073,-54.014,14.803,-12.631
1747604308.45,0.035,0.046,0.024,-1.330,-0.295,-0.118,-55.570,14.986,-12.089
1747604308.47,0.042,-0.001,-0.052,-1.263,-0.543,-0.206,-57.037,14.806,-11.694
1747604308.49,0.015,-0.041,-0.009,-1.297,-0.479,-0.265,-58.518,14.382,-11.475
1747604308.51,-0.007,-0.029,0.039,-1.309,-0.476,-0.220,-60.035,13.964,-11.288
1747604308.53,0.066,-0.005,0.080,-1.299,-0.440,-0.119,-61.540,13.763,-10.946
1747604308.55,0.106,-0.028,0.004,-1.212,-0.464,-0.050,-62.941,13.708,-10.398
1747604308.57,0.026,-0.052,-0.012,-1.177,-0.367,-0.133,-64.278,13.690,-9.898
1747604308.59,-0.112,-0.047,0.017,-1.312,-0.105,-0.220,-65.721,13.682,-9.545
1747604308.61,-0.129,-0.043,0.097,-1.351,0.076,-0.193,-67.240,13.990,-9.246
1747604308.63,0.007,0.005,0.058,-1.366,-0.144,-0.076,-68.802,14.568,-8.612
1747604308.65,0.120,0.073,-0.041,-1.215,-0.537,-0.064,-70.253,15.022,-7.658
1747604308.67,0.156,0.025,-0.043,-1.196,-0.581,-0.156,-71.605,15.097,-6.929
1747604308.69,0.017,-0.078,-0.089,-1.165,-0.679,-0.153,-72.942,14.902,-6.347
1747604308.71,-0.032,-0.101,-0.054,-1.267,-0.615,-0.155,-74.330,14.794,-5.653
1747604308.73,0.111,-0.079,-0.004,-1.326,-0.613,-0.070,-75.804,15.054,-4.697
1747604308.75,0.154,-0.048,-0.059,-1.320,-0.909,0.074,-77.260,15.844,-2.975
1747604308.77,0.192,-0.060,-0.146,-1.204,-1.149,0.150,-78.610,17.182,-0.378
1747604308.79,0.163,-0.059,-0.154,-1.241,-1.197,0.193,-79.845,19.130,3.011
1747604308.81,0.077,-0.027,-0.027,-1.386,-1.388,0.170,-81.186,22.100,7.531
1747604308.83,0.092,-0.083,0.026,-1.372,-1.695,0.199,-82.543,26.112,13.353
1747604308.85,0.167,-0.070,-0.098,-1.239,-1.873,0.157,-83.761,31.608,21.016
1747604308.87,0.153,0.018,-0.095,-1.017,-2.150,0.187,-84.706,38.399,30.189
1747604308.89,-0.146,0.076,-0.133,-0.809,-1.949,0.108,-85.364,45.409,39.701
1747604308.91,-0.464,0.009,-0.101,-0.518,-1.266,-0.085,-85.864,51.383,47.573
1747604308.93,-0.734,0.013,-0.141,-0.201,-0.303,-0.363,-86.312,52.775,49.930
1747604308.95,-0.935,0.122,-0.049,-0.058,0.985,-0.507,-86.803,49.573,46.388
1747604308.97,-0.849,0.050,0.083,-0.195,2.063,-0.368,-87.267,46.097,41.164
1747604308.99,-0.305,-0.106,0.081,-0.496,2.581,-0.066,-87.716,51.687,44.077
1747604309.01,0.360,-0.120,0.072,-0.753,2.005,0.197,-87.974,72.781,62.504
1747604309.03,0.857,0.055,0.014,-0.619,1.271,0.147,-87.813,97.711,85.633
1747604309.05,0.867,0.127,0.013,-0.335,0.457,-0.125,-87.647,111.232,98.139
1747604309.07,0.420,0.027,-0.054,-0.284,-0.749,-0.413,-87.735,122.438,109.571
1747604309.09,0.003,-0.000,-0.072,-0.066,-1.208,-0.653,-88.106,137.019,125.352
1747604309.11,-0.072,-0.004,-0.020,-0.051,-0.997,-0.451,-88.458,154.718,144.349
1747604309.13,-0.158,-0.099,0.101,-0.311,-0.605,-0.065,-88.363,165.950,156.529
1747604309.15,-0.366,-0.168,0.061,-0.434,0.205,0.049,-87.923,168.191,159.030
1747604309.17,-0.431,-0.018,-0.036,-0.372,1.096,0.010,-87.453,170.324,160.403
1747604309.19,-0.176,0.079,-0.016,-0.250,1.587,0.006,-87.096,172.977,161.454
1747604309.21,0.117,0.066,-0.032,-0.108,1.219,0.014,-86.894,175.048,161.860
1747604309.23,0.237,0.043,-0.079,-0.004,0.608,-0.027,-86.841,176.110,161.887
1747604309.25,0.246,-0.011,0.017,-0.031,0.250,-0.056,-86.834,177.423,162.742
1747604309.27,0.177,-0.071,0.102,-0.056,-0.131,-0.023,-86.783,178.186,163.414
1747604309.29,-0.009,-0.050,0.073,-0.096,-0.511,-0.108,-86.700,179.010,164.646
1747604309.31,-0.063,-0.015,0.069,-0.124,-0.526,-0.122,-86.569,-179.049,167.202
1747604309.33,-0.012,0.031,0.041,-0.101,-0.384,-0.040,-86.447,-178.213,168.542
1747604309.35,-0.061,0.022,0.058,-0.172,-0.340,-0.037,-86.282,-178.099,169.091
1747604309.37,-0.081,-0.004,0.051,-0.170,-0.126,-0.051,-86.083,-177.640,169.829
1747604309.39,-0.036,0.012,0.061,-0.173,0.112,0.002,-85.880,-177.096,170.356
1747604309.41,-0.027,0.020,0.039,-0.161,0.161,0.060,-85.695,-177.669,169.606
1747604309.43,-0.066,-0.009,0.012,-0.140,0.145,0.034,-85.525,-178.314,168.789
1747604309.45,-0.077,-0.001,-0.010,-0.092,0.154,-0.018,-85.386,-178.291,168.642
1747604309.47,-0.034,0.016,0.004,-0.071,0.167,-0.035,-85.299,-177.729,169.017
1747604309.49,0.023,-0.019,-0.009,-0.047,0.040,-0.031,-85.216,-176.983,169.638
1747604309.51,0.081,0.009,-0.048,0.051,-0.096,0.018,-85.208,-176.742,169.915
1747604309.53,0.080,0.009,-0.009,0.014,-0.144,0.028,-85.267,-177.142,169.654
1747604309.55,0.015,-0.008,0.040,0.017,-0.196,0.019,-85.270,-177.624,169.366
1747604309.57,-0.015,0.003,-0.013,0.075,-0.132,0.007,-85.330,-177.903,169.282
1747604309.59,-0.002,-0.004,-0.008,0.053,-0.108,0.058,-85.406,-178.536,168.780
1747604309.61,-0.009,0.017,-0.024,0.100,-0.103,0.032,-85.497,-179.590,167.856
1747604309.63,-0.056,0.010,0.005,0.037,-0.019,0.041,-85.574,179.629,167.155
1747604309.65,-0.069,-0.029,0.032,0.022,0.090,0.018,-85.597,179.339,166.815
1747604309.67,-0.027,-0.005,-0.009,0.074,0.076,0.016,-85.649,179.215,166.584
1747604309.69,0.015,0.025,-0.015,0.068,0.017,0.042,-85.750,178.849,166.158
1747604309.71,0.018,-0.005,0.009,0.047,-0.045,0.034,-85.803,178.459,165.787
1747604309.73,0.020,-0.003,-0.000,0.096,-0.052,0.032,-85.874,178.199,165.585
1747604309.75,0.017,0.010,0.003,0.149,-0.014,0.039,-86.011,177.712,165.136
1747604309.77,-0.015,0.010,0.010,0.129,-0.050,0.025,-86.173,176.988,164.440
1747604309.79,-0.039,-0.027,0.013,0.116,0.006,0.015,-86.306,176.430,163.912
1747604309.81,-0.024,-0.027,-0.001,0.118,0.055,0.029,-86.433,175.839,163.286
1747604309.83,0.035,0.009,-0.004,0.176,0.061,0.071,-86.583,174.626,161.985
1747604309.85,0.045,0.021,-0.006,0.235,-0.068,0.064,-86.806,172.773,160.139
1747604309.87,0.029,-0.018,-0.023,0.273,-0.041,0.049,-87.079,170.971,158.413
1747604309.89,-0.012,-0.007,0.002,0.274,-0.017,0.034,-87.375,169.251,156.718
1747604309.91,0.007,0.030,0.009,0.313,-0.045,0.033,-87.693,166.624,154.121
1747604309.93,0.048,0.002,0.033,0.355,-0.073,0.070,-88.032,161.954,149.530
1747604309.95,0.048,0.003,0.065,0.397,-0.087,0.085,-88.390,153.568,141.221
1747604309.97,-0.042,0.018,0.079,0.394,-0.162,0.084,-88.715,140.243,128.034
1747604309.99,-0.102,-0.032,0.056,0.369,-0.041,-0.011,-88.976,122.390,110.311
1747604310.01,-0.038,-0.025,0.063,0.422,0.040,-0.003,-89.143,97.153,85.055
1747604310.03,0.021,0.034,0.058,0.475,-0.068,0.060,-89.028,65.304,53.194
1747604310.05,-0.016,0.028,0.023,0.566,-0.101,0.045,-88.621,43.138,31.163
1747604310.07,-0.041,-0.013,0.097,0.574,0.116,0.049,-88.065,30.897,18.899
1747604310.09,-0.078,-0.012,0.064,0.626,0.169,0.020,-87.436,24.091,11.925
1747604310.11,-0.124,0.000,0.045,0.590,0.346,0.018,-86.785,19.489,7.020
1747604310.13,-0.071,0.002,-0.000,0.730,0.506,0.025,-86.077,16.759,3.804
1747604310.15,-0.029,0.032,-0.025,0.740,0.659,0.030,-85.232,14.662,1.022
1747604310.17,0.038,0.031,0.089,0.582,0.585,0.065,-84.502,14.023,-0.347
1747604310.19,0.013,0.007,0.030,0.577,0.453,0.014,-83.843,13.523,-1.429
1747604310.21,-0.005,-0.026,0.030,0.582,0.444,-0.020,-83.214,12.695,-2.784
1747604310.23,0.015,-0.017,-0.044,0.800,0.268,-0.086,-82.467,11.358,-4.545
1747604310.25,0.023,0.017,-0.124,0.939,0.348,-0.162,-81.490,9.379,-6.865
1747604310.27,0.031,-0.018,-0.081,0.894,0.546,-0.154,-80.467,7.675,-9.129
1747604310.29,-0.003,-0.033,0.030,0.756,0.573,-0.046,-79.540,7.027,-10.467
1747604310.31,-0.117,-0.046,-0.031,0.609,0.594,-0.003,-78.787,7.033,-11.122
1747604310.33,0.053,-0.051,0.002,0.798,0.757,0.040,-78.022,7.515,-11.496
1747604310.35,0.135,-0.010,-0.152,1.084,0.282,-0.022,-76.937,7.542,-12.050
1747604310.37,0.003,0.005,-0.118,1.155,0.499,-0.222,-75.670,6.757,-13.310
1747604310.39,-0.205,-0.041,0.051,1.033,0.595,-0.228,-74.469,5.855,-14.919
1747604310.41,-0.391,-0.093,-0.107,0.961,0.805,-0.097,-73.333,5.557,-16.034
1747604310.43,-0.146,-0.064,-0.061,0.970,1.239,-0.062,-72.276,6.155,-16.668
1747604310.45,0.238,-0.057,-0.081,1.134,1.134,-0.077,-71.064,6.870,-17.402
1747604310.47,0.180,-0.053,0.014,1.116,0.524,-0.094,-69.803,7.144,-18.190
1747604310.49,-0.177,-0.057,-0.113,1.014,0.657,-0.178,-68.576,6.875,-19.035
1747604310.51,-0.097,-0.017,0.105,1.073,1.130,-0.188,-67.465,7.085,-20.041
1747604310.53,0.049,0.035,-0.029,1.142,0.710,-0.097,-66.200,7.388,-20.887
1747604310.55,0.181,0.006,0.016,1.221,0.350,-0.087,-64.899,7.372,-21.587
1747604310.57,0.184,-0.091,-0.027,1.270,0.315,-0.074,-63.474,7.195,-22.211
1747604310.59,0.022,-0.069,0.008,1.046,0.238,-0.048,-62.171,7.022,-22.769
1747604310.61,-0.077,-0.016,0.000,0.951,0.235,0.013,-61.067,7.031,-23.135
1747604310.63,0.037,0.018,-0.061,1.021,0.242,0.191,-59.946,7.229,-23.209
1747604310.65,0.288,-0.020,0.072,1.189,0.058,0.119,-58.678,7.477,-23.197
1747604310.67,0.200,-0.064,0.055,1.138,-0.049,0.039,-57.314,7.351,-23.388
1747604310.69,-0.062,-0.063,-0.018,0.972,-0.246,-0.006,-56.111,6.951,-23.687
1747604310.71,-0.118,-0.005,-0.144,0.899,-0.170,0.096,-55.053,6.575,-23.884
1747604310.73,0.010,0.014,-0.024,1.104,-0.182,0.203,-53.923,6.477,-23.809
1747604310.75,0.039,0.036,0.037,1.291,-0.138,0.179,-52.518,6.346,-23.756
1747604310.77,0.045,0.060,0.139,1.333,0.092,0.058,-50.985,6.268,-23.894
1747604310.79,0.056,0.078,0.079,1.164,0.006,0.230,-49.562,6.329,-23.942
1747604310.81,0.093,0.046,0.044,1.101,-0.132,0.300,-48.263,6.477,-23.668
1747604310.83,0.079,-0.003,0.096,1.251,-0.174,0.300,-46.889,6.514,-23.406
1747604310.84,0.041,-0.019,0.049,1.305,-0.120,0.219,-45.404,6.475,-23.256
1747604310.86,-0.020,0.033,0.086,1.187,-0.087,0.135,-43.949,6.419,-23.221
1747604310.88,-0.106,0.085,0.006,1.094,-0.162,0.273,-42.652,6.321,-23.209
1747604310.90,-0.076,0.041,0.011,1.100,-0.102,0.069,-41.375,6.225,-23.203
1747604310.92,-0.040,0.039,-0.040,1.118,-0.229,-0.006,-40.116,5.947,-23.366
1747604310.94,0.003,0.081,0.050,1.138,-0.030,-0.005,-38.844,5.666,-23.544
1747604310.96,0.112,0.110,0.075,1.056,0.111,0.037,-37.575,5.640,-23.692
1747604310.98,0.099,0.043,-0.063,0.892,-0.039,0.136,-36.465,5.704,-23.698
1747604311.00,-0.051,-0.111,-0.080,0.849,-0.115,0.179,-35.459,5.629,-23.587
1747604311.02,0.035,-0.083,0.002,0.880,0.047,0.074,-34.476,5.647,-23.530
1747604311.04,0.121,0.077,0.069,0.929,-0.014,0.179,-33.420,5.678,-23.500
1747604311.06,0.178,0.124,0.011,0.940,-0.178,0.315,-32.331,5.694,-23.289
1747604311.08,0.109,0.015,-0.081,0.881,-0.289,0.347,-31.242,5.615,-22.945
1747604311.10,0.003,-0.104,-0.096,0.973,-0.177,0.306,-30.171,5.474,-22.632
1747604311.12,-0.072,-0.133,0.033,0.982,-0.003,0.245,-29.015,5.502,-22.385
1747604311.14,-0.044,-0.061,0.059,0.948,0.041,0.209,-27.888,5.625,-22.222
1747604311.16,0.093,0.001,0.009,0.862,-0.095,0.363,-26.830,5.696,-22.000
1747604311.18,0.194,-0.001,-0.045,0.867,-0.151,0.541,-25.812,5.759,-21.511
1747604311.20,0.096,0.041,-0.015,0.943,-0.192,0.509,-24.720,5.800,-20.964
1747604311.22,-0.053,0.063,0.024,0.995,-0.026,0.430,-23.562,5.820,-20.496
1747604311.24,0.012,0.013,0.051,1.079,0.066,0.366,-22.326,6.037,-20.139
1747604311.26,-0.100,-0.011,-0.036,0.959,-0.032,0.341,-21.122,6.143,-19.869
1747604311.28,-0.128,-0.021,-0.043,0.945,0.018,0.370,-20.004,6.231,-19.590
1747604311.30,-0.036,0.070,0.043,1.006,0.030,0.285,-18.866,6.365,-19.309
1747604311.32,0.016,0.126,0.056,1.133,-0.057,0.101,-17.625,6.388,-19.228
1747604311.34,-0.040,0.056,-0.018,1.103,-0.091,0.032,-16.322,6.256,-19.312
1747604311.36,-0.158,-0.047,-0.065,1.068,0.077,0.078,-15.086,6.211,-19.393
1747604311.38,-0.122,-0.029,-0.014,1.047,0.311,0.098,-13.869,6.446,-19.452
1747604311.40,0.081,-0.018,0.022,1.015,0.134,0.152,-12.679,6.739,-19.488
1747604311.42,0.125,0.017,0.032,1.007,-0.101,0.174,-11.513,6.752,-19.469
1747604311.44,0.079,0.010,0.010,0.979,-0.050,0.103,-10.361,6.645,-19.479
1747604311.46,-0.035,-0.058,-0.108,0.932,0.108,0.189,-9.272,6.678,-19.472
1747604311.48,-0.081,-0.023,-0.046,0.910,0.245,0.235,-8.195,6.924,-19.380
1747604311.50,-0.092,0.115,0.036,0.851,0.144,0.211,-7.171,7.183,-19.277
1747604311.52,0.043,0.034,0.016,0.926,-0.118,0.162,-6.159,7.201,-19.194
1747604311.54,0.189,0.017,-0.028,0.952,-0.345,0.107,-5.058,6.927,-19.202
1747604311.56,0.072,-0.083,-0.051,0.947,-0.085,0.084,-3.970,6.627,-19.248
1747604311.58,-0.108,-0.212,-0.000,0.911,0.302,0.153,-2.902,6.784,-19.275
1747604311.60,-0.001,-0.036,0.023,0.944,0.387,0.268,-1.841,7.205,-19.196
1747604311.62,0.099,0.247,0.148,0.949,0.181,0.329,-0.708,7.542,-19.013
1747604311.64,0.132,0.125,0.021,0.996,-0.115,0.302,0.441,7.561,-18.811
1747604311.66,0.129,-0.101,-0.122,0.939,-0.152,0.225,1.574,7.379,-18.677
1747604311.68,0.014,-0.142,-0.136,0.928,0.070,0.234,2.644,7.322,-18.569
1747604311.70,-0.110,0.036,0.017,0.937,0.208,0.260,3.738,7.478,-18.419
1747604311.72,-0.038,0.201,0.115,0.937,0.125,0.232,4.849,7.666,-18.263
1747604311.74,0.023,0.175,-0.020,0.950,-0.121,0.148,5.952,7.649,-18.189
1747604311.76,0.027,-0.002,-0.181,0.900,-0.206,0.004,7.017,7.460,-18.254
1747604311.78,-0.061,-0.103,-0.131,0.872,-0.016,-0.044,8.007,7.343,-18.429
1747604311.80,-0.126,0.041,-0.024,0.850,0.111,-0.056,8.984,7.438,-18.605
1747604311.82,-0.022,0.178,0.009,0.898,-0.097,-0.076,9.979,7.478,-18.813
1747604311.84,0.061,0.109,-0.081,0.887,-0.218,-0.184,10.969,7.340,-19.122
1747604311.86,-0.013,-0.013,-0.110,0.805,-0.083,-0.251,11.894,7.255,-19.528
1747604311.88,-0.045,-0.137,-0.108,0.712,0.033,-0.245,12.717,7.310,-19.936
1747604311.90,0.072,-0.064,-0.073,0.601,-0.093,-0.223,13.431,7.371,-20.306
1747604311.92,0.135,-0.034,-0.067,0.468,-0.141,-0.164,14.006,7.296,-20.622
1747604311.94,0.081,-0.055,-0.150,0.346,-0.031,-0.112,14.453,7.245,-20.846
1747604311.96,0.061,-0.113,-0.154,0.215,0.059,-0.039,14.764,7.297,-20.984
1747604311.98,0.100,-0.166,-0.135,-0.048,0.074,0.014,14.870,7.403,-21.024
1747604312.00,0.060,-0.219,-0.119,-0.244,0.019,0.092,14.714,7.428,-20.921
1747604312.02,0.127,-0.169,-0.212,-0.431,-0.075,0.094,14.341,7.356,-20.756
1747604312.04,0.021,-0.153,-0.145,-0.609,0.149,0.101,13.770,7.334,-20.553
1747604312.06,-0.072,-0.147,-0.107,-0.823,0.218,0.117,12.990,7.521,-20.293
1747604312.08,0.113,-0.164,-0.183,-1.009,-0.024,0.166,11.968,7.569,-19.964
1747604312.10,0.065,-0.138,-0.188,-1.163,-0.018,0.128,10.762,7.456,-19.616
1747604312.12,-0.038,-0.102,-0.139,-1.311,0.131,0.102,9.381,7.461,-19.290
1747604312.14,-0.063,-0.103,-0.096,-1.428,0.240,0.109,7.850,7.629,-18.936
1747604312.16,0.035,-0.100,-0.137,-1.532,0.111,0.101,6.185,7.797,-18.572
1747604312.18,0.042,-0.070,-0.073,-1.599,0.027,0.090,4.417,7.827,-18.189
1747604312.20,-0.061,-0.083,-0.035,-1.590,0.080,-0.030,2.628,7.861,-17.872
1747604312.22,-0.132,-0.055,-0.037,-1.588,0.114,-0.096,0.830,7.951,-17.660
1747604312.24,-0.083,-0.018,-0.031,-1.632,0.155,-0.094,-0.997,8.127,-17.477
1747604312.26,0.034,-0.007,0.012,-1.646,0.088,-0.086,-2.872,8.262,-17.250
1747604312.28,0.065,-0.061,0.043,-1.628,0.102,-0.125,-4.729,8.375,-17.057
1747604312.30,0.031,-0.109,-0.041,-1.636,0.138,-0.126,-6.607,8.521,-16.878
1747604312.32,-0.087,-0.114,0.065,-1.572,0.321,-0.141,-8.432,8.812,-16.696
1747604312.34,-0.109,-0.059,0.010,-1.533,0.315,-0.215,-10.217,9.180,-16.576
1747604312.36,-0.068,-0.004,0.051,-1.538,0.356,-0.209,-11.985,9.587,-16.485
1747604312.38,-0.048,0.020,0.038,-1.531,0.369,-0.242,-13.761,10.021,-16.394
1747604312.40,-0.033,0.044,0.003,-1.522,0.318,-0.262,-15.531,10.411,-16.350
1747604312.42,0.034,0.031,-0.021,-1.499,0.335,-0.246,-17.280,10.793,-16.272
1747604312.44,0.043,0.003,0.022,-1.518,0.328,-0.253,-19.024,11.198,-16.189
1747604312.46,0.013,-0.035,0.019,-1.540,0.303,-0.237,-20.792,11.584,-16.097
1747604312.48,0.074,-0.035,0.009,-1.503,0.155,-0.161,-22.554,11.919,-15.919
1747604312.50,0.027,0.015,0.057,-1.446,0.001,-0.201,-24.229,12.054,-15.712
1747604312.52,0.007,0.046,-0.001,-1.449,0.046,-0.272,-25.893,12.119,-15.605
1747604312.54,0.008,-0.045,-0.020,-1.432,0.061,-0.230,-27.572,12.208,-15.520
1747604312.56,0.009,-0.151,0.030,-1.401,0.015,-0.167,-29.193,12.316,-15.366
1747604312.58,0.057,-0.128,0.058,-1.398,0.048,-0.125,-30.786,12.469,-15.154
1747604312.60,0.099,-0.058,0.027,-1.357,0.056,-0.102,-32.361,12.660,-14.895
1747604312.62,0.087,-0.025,0.019,-1.348,-0.114,-0.059,-33.894,12.803,-14.586
1747604312.64,0.006,-0.039,0.025,-1.322,-0.205,0.018,-35.385,12.802,-14.221
1747604312.66,0.033,-0.042,-0.014,-1.304,-0.176,-0.035,-36.834,12.830,-13.792
1747604312.68,-0.084,-0.033,-0.055,-1.432,-0.050,-0.094,-38.371,12.908,-13.476
1747604312.70,-0.003,0.019,0.028,-1.487,-0.024,-0.035,-40.023,13.107,-13.077
1747604312.72,0.128,0.101,0.041,-1.411,-0.097,-0.007,-41.646,13.373,-12.594
1747604312.74,0.139,0.098,-0.020,-1.398,-0.096,0.083,-43.192,13.594,-12.047
1747604312.76,0.167,-0.012,-0.001,-1.381,-0.024,0.058,-44.712,14.019,-11.372
1747604312.78,0.006,-0.085,0.011,-1.464,-0.096,-0.046,-46.286,14.341,-10.802
1747604312.80,-0.062,-0.077,0.031,-1.588,-0.116,0.042,-47.972,14.696,-10.169
1747604312.82,0.047,-0.017,-0.011,-1.586,-0.276,0.203,-49.704,15.168,-9.208
1747604312.84,0.173,-0.016,-0.021,-1.470,-0.304,0.077,-51.337,15.627,-8.168
1747604312.86,0.024,-0.037,0.007,-1.391,-0.344,-0.053,-52.905,15.813,-7.400
1747604312.88,-0.085,-0.031,0.017,-1.524,-0.235,-0.091,-54.505,16.004,-6.756
1747604312.90,-0.013,0.005,0.057,-1.525,-0.361,-0.038,-56.234,16.257,-6.050
1747604312.92,0.207,0.022,0.036,-1.402,-0.662,0.090,-57.836,16.489,-5.062
1747604312.94,0.134,0.031,-0.109,-1.330,-0.831,-0.110,-59.308,16.327,-4.181
1747604312.96,-0.126,-0.027,-0.010,-1.335,-0.532,-0.278,-60.837,15.854,-3.740
1747604312.98,-0.234,0.005,0.087,-1.433,-0.105,-0.286,-62.451,15.673,-3.545
1747604313.00,-0.157,0.033,0.130,-1.438,-0.061,-0.138,-64.090,16.033,-3.064
1747604313.02,0.096,-0.026,0.092,-1.390,-0.226,0.080,-65.665,16.825,-2.003
1747604313.04,0.251,-0.068,0.026,-1.354,-0.562,0.103,-67.127,17.727,-0.508
1747604313.06,0.111,-0.053,-0.106,-1.230,-0.927,-0.069,-68.523,17.949,0.690
1747604313.08,-0.011,-0.083,-0.040,-1.236,-0.860,-0.022,-69.872,17.901,1.761
1747604313.10,0.089,-0.108,-0.039,-1.168,-0.830,0.105,-71.174,18.291,3.210
1747604313.12,0.185,-0.117,-0.075,-1.121,-0.872,0.296,-72.342,19.224,5.216
1747604313.14,0.049,-0.077,-0.103,-1.061,-1.002,0.327,-73.381,20.609,7.815
1747604313.16,-0.105,-0.044,-0.128,-1.009,-0.751,0.224,-74.378,22.165,10.508
1747604313.18,-0.137,-0.051,-0.094,-0.894,-0.653,0.097,-75.310,23.562,12.777
1747604313.20,-0.113,-0.026,-0.120,-0.695,-0.830,0.026,-76.107,24.397,14.545
1747604313.22,-0.159,0.035,-0.127,-0.522,-0.521,-0.140,-76.768,24.578,15.580
1747604313.24,-0.382,0.021,-0.069,-0.371,-0.120,-0.316,-77.325,24.037,15.432
1747604313.26,-0.425,-0.008,-0.107,-0.501,0.632,-0.286,-77.927,23.653,14.768
1747604313.28,-0.101,0.043,0.023,-0.345,1.086,-0.146,-78.491,24.649,14.742
1747604313.30,0.056,0.078,0.025,-0.243,1.064,-0.129,-78.827,25.896,14.730
1747604313.32,0.035,-0.027,0.025,-0.415,0.418,-0.233,-79.250,26.704,14.710
1747604313.34,-0.085,-0.147,-0.021,-0.430,0.238,-0.345,-79.835,26.546,14.239
1747604313.36,0.075,-0.018,-0.054,-0.380,0.426,-0.287,-80.428,26.270,13.589
1747604313.38,0.283,0.091,-0.127,-0.240,0.413,-0.259,-80.881,26.064,12.910
1747604313.40,0.258,0.017,-0.094,-0.211,0.281,-0.235,-81.217,25.413,11.841
1747604313.42,0.114,-0.062,0.015,-0.362,0.125,-0.171,-81.610,25.261,11.467
1747604313.44,0.018,-0.070,0.033,-0.402,0.075,-0.165,-82.089,25.475,11.604
1747604313.46,0.035,-0.054,0.037,-0.452,0.114,-0.172,-82.614,25.890,11.905
1747604313.48,-0.024,0.013,0.050,-0.408,-0.034,-0.225,-83.162,26.102,12.083
1747604313.50,-0.054,0.061,0.015,-0.331,-0.047,-0.168,-83.635,25.951,12.027
1747604313.52,-0.057,0.062,-0.004,-0.302,0.019,-0.190,-84.044,25.671,11.762
1747604313.54,-0.042,0.004,-0.024,-0.308,0.224,-0.202,-84.453,25.238,11.227
1747604313.56,-0.049,-0.021,0.029,-0.363,0.355,-0.156,-84.888,25.342,11.020
1747604313.58,-0.060,-0.040,0.071,-0.343,0.359,-0.144,-85.334,26.087,11.358
1747604313.60,-0.006,0.012,0.004,-0.271,0.340,-0.107,-85.710,26.776,11.672
1747604313.62,0.060,0.004,0.003,-0.298,0.372,-0.096,-86.040,27.827,12.327
1747604313.64,0.060,-0.017,0.018,-0.389,0.189,-0.132,-86.444,29.314,13.494
1747604313.66,0.061,-0.011,-0.021,-0.349,0.046,-0.108,-86.913,30.766,14.842
1747604313.68,0.036,0.008,-0.048,-0.225,0.042,-0.103,-87.240,32.029,16.089
1747604313.70,-0.050,-0.006,-0.001,-0.305,0.132,-0.099,-87.548,33.530,17.523
1747604313.72,-0.114,-0.023,0.022,-0.349,0.298,-0.121,-87.932,36.614,20.354
1747604313.74,-0.120,-0.037,0.014,-0.329,0.360,-0.072,-88.310,41.801,25.191
1747604313.76,-0.030,-0.033,0.010,-0.338,0.375,-0.065,-88.622,50.455,33.432
1747604313.78,0.013,0.017,-0.015,-0.342,0.197,-0.098,-88.917,64.088,46.750
1747604313.80,0.058,0.046,-0.099,-0.221,0.026,-0.107,-89.138,80.786,63.354
1747604313.82,0.104,0.058,-0.125,-0.065,0.056,-0.088,-89.256,92.164,74.702
1747604313.84,0.078,0.010,-0.089,0.016,-0.017,0.062,-89.248,92.818,75.339
1747604313.86,-0.022,-0.042,-0.012,-0.037,-0.071,-0.005,-89.203,93.928,76.501
1747604313.88,-0.088,-0.016,-0.046,0.052,-0.151,-0.088,-89.267,94.672,77.381
1747604313.90,-0.010,0.013,-0.093,0.165,0.022,-0.012,-89.330,82.622,65.425
1747604313.92,0.040,0.006,-0.009,0.139,0.163,0.089,-89.219,69.515,52.203
1747604313.94,-0.053,0.005,0.018,0.049,0.119,0.052,-89.098,65.259,47.769
1747604313.96,-0.093,-0.025,-0.011,0.111,0.103,0.008,-89.045,61.760,44.161
1747604313.97,0.021,-0.004,-0.030,0.187,0.119,0.044,-88.924,53.767,36.045
1747604314.00,0.076,0.010,-0.003,0.187,0.077,0.031,-88.751,47.242,29.393
1747604314.01,0.030,0.016,0.012,0.215,-0.082,0.015,-88.570,41.333,23.487
1747604314.03,0.032,0.004,0.010,0.229,-0.050,0.055,-88.354,35.718,17.966
1747604314.05,0.063,-0.009,0.069,0.184,-0.016,0.107,-88.100,34.005,16.264
1747604314.07,-0.022,0.020,0.041,0.193,-0.132,0.053,-87.870,33.208,15.560
1747604314.09,-0.104,-0.003,0.022,0.203,-0.029,-0.012,-87.661,30.430,12.893
1747604314.11,-0.055,-0.027,0.082,0.128,0.075,-0.000,-87.499,28.010,10.424
1747604314.13,0.026,0.015,0.059,0.135,-0.039,0.050,-87.361,27.466,9.851
1747604314.15,0.018,0.022,0.022,0.164,-0.093,0.058,-87.186,27.007,9.478
1747604314.17,-0.016,-0.012,0.004,0.188,-0.026,0.027,-86.988,25.856,8.401
1747604314.19,-0.023,-0.006,0.019,0.236,0.047,0.002,-86.781,24.134,6.653
1747604314.21,-0.011,0.010,-0.002,0.309,0.012,-0.001,-86.505,22.189,4.669
1747604314.23,-0.003,0.029,-0.030,0.305,0.054,0.035,-86.161,20.477,2.929
1747604314.25,-0.008,-0.023,0.019,0.307,0.070,0.046,-85.834,19.683,2.060
1747604314.27,-0.015,-0.028,0.004,0.438,0.146,0.041,-85.433,18.492,0.753
1747604314.29,-0.033,0.035,0.032,0.455,0.239,0.047,-84.916,17.423,-0.567
1747604314.31,-0.149,0.005,0.074,0.437,0.304,-0.019,-84.434,16.284,-1.993
1747604314.33,-0.124,-0.032,0.080,0.507,0.467,-0.012,-83.935,15.160,-3.571
1747604314.35,-0.019,-0.001,0.019,0.672,0.473,-0.018,-83.276,14.048,-5.259
1747604314.37,0.044,0.048,-0.040,0.683,0.197,-0.023,-82.511,12.776,-6.943
1747604314.39,0.072,0.020,-0.018,0.558,0.130,-0.012,-81.826,11.677,-8.195
1747604314.41,0.121,-0.073,0.041,0.536,0.246,0.092,-81.218,11.349,-8.748
1747604314.43,0.068,-0.082,0.012,0.631,0.049,0.097,-80.548,11.494,-8.797
1747604314.45,0.029,0.042,-0.107,0.681,-0.017,-0.039,-79.786,10.832,-9.463
1747604314.47,0.049,0.088,-0.019,0.662,0.152,-0.042,-79.045,9.837,-10.534
1747604314.49,-0.020,-0.001,0.027,0.542,0.317,-0.011,-78.363,9.385,-11.273
1747604314.51,-0.111,-0.066,0.038,0.523,0.388,0.038,-77.778,9.416,-11.662
1747604314.53,-0.056,-0.038,-0.043,0.593,0.462,0.059,-77.153,9.678,-11.883
1747604314.55,0.085,-0.034,-0.062,0.749,0.512,0.042,-76.370,9.953,-12.199
1747604314.57,0.020,0.041,-0.044,0.662,0.378,-0.057,-75.549,9.882,-12.825
1747604314.59,-0.159,0.064,0.058,0.525,0.355,-0.096,-74.915,9.483,-13.671
1747604314.61,-0.196,-0.028,0.037,0.472,0.526,-0.094,-74.388,9.267,-14.416
1747604314.63,-0.092,-0.038,-0.016,0.628,0.589,-0.103,-73.799,9.198,-15.216
1747604314.65,-0.077,0.016,-0.111,0.972,0.380,-0.195,-72.925,8.754,-16.257
1747604314.67,-0.184,0.013,-0.178,1.065,0.634,-0.448,-71.781,7.618,-18.031
1747604314.69,-0.199,-0.056,-0.005,0.926,1.264,-0.556,-70.729,6.540,-20.328
1747604314.71,-0.309,-0.078,0.003,0.812,1.543,-0.494,-69.841,6.208,-22.491
1747604314.73,-0.315,-0.017,-0.020,0.878,1.636,-0.355,-68.932,6.461,-24.188
1747604314.75,0.164,-0.037,-0.022,1.179,1.246,-0.127,-67.798,7.095,-25.380
1747604314.77,0.600,-0.083,-0.133,1.050,0.777,0.072,-66.496,7.780,-25.869
1747604314.79,0.572,-0.086,0.044,0.959,0.078,0.068,-65.379,8.150,-26.069
1747604314.81,0.283,-0.045,-0.023,0.805,-0.219,0.130,-64.364,7.960,-26.177
1747604314.83,0.270,-0.018,0.101,1.010,-0.490,0.241,-63.324,7.705,-26.042
1747604314.85,0.260,0.045,0.033,1.036,-0.662,0.210,-62.111,7.287,-25.803
1747604314.87,0.051,0.113,0.086,0.990,-0.652,0.196,-60.932,6.639,-25.669
1747604314.89,-0.174,0.081,0.119,0.733,-0.279,0.255,-59.899,6.328,-25.411
1747604314.91,-0.258,-0.012,0.042,0.582,0.132,0.338,-59.134,6.695,-24.955
1747604314.93,-0.129,-0.013,0.035,0.651,0.224,0.304,-58.404,7.423,-24.419
1747604314.95,-0.001,0.082,0.046,0.796,0.139,0.181,-57.533,7.892,-24.151
1747604314.97,-0.008,0.144,0.132,0.603,0.202,0.076,-56.724,8.112,-24.158
1747604314.99,-0.006,0.080,0.076,0.526,-0.015,0.120,-56.096,8.250,-24.184
1747604315.01,0.055,-0.043,-0.046,0.635,-0.352,0.211,-55.420,8.187,-24.048
1747604315.03,0.013,-0.061,-0.162,0.748,-0.393,-0.045,-54.613,7.740,-24.074
1747604315.05,-0.190,0.027,-0.028,0.805,-0.114,-0.288,-53.741,6.987,-24.657
1747604315.07,-0.303,-0.029,0.034,0.755,0.214,-0.310,-52.892,6.414,-25.462
1747604315.09,0.012,-0.150,-0.024,0.686,0.589,-0.180,-52.115,6.409,-26.108
1747604315.11,0.325,-0.113,-0.130,0.609,0.253,0.020,-51.394,6.739,-26.422
1747604315.13,0.233,-0.006,-0.049,0.697,-0.262,0.208,-50.646,6.729,-26.408
1747604315.15,0.232,0.002,-0.025,0.737,-0.417,0.254,-49.791,6.556,-26.163
1747604315.17,0.242,-0.007,0.002,0.775,-0.508,0.257,-48.908,6.248,-25.873
1747604315.19,0.149,-0.014,-0.032,0.842,-0.544,0.257,-47.947,5.862,-25.619
1747604315.21,0.003,-0.079,-0.076,0.798,-0.505,0.326,-46.973,5.494,-25.303
1747604315.23,0.051,-0.095,-0.004,0.780,-0.308,0.354,-46.050,5.374,-24.869
1747604315.25,0.016,-0.055,0.046,0.737,-0.289,0.374,-45.142,5.359,-24.420
1747604315.27,0.003,0.003,0.085,0.753,-0.184,0.342,-44.258,5.424,-23.996
1747604315.29,-0.007,0.078,0.078,0.785,-0.234,0.320,-43.342,5.468,-23.626
1747604315.31,-0.099,0.099,0.015,0.766,-0.218,0.243,-42.438,5.436,-23.309
1747604315.33,-0.140,0.071,0.001,0.808,-0.129,0.115,-41.521,5.335,-23.185
1747604315.35,-0.059,0.063,0.065,0.821,-0.005,0.117,-40.576,5.276,-23.172
1747604315.37,-0.024,0.092,0.048,0.754,-0.016,-0.064,-39.682,5.247,-23.310
1747604315.39,-0.057,0.043,-0.010,0.791,-0.048,0.016,-38.815,5.094,-23.469
1747604315.41,-0.043,0.017,-0.029,0.874,0.033,-0.044,-37.863,5.022,-23.602
1747604315.43,-0.060,0.073,-0.023,0.838,0.053,-0.024,-36.897,4.948,-23.819
1747604315.45,-0.005,0.123,0.069,0.773,0.102,-0.108,-35.987,4.916,-24.122
1747604315.47,0.092,0.069,0.033,0.789,-0.039,0.021,-35.105,4.862,-24.287
1747604315.49,0.043,0.035,0.009,0.844,-0.048,0.017,-34.180,4.792,-24.370
1747604315.51,-0.038,-0.010,-0.007,0.813,0.042,-0.049,-33.224,4.706,-24.515
1747604315.53,0.033,-0.031,0.018,0.800,0.037,-0.072,-32.326,4.666,-24.730
1747604315.55,0.075,-0.060,-0.023,0.785,0.009,0.024,-31.424,4.638,-24.869
1747604315.57,0.109,-0.074,-0.082,0.766,-0.156,0.103,-30.530,4.567,-24.874
1747604315.59,0.082,-0.049,-0.040,0.756,-0.136,0.143,-29.662,4.423,-24.803
1747604315.61,0.014,-0.018,0.027,0.775,-0.016,0.133,-28.784,4.382,-24.718
1747604315.63,-0.093,-0.066,0.042,0.741,0.049,0.167,-27.905,4.462,-24.615
1747604315.65,-0.032,-0.057,-0.028,0.769,0.028,0.098,-27.032,4.559,-24.533
1747604315.67,0.057,0.042,-0.035,0.751,-0.078,0.104,-26.162,4.557,-24.512
1747604315.69,0.020,0.076,0.015,0.769,0.025,0.129,-25.280,4.542,-24.446
1747604315.71,-0.079,0.031,0.014,0.741,0.075,0.161,-24.408,4.634,-24.369
1747604315.73,0.004,-0.023,0.034,0.763,0.094,0.173,-23.542,4.807,-24.244
1747604315.75,0.047,0.016,0.004,0.796,0.027,0.137,-22.641,4.915,-24.165
1747604315.77,-0.005,0.043,-0.024,0.789,-0.032,0.147,-21.721,4.943,-24.098
1747604315.79,-0.022,0.036,0.018,0.844,-0.063,0.178,-20.783,4.928,-24.013
1747604315.81,0.024,0.032,0.034,0.875,-0.057,0.185,-19.793,4.900,-23.897
1747604315.83,0.047,0.009,0.031,0.871,0.087,0.156,-18.774,4.948,-23.796
1747604315.85,-0.036,-0.045,0.026,0.846,0.139,0.153,-17.794,5.113,-23.720
1747604315.87,-0.038,-0.021,-0.034,0.887,0.116,0.171,-16.785,5.289,-23.634
1747604315.89,0.051,0.079,-0.019,0.918,-0.005,0.155,-15.733,5.400,-23.561
1747604315.91,0.033,0.085,-0.003,0.913,-0.074,0.207,-14.673,5.356,-23.472
1747604315.93,0.098,-0.000,0.068,0.898,-0.027,0.246,-13.614,5.349,-23.317
1747604315.95,0.061,-0.054,0.026,0.954,0.064,0.176,-12.553,5.381,-23.200
1747604315.97,0.027,-0.067,-0.081,0.945,0.094,0.199,-11.441,5.525,-23.097
1747604315.99,-0.025,-0.053,-0.041,0.895,0.047,0.244,-10.379,5.618,-22.981
1747604316.01,-0.096,0.038,0.052,0.895,0.184,0.255,-9.319,5.771,-22.804
1747604316.03,-0.128,0.074,0.020,0.845,0.232,0.246,-8.308,6.063,-22.633
1747604316.05,0.066,-0.049,-0.054,0.865,0.084,0.167,-7.316,6.280,-22.487
1747604316.07,0.113,-0.075,-0.062,0.810,-0.066,0.066,-6.338,6.274,-22.477
1747604316.09,0.015,-0.084,-0.034,0.799,0.021,0.145,-5.415,6.234,-22.464
1747604316.11,-0.067,0.006,-0.052,0.836,0.081,0.177,-4.478,6.309,-22.382
1747604316.13,-0.040,0.094,-0.035,0.842,0.117,0.124,-3.502,6.428,-22.312
1747604316.15,-0.026,0.066,0.002,0.834,0.145,0.045,-2.537,6.578,-22.323
1747604316.17,0.025,-0.036,0.033,0.882,0.075,0.002,-1.578,6.704,-22.409
1747604316.19,0.094,0.053,0.038,0.871,-0.009,0.018,-0.572,6.755,-22.510
1747604316.21,0.048,0.064,-0.065,0.915,-0.052,0.064,0.464,6.675,-22.582
1747604316.23,-0.008,0.005,-0.029,0.896,-0.021,0.067,1.494,6.636,-22.636
1747604316.25,-0.016,0.003,-0.006,0.859,0.067,0.092,2.492,6.665,-22.667
1747604316.27,-0.018,0.003,0.022,0.851,0.093,0.084,3.494,6.775,-22.671
1747604316.29,0.088,0.045,-0.025,0.842,-0.161,0.112,4.477,6.740,-22.658
1747604316.31,0.092,0.070,-0.073,0.847,-0.260,0.090,5.442,6.487,-22.645
1747604316.33,-0.034,0.081,-0.038,0.860,-0.142,0.029,6.421,6.242,-22.672
1747604316.35,-0.062,-0.011,-0.065,0.832,-0.044,-0.008,7.389,6.152,-22.763
1747604316.37,-0.024,-0.005,-0.041,0.788,0.028,-0.021,8.304,6.161,-22.876
1747604316.39,0.014,0.028,-0.024,0.755,-0.029,-0.041,9.173,6.202,-22.995
1747604316.41,0.066,0.058,-0.053,0.708,-0.179,-0.055,10.005,6.091,-23.134
1747604316.43,0.081,0.008,-0.111,0.672,-0.213,-0.046,10.788,5.878,-23.273
1747604316.45,0.021,-0.040,-0.119,0.607,-0.105,-0.063,11.510,5.720,-23.411
1747604316.47,0.005,-0.094,-0.040,0.529,0.036,-0.059,12.159,5.722,-23.545
1747604316.49,0.004,-0.061,-0.039,0.430,0.003,-0.047,12.698,5.765,-23.652
1747604316.51,0.060,-0.062,-0.093,0.313,-0.017,-0.054,13.114,5.784,-23.757
1747604316.53,0.039,-0.080,-0.127,0.225,-0.010,-0.046,13.409,5.767,-23.858
1747604316.55,0.008,-0.077,-0.115,0.070,0.092,-0.003,13.580,5.836,-23.912
1747604316.57,0.031,-0.144,-0.116,-0.106,0.073,0.036,13.556,5.939,-23.900
1747604316.59,0.074,-0.150,-0.161,-0.264,-0.025,0.081,13.344,5.943,-23.811
1747604316.61,0.024,-0.082,-0.137,-0.379,0.068,0.061,12.995,5.925,-23.684
1747604316.63,-0.045,-0.091,-0.130,-0.547,0.128,0.061,12.479,6.021,-23.545
1747604316.65,0.017,-0.093,-0.154,-0.702,0.072,0.042,11.770,6.123,-23.400
1747604316.67,0.035,-0.093,-0.185,-0.800,0.037,0.068,10.916,6.127,-23.235
1747604316.69,-0.033,-0.020,-0.139,-0.928,0.178,0.096,9.943,6.217,-23.026
1747604316.71,-0.035,-0.044,-0.116,-1.016,0.241,0.135,8.856,6.435,-22.743
1747604316.73,0.076,-0.024,-0.138,-1.106,0.153,0.091,7.670,6.615,-22.442
1747604316.75,0.026,-0.076,-0.069,-1.224,0.182,0.073,6.360,6.767,-22.177
1747604316.77,-0.066,-0.133,-0.109,-1.297,0.232,0.053,4.933,6.990,-21.895
1747604316.79,-0.070,-0.064,-0.124,-1.350,0.156,-0.003,3.428,7.205,-21.655
1747604316.81,-0.067,-0.025,-0.024,-1.436,0.205,-0.001,1.858,7.393,-21.411
1747604316.83,-0.013,-0.053,-0.035,-1.506,0.259,0.083,0.191,7.658,-21.104
1747604316.85,0.111,-0.133,-0.055,-1.512,0.171,0.056,-1.506,7.918,-20.726
1747604316.87,0.060,-0.094,-0.016,-1.503,0.167,-0.062,-3.211,8.116,-20.443
1747604316.89,-0.150,-0.058,-0.051,-1.563,0.315,-0.018,-4.945,8.376,-20.212
1747604316.91,-0.054,-0.079,-0.026,-1.643,0.394,0.001,-6.768,8.841,-19.914
1747604316.93,0.010,-0.070,-0.013,-1.577,0.438,-0.086,-8.587,9.333,-19.642
1747604316.95,-0.044,-0.028,0.024,-1.555,0.427,-0.169,-10.377,9.866,-19.476
1747604316.97,-0.106,0.005,-0.026,-1.572,0.435,-0.176,-12.167,10.373,-19.346
1747604316.99,0.044,0.003,-0.038,-1.594,0.305,-0.173,-13.979,10.842,-19.183
1747604317.01,0.084,0.000,0.043,-1.583,0.207,-0.239,-15.812,11.158,-19.045
1747604317.03,-0.064,-0.034,0.043,-1.559,0.278,-0.319,-17.628,11.423,-19.003
1747604317.05,-0.054,-0.091,0.003,-1.583,0.407,-0.322,-19.460,11.838,-18.999
1747604317.07,0.031,-0.093,-0.006,-1.602,0.361,-0.296,-21.317,12.288,-18.944
1747604317.09,0.093,-0.026,0.070,-1.621,0.271,-0.280,-23.187,12.698,-18.844
1747604317.11,0.069,0.028,0.031,-1.559,0.221,-0.281,-25.037,12.990,-18.746
1747604317.13,0.132,0.019,0.004,-1.588,0.236,-0.257,-26.857,13.328,-18.616
1747604317.14,0.078,-0.031,-0.022,-1.623,0.187,-0.201,-28.703,13.647,-18.415
1747604317.16,0.042,-0.062,0.020,-1.661,0.253,-0.172,-30.576,14.031,-18.121
1747604317.18,0.031,-0.047,0.030,-1.705,0.201,-0.159,-32.478,14.474,-17.773
1747604317.20,0.101,-0.011,0.030,-1.677,0.192,-0.173,-34.406,14.902,-17.384
1747604317.22,0.064,0.032,0.079,-1.576,0.203,-0.270,-36.252,15.331,-17.069
1747604317.24,-0.020,0.048,-0.000,-1.564,0.134,-0.278,-38.053,15.634,-16.849
1747604317.26,0.009,-0.005,-0.028,-1.613,0.122,-0.253,-39.889,15.957,-16.556
1747604317.28,0.001,-0.058,-0.003,-1.615,0.045,-0.253,-41.743,16.251,-16.222
1747604317.30,0.096,-0.083,0.032,-1.600,-0.020,-0.221,-43.577,16.508,-15.842
1747604317.32,0.164,-0.068,0.040,-1.653,-0.176,-0.228,-45.435,16.681,-15.417
1747604317.34,0.134,-0.065,0.011,-1.606,-0.400,-0.165,-47.274,16.670,-14.955
1747604317.36,0.121,-0.028,0.005,-1.557,-0.410,-0.135,-49.069,16.601,-14.408
1747604317.38,0.029,-0.026,0.054,-1.520,-0.258,-0.152,-50.799,16.628,-13.855
1747604317.40,-0.029,-0.066,-0.020,-1.514,-0.376,-0.140,-52.495,16.703,-13.326
1747604317.42,0.011,-0.090,0.070,-1.576,-0.411,-0.104,-54.220,16.769,-12.689
