Time,AccX,AccY,AccZ,GyroX,GyroY,GyroZ,Pitch,Roll,Yaw
1746585236.10,0.041,0.038,-0.010,0.338,-0.194,-0.623,17.022,3.793,32.193
1746585236.11,-0.013,0.023,0.075,0.402,-0.229,-0.633,17.380,3.695,31.321
1746585236.13,0.064,0.012,0.225,0.484,0.040,-0.041,17.885,3.801,30.904
1746585236.15,0.000,-0.092,0.029,0.584,-0.266,0.169,18.465,3.636,30.965
1746585236.17,0.032,0.012,0.071,0.807,0.888,0.187,19.254,3.588,31.177
1746585236.19,0.043,0.248,0.422,0.337,2.089,-0.219,20.068,5.581,31.096
1746585236.21,-0.058,-0.008,0.105,-0.371,0.706,-0.031,19.959,7.518,30.869
1746585236.23,0.007,-0.085,-0.288,-0.069,-0.591,0.415,19.684,7.132,31.192
1746585236.25,-0.055,0.048,0.127,0.214,-0.158,0.310,19.861,6.671,31.592
1746585236.27,-0.024,0.063,-0.063,-0.068,-0.517,0.262,19.999,6.149,31.944
1746585236.29,-0.036,0.112,-0.076,-0.186,0.106,0.170,19.851,5.765,32.197
1746585236.31,-0.057,0.046,0.066,-0.048,1.035,0.477,19.757,6.302,32.586
1746585236.33,-0.073,0.070,0.148,-0.211,2.154,0.660,19.697,7.965,33.259
1746585236.35,-0.180,0.069,0.135,-0.425,2.587,0.561,19.455,10.356,34.095
1746585236.37,0.013,0.090,0.113,-0.653,3.099,0.241,18.927,13.425,34.703
1746585236.39,-0.034,0.108,0.132,-0.763,3.629,-0.015,18.229,17.069,35.065
1746585236.41,-0.218,0.258,0.299,-0.906,4.932,0.106,17.292,21.970,35.400
1746585236.43,-0.298,0.173,-0.211,1.359,-2.387,1.452,18.220,22.091,36.025
1746585236.45,-0.118,0.415,0.707,-1.444,-0.708,1.475,18.902,19.640,37.665
1746585236.47,-0.274,0.372,0.555,-3.444,-0.821,1.537,16.850,17.941,40.279
1746585236.49,-0.097,0.360,0.817,-5.309,0.017,2.179,12.533,16.596,44.028
1746585236.51,-0.287,0.631,0.285,-4.209,0.271,1.001,7.669,16.243,47.499
1746585236.53,-0.427,0.557,-0.081,-2.854,0.726,0.732,4.112,16.484,49.457
1746585236.55,-0.202,0.554,0.111,-2.901,1.374,0.888,1.412,17.597,51.232
1746585236.57,-0.010,0.589,0.570,-4.309,2.031,0.803,-2.158,19.533,53.494
1746585236.59,-0.117,0.638,0.546,-5.279,2.875,0.279,-7.125,22.595,56.091
1746585236.61,-0.363,0.504,0.071,-5.167,2.396,-0.340,-12.662,26.121,58.582
1746585236.63,-0.356,0.444,-0.306,-4.277,1.766,-0.719,-17.779,29.027,60.620
1746585236.65,0.030,0.523,-0.414,-3.785,1.897,-0.561,-22.024,31.635,62.309
1746585236.67,0.465,0.539,-0.188,-4.422,2.611,-0.379,-26.215,35.117,64.645
1746585236.69,0.628,0.470,-0.366,-4.232,3.674,-0.312,-30.443,40.249,67.807
1746585236.71,0.496,0.251,-0.675,-3.521,3.780,-0.382,-33.931,46.381,71.047
1746585236.73,0.471,0.137,-0.729,-2.840,3.583,-0.305,-36.613,52.286,74.076
1746585236.75,0.656,0.143,-0.628,-2.467,4.073,-0.016,-38.464,58.434,77.034
1746585236.77,0.829,0.200,-0.443,-2.620,4.732,0.327,-39.662,65.605,80.385
1746585236.79,0.770,0.056,-0.467,-2.434,4.684,0.571,-40.190,73.541,84.248
1746585236.81,0.355,-0.189,-0.696,-1.544,4.097,0.474,-40.084,80.567,87.365
1746585236.83,0.008,-0.319,-0.706,-0.901,3.560,-0.158,-40.048,86.123,89.275
1746585236.85,0.150,-0.370,-0.507,-0.922,2.857,-0.475,-40.504,90.623,90.725
1746585236.87,0.544,-0.301,-0.356,-0.742,1.998,-0.057,-40.806,94.249,91.983
1746585236.89,0.756,-0.341,-0.263,-1.020,1.059,0.565,-40.415,96.787,93.317
1746585236.91,0.597,-0.463,-0.309,-0.920,0.528,0.751,-39.468,98.540,94.818
1746585236.93,0.264,-0.566,-0.498,-0.579,0.096,0.513,-38.596,99.475,95.877
1746585236.95,0.036,-0.508,-0.540,0.338,-0.023,0.242,-38.149,99.646,96.221
1746585236.97,-0.059,-0.363,-0.659,1.065,-0.121,0.038,-38.128,98.850,95.216
1746585236.99,-0.089,-0.060,-0.586,1.622,-0.136,-0.059,-38.475,97.319,93.371
1746585237.01,0.144,-0.278,-0.340,1.253,-0.499,0.091,-38.621,95.655,91.288
1746585237.03,0.043,-0.260,-0.254,0.724,-1.066,0.149,-38.559,93.919,89.832
1746585237.05,-0.048,-0.112,-0.132,0.455,-1.429,0.104,-38.424,91.905,88.997
1746585237.07,0.024,0.053,0.192,0.231,-1.034,-0.244,-38.498,90.153,88.487
1746585237.09,0.079,0.102,0.363,0.033,-1.135,-0.371,-38.862,88.904,88.245
1746585237.11,-0.098,-0.045,0.362,-0.540,-2.347,-0.497,-39.356,87.156,88.644
1746585237.13,-0.392,-0.040,0.199,-0.030,-2.785,-0.613,-40.032,84.487,89.071
1746585237.15,-0.359,0.186,0.113,-0.039,-3.731,-0.432,-40.624,80.702,88.950
1746585237.17,-0.151,0.331,0.288,-0.213,-3.857,-0.617,-41.217,76.245,89.025
1746585237.19,-0.100,0.310,0.092,0.032,-1.544,-0.967,-42.096,72.921,88.854
1746585237.21,-0.237,0.230,-0.200,-0.103,-0.744,-1.223,-43.317,71.312,88.297
1746585237.23,-0.354,0.049,0.188,-0.597,-0.917,-1.148,-44.655,70.596,88.253
1746585237.25,-0.279,0.177,0.192,-1.058,-0.464,-1.309,-46.288,70.148,88.882
1746585237.27,0.035,0.360,0.182,-0.868,0.218,-1.413,-48.152,70.646,89.670
1746585237.29,0.245,0.277,0.044,-0.554,0.257,-1.374,-49.898,71.189,90.045
1746585237.31,0.234,-0.092,-0.015,-0.404,1.566,-1.189,-51.488,72.310,90.140
1746585237.33,0.159,-0.187,-0.014,-0.235,1.961,-0.920,-52.719,74.421,90.106
1746585237.35,0.065,-0.123,0.017,-0.483,1.756,-0.886,-53.793,76.689,90.289
1746585237.37,-0.022,-0.159,0.075,-1.007,1.388,-1.252,-55.103,79.335,91.260
1746585237.39,0.026,-0.156,-0.034,-1.737,0.766,-1.713,-57.040,82.433,93.514
1746585237.41,0.112,-0.123,-0.182,-2.658,0.513,-1.808,-59.297,86.797,97.867
1746585237.43,0.135,-0.194,-0.063,-3.226,1.018,-1.823,-61.362,93.734,104.914
1746585237.45,0.089,-0.280,0.023,-1.498,-0.351,-1.807,-63.099,100.061,111.314
1746585237.47,0.041,-0.317,-0.044,-0.932,-1.518,-1.808,-64.853,101.990,114.937
1746585237.49,-0.033,-0.273,0.140,-1.428,-1.309,-2.083,-66.707,104.317,119.272
1746585237.51,-0.063,-0.207,0.098,-1.943,-1.446,-2.510,-68.644,109.161,126.146
1746585237.53,-0.077,-0.172,0.050,-2.341,-2.093,-2.673,-70.505,116.418,136.062
1746585237.55,-0.118,-0.331,0.110,-2.134,-2.424,-1.512,-71.384,124.260,147.075
1746585237.57,0.057,0.345,0.146,-1.715,-2.536,0.772,-70.508,127.330,153.341
1746585237.59,0.219,1.219,0.239,-1.668,-1.437,2.070,-67.736,125.874,154.412
1746585237.61,-0.165,1.679,-0.077,-0.517,-0.152,-0.059,-66.000,126.006,155.291
1746585237.63,-0.300,0.249,-0.388,0.050,-0.623,-0.994,-66.510,127.005,156.769
1746585237.65,-0.043,-0.197,-0.130,0.143,-1.059,-0.554,-67.328,127.072,157.994
1746585237.67,0.008,-0.223,0.079,0.033,-0.574,-0.140,-67.701,126.331,158.232
1746585237.69,0.086,-0.105,0.092,-0.374,-0.367,-0.107,-67.667,126.448,158.888
1746585237.71,0.102,0.033,-0.037,-0.255,-0.391,-0.205,-67.568,127.023,159.976
1746585237.73,0.035,0.048,-0.055,-0.024,-0.152,-0.302,-67.711,127.419,160.772
1746585237.75,-0.038,0.003,-0.008,0.055,0.066,-0.326,-68.021,127.879,161.303
1746585237.77,-0.018,-0.078,-0.014,0.039,0.219,-0.319,-68.336,128.459,161.742
1746585237.79,0.012,0.047,-0.026,0.153,0.467,-0.532,-68.765,129.442,162.406
1746585237.81,0.069,0.018,-0.019,0.461,0.845,-0.507,-69.468,130.544,162.792
1746585237.83,0.007,-0.009,-0.015,0.626,1.236,-0.214,-70.220,131.153,162.152
1746585237.85,-0.041,0.014,-0.061,0.270,1.252,0.022,-70.669,131.635,161.131
1746585237.87,0.063,0.049,-0.042,0.484,1.201,-0.203,-70.951,132.367,160.396
1746585237.89,0.185,0.164,-0.040,0.753,0.908,-1.265,-72.006,133.535,160.326
1746585237.91,0.282,0.215,-0.092,0.867,0.448,-2.319,-74.184,137.172,163.306
1746585237.93,0.157,0.169,-0.167,0.702,0.075,-2.380,-76.613,143.208,169.294
1746585237.95,0.054,-0.049,-0.111,0.616,0.370,-2.258,-78.688,151.911,177.958
1746585237.97,0.015,-0.137,-0.045,0.696,1.094,-1.597,-80.237,162.254,-172.346
1746585237.99,0.077,-0.198,-0.014,0.719,1.282,-0.913,-81.376,171.060,-164.888
1746585238.01,0.094,-0.083,-0.061,0.651,0.884,-0.468,-82.229,177.044,-160.103
1746585238.03,0.061,0.020,-0.062,0.574,0.372,-0.134,-82.941,-179.766,-157.613
1746585238.05,-0.011,0.047,-0.077,0.531,-0.052,0.069,-83.564,-179.267,-157.281
1746585238.07,-0.148,0.037,-0.106,0.681,-0.176,0.224,-84.233,178.717,-159.132
1746585238.09,-0.238,0.018,-0.132,1.047,0.057,0.120,-85.200,175.886,-161.893
1746585238.11,-0.269,0.071,-0.136,1.334,0.245,-0.059,-86.595,173.835,-164.196
1746585238.13,-0.269,0.102,-0.199,1.157,-0.686,-0.262,-88.000,174.766,-162.954
1746585238.15,-0.234,0.121,-0.042,1.516,-0.320,-0.418,-89.454,-161.028,-138.020
1746585238.17,-0.161,0.157,0.145,1.890,0.844,-0.447,-88.351,-25.404,-2.714
1746585238.19,-0.126,0.117,0.198,1.692,1.350,-0.208,-86.273,-15.925,5.449
1746585238.21,-0.134,0.079,0.096,1.562,1.238,-0.069,-84.452,-10.860,9.014
1746585238.23,-0.145,0.052,0.012,1.363,0.955,-0.135,-82.763,-8.020,10.615
1746585238.25,-0.133,-0.016,0.112,0.917,0.602,-0.254,-81.423,-7.462,10.257
1746585238.27,-0.058,-0.063,0.192,0.533,0.096,-0.253,-80.596,-8.235,9.082
1746585238.29,0.023,-0.061,0.211,0.480,0.432,-0.238,-80.004,-9.119,8.006
1746585238.31,0.013,-0.063,0.302,0.470,1.139,-0.253,-79.422,-9.266,6.890
1746585238.33,-0.028,-0.122,0.259,0.389,1.060,-0.162,-78.883,-8.759,6.055
1746585238.35,-0.032,-0.177,0.204,0.120,0.624,-0.098,-78.563,-8.271,5.577
1746585238.37,-0.031,-0.190,0.153,-0.166,0.325,-0.090,-78.575,-8.250,5.051
1746585238.39,-0.029,-0.174,0.117,-0.423,-0.089,-0.182,-78.892,-9.042,4.094
1746585238.41,-0.022,-0.128,0.095,-0.548,-0.416,-0.239,-79.403,-11.221,2.181
1746585238.43,-0.009,-0.136,0.065,-0.644,-0.648,-0.158,-80.024,-13.860,0.116
1746585238.45,-0.017,-0.100,0.038,-0.684,-0.726,-0.100,-80.726,-16.682,-1.935
1746585238.47,-0.054,-0.065,-0.008,-0.603,-0.645,-0.087,-81.404,-19.574,-4.066
1746585238.49,-0.132,-0.032,-0.086,-0.441,-0.564,-0.047,-81.934,-22.232,-6.049
1746585238.51,-0.198,-0.013,-0.123,-0.365,-0.315,-0.008,-82.330,-24.217,-7.525
1746585238.53,-0.228,-0.001,-0.099,-0.403,0.177,0.042,-82.731,-25.620,-8.840
1746585238.55,-0.207,-0.005,-0.108,-0.392,0.551,0.127,-83.188,-26.106,-9.783
1746585238.57,-0.170,0.050,-0.117,-0.270,0.612,0.171,-83.610,-25.496,-9.859
1746585238.58,-0.131,0.151,-0.096,-0.215,0.494,0.173,-83.935,-24.195,-9.194
1746585238.60,-0.133,0.210,-0.110,-0.137,0.234,0.086,-84.191,-23.248,-8.685
1746585238.62,-0.133,0.150,-0.176,-0.014,-0.077,0.027,-84.279,-22.974,-8.465
1746585238.65,-0.067,0.030,-0.124,0.110,0.212,0.058,-84.277,-22.461,-7.987
1746585238.67,-0.014,-0.055,-0.160,0.400,0.650,0.195,-84.017,-19.544,-5.557
1746585238.68,-0.044,-0.143,0.040,-0.111,0.777,0.285,-83.891,-15.511,-2.351
1746585238.70,-0.019,-0.211,0.255,-0.381,1.058,0.266,-84.310,-12.229,-0.084
1746585238.72,0.067,-0.159,0.340,-0.221,0.804,0.152,-84.690,-9.242,1.743
1746585238.74,0.182,0.071,0.116,-0.218,-0.098,-0.003,-84.947,-8.354,2.250
1746585238.76,0.340,0.213,-0.116,0.148,-0.101,0.068,-85.030,-8.607,2.203
1746585238.78,0.333,0.139,-0.112,0.348,0.025,0.200,-84.715,-6.306,4.485
1746585238.80,0.117,0.069,-0.125,0.157,-0.618,0.228,-84.444,-3.677,7.449
1746585238.82,-0.090,-0.017,-0.121,0.077,-0.530,0.177,-84.339,-2.044,9.855
1746585238.84,-0.106,-0.052,0.059,0.111,0.122,0.222,-84.237,0.004,12.136
1746585238.86,-0.040,-0.001,0.111,0.111,0.409,0.184,-84.103,2.671,14.484
1746585238.88,0.041,0.032,0.074,0.123,0.415,0.110,-83.960,4.633,15.955
1746585238.90,0.122,0.012,0.005,0.102,0.262,0.069,-83.812,5.904,16.844
1746585238.92,0.163,-0.022,0.039,0.025,0.137,0.063,-83.734,6.682,17.402
1746585238.94,0.125,-0.015,0.024,-0.020,0.022,0.084,-83.727,7.578,18.211
1746585238.96,0.039,0.030,-0.058,0.014,0.001,0.030,-83.722,8.201,18.843
1746585238.98,0.034,0.022,-0.034,0.029,0.057,-0.010,-83.696,8.297,18.902
1746585239.00,0.071,-0.007,0.032,0.036,0.016,-0.031,-83.663,8.104,18.652
1746585239.02,0.065,-0.009,0.030,0.112,-0.098,-0.051,-83.596,7.662,18.262
1746585239.04,0.045,-0.003,0.028,0.285,0.001,-0.050,-83.379,6.842,17.504
1746585239.06,0.027,0.026,0.053,0.363,-0.024,0.027,-82.992,6.375,17.016
1746585239.08,-0.012,0.065,0.035,0.306,-0.096,0.042,-82.601,6.390,17.121
1746585239.10,-0.065,0.028,0.059,0.307,-0.017,-0.023,-82.277,6.226,17.017
1746585239.12,-0.099,-0.032,0.043,0.474,-0.077,-0.157,-81.858,5.234,16.057
1746585239.14,-0.156,-0.019,-0.040,0.608,-0.191,-0.310,-81.251,2.908,13.895
1746585239.16,-0.151,0.006,0.084,0.644,0.332,-0.249,-80.528,0.731,11.617
1746585239.18,-0.074,0.009,0.189,0.525,0.551,-0.077,-79.860,0.174,10.511
1746585239.20,0.010,0.019,0.133,0.524,0.803,0.049,-79.274,0.822,10.402
1746585239.22,0.028,0.018,0.005,0.478,0.930,0.128,-78.694,2.332,10.903
1746585239.24,-0.073,0.002,-0.085,0.546,1.039,0.061,-78.120,3.856,11.331
1746585239.26,-0.164,-0.036,-0.047,0.718,1.009,-0.012,-77.396,4.911,11.168
1746585239.28,-0.175,-0.044,-0.068,0.873,0.823,-0.025,-76.480,5.474,10.683
1746585239.30,-0.122,-0.006,-0.037,0.866,0.975,-0.038,-75.484,5.923,10.108
1746585239.32,-0.038,0.002,-0.015,0.704,0.803,0.051,-74.581,6.599,9.731
1746585239.34,0.028,-0.027,0.008,0.538,0.782,0.177,-73.869,7.636,9.873
1746585239.36,0.022,-0.061,0.025,0.596,0.507,0.217,-73.234,8.900,10.390
1746585239.38,-0.024,-0.033,-0.088,0.833,0.288,0.090,-72.375,9.459,10.541
1746585239.40,-0.028,0.022,-0.057,0.722,0.398,0.073,-71.477,9.606,10.299
1746585239.42,-0.040,0.038,0.004,0.684,0.252,0.136,-70.679,9.950,10.251
1746585239.44,-0.018,-0.008,-0.034,0.696,0.346,0.209,-69.868,10.389,10.394
1746585239.46,0.009,-0.077,-0.014,0.674,0.225,0.319,-69.050,11.156,10.777
1746585239.48,-0.028,-0.054,-0.084,0.734,0.405,0.272,-68.191,11.941,11.285
1746585239.50,-0.064,0.011,0.002,0.801,0.557,0.182,-67.281,12.669,11.395
1746585239.52,-0.028,-0.005,0.017,0.781,0.350,0.232,-66.339,13.267,11.433
1746585239.54,-0.013,-0.053,-0.051,0.753,0.030,0.365,-65.411,13.719,11.741
1746585239.56,0.018,-0.063,-0.025,0.904,0.118,0.411,-64.404,14.224,12.253
1746585239.58,-0.016,-0.041,-0.060,1.063,0.209,0.354,-63.190,14.720,12.562
1746585239.60,0.001,-0.020,0.030,0.994,0.631,0.283,-61.953,15.274,12.671
1746585239.62,-0.038,-0.007,0.044,0.994,0.113,0.251,-60.810,15.738,12.636
1746585239.64,-0.059,-0.051,-0.098,1.037,0.031,0.393,-59.572,15.776,12.704
1746585239.66,-0.007,-0.061,0.004,0.914,0.419,0.481,-58.357,16.337,13.045
1746585239.68,-0.037,-0.045,0.006,0.937,0.418,0.424,-57.213,17.185,13.322
1746585239.70,-0.038,0.008,0.076,0.998,0.120,0.345,-56.027,17.672,13.406
1746585239.72,-0.014,-0.003,-0.092,0.978,-0.165,0.394,-54.801,17.616,13.484
1746585239.74,0.085,-0.009,0.013,0.726,-0.050,0.467,-53.729,17.769,13.724
1746585239.76,0.033,-0.039,0.028,0.813,-0.167,0.445,-52.762,18.004,14.035
1746585239.78,-0.056,-0.017,0.015,1.088,-0.085,0.322,-51.581,17.902,14.026
1746585239.80,-0.075,-0.021,0.049,1.145,-0.159,0.383,-50.231,17.814,13.848
1746585239.82,-0.051,-0.006,-0.120,0.839,-0.009,0.464,-48.976,17.793,13.897
1746585239.84,-0.009,0.011,0.041,0.622,-0.047,0.529,-48.042,18.130,14.219
1746585239.86,-0.049,0.017,0.020,0.780,-0.122,0.497,-47.116,18.355,14.551
1746585239.88,0.002,-0.006,0.012,0.884,-0.047,0.451,-46.030,18.496,14.741
1746585239.90,-0.011,-0.033,-0.122,0.837,0.106,0.405,-44.930,18.632,14.835
1746585239.92,-0.048,0.008,-0.047,0.572,0.251,0.350,-44.017,19.018,14.908
1746585239.94,-0.057,0.065,0.029,0.516,0.061,0.440,-43.319,19.423,15.097
1746585239.96,-0.006,0.051,0.015,0.719,-0.095,0.432,-42.485,19.644,15.331
1746585239.98,0.019,-0.008,0.010,0.914,-0.166,0.308,-41.468,19.538,15.296
1746585240.00,-0.011,-0.062,-0.044,0.905,-0.104,0.264,-40.344,19.336,15.092
1746585240.02,-0.013,-0.039,-0.062,0.590,0.061,0.321,-39.419,19.333,14.966
1746585240.04,0.053,-0.012,0.035,0.427,0.125,0.489,-38.744,19.659,15.168
1746585240.06,0.051,-0.015,0.031,0.629,0.016,0.410,-38.018,20.006,15.413
1746585240.08,-0.000,-0.080,-0.027,0.792,-0.012,0.381,-37.081,20.072,15.447
1746585240.10,-0.014,-0.087,-0.022,0.735,-0.002,0.294,-36.124,20.132,15.399
1746585240.12,-0.044,0.009,-0.030,0.600,0.108,0.358,-35.281,20.222,15.365
1746585240.14,-0.013,0.025,0.033,0.693,0.028,0.373,-34.462,20.426,15.430
1746585240.16,-0.031,-0.002,0.042,0.831,-0.044,0.213,-33.530,20.436,15.295
1746585240.18,-0.004,-0.063,0.058,0.903,-0.098,0.202,-32.505,20.229,15.007
1746585240.20,0.011,-0.056,-0.051,0.743,0.189,0.210,-31.530,20.195,14.717
1746585240.22,0.048,0.054,0.047,0.587,0.258,0.410,-30.708,20.525,14.691
1746585240.24,0.029,0.057,0.029,0.580,0.224,0.445,-29.896,20.937,14.856
1746585240.26,0.030,-0.015,0.054,0.655,0.146,0.359,-29.081,21.278,14.920
1746585240.28,0.065,-0.070,-0.018,0.697,0.169,0.343,-28.195,21.477,14.874
1746585240.30,0.030,-0.034,0.016,0.688,0.104,0.376,-27.304,21.654,14.826
1746585240.32,-0.025,0.067,0.022,0.588,0.144,0.488,-26.460,21.865,14.876
1746585240.34,-0.022,-0.006,0.020,0.552,0.252,0.542,-25.630,22.227,15.122
1746585240.36,0.022,-0.089,-0.065,0.650,0.140,0.371,-24.792,22.589,15.207
1746585240.38,0.044,-0.029,0.056,0.780,-0.138,0.274,-23.905,22.611,15.126
1746585240.40,0.005,0.012,0.009,0.833,-0.158,0.278,-22.916,22.315,14.879
1746585240.42,-0.103,0.015,0.113,0.644,0.167,0.397,-22.005,22.355,14.784
1746585240.44,-0.263,0.127,0.029,0.670,0.427,0.490,-21.113,22.748,14.850
1746585240.46,-0.012,-0.081,-0.095,0.729,0.238,0.369,-20.172,23.225,14.843
1746585240.48,0.216,-0.024,-0.064,0.847,-0.172,0.347,-19.201,23.248,14.720
1746585240.50,-0.046,-0.052,-0.047,0.911,-0.076,0.263,-18.125,23.013,14.485
1746585240.52,-0.126,0.012,0.003,0.789,0.246,0.408,-17.090,23.130,14.302
1746585240.54,-0.138,0.128,0.102,0.762,0.310,0.485,-16.069,23.470,14.300
1746585240.56,0.026,-0.054,-0.021,0.739,0.453,0.486,-15.067,24.013,14.311
1746585240.58,0.118,0.006,-0.064,0.705,0.163,0.499,-14.069,24.349,14.312
1746585240.60,-0.010,-0.020,0.004,0.596,0.263,0.518,-13.154,24.632,14.410
1746585240.62,-0.249,0.061,-0.059,0.729,0.277,0.383,-12.264,24.958,14.441
1746585240.64,-0.204,0.105,-0.119,0.943,0.087,0.108,-11.286,25.190,14.115
1746585240.66,0.086,0.027,-0.123,1.026,-0.127,0.066,-10.216,25.088,13.535
1746585240.68,0.082,0.013,-0.040,1.003,-0.095,0.121,-9.124,24.863,12.973
1746585240.70,-0.155,0.008,0.002,1.028,0.051,0.077,-8.025,24.784,12.442
1746585240.72,-0.194,0.001,-0.003,1.022,0.190,-0.012,-6.935,24.874,11.815
1746585240.74,0.052,-0.032,-0.066,1.009,-0.077,-0.100,-5.908,24.840,11.072
1746585240.76,0.164,-0.081,-0.114,0.999,-0.117,-0.023,-4.895,24.665,10.374
1746585240.78,0.014,-0.064,-0.126,0.984,-0.119,-0.018,-3.873,24.458,9.723
1746585240.80,-0.082,-0.035,-0.029,0.950,-0.046,-0.070,-2.899,24.344,9.056
1746585240.82,-0.147,-0.028,0.026,0.939,-0.031,-0.087,-1.952,24.310,8.374
1746585240.84,-0.015,0.045,-0.072,0.934,-0.109,-0.059,-1.008,24.211,7.701
1746585240.86,0.034,-0.020,-0.081,0.839,-0.155,-0.048,-0.087,24.040,7.087
1746585240.88,-0.070,-0.065,-0.027,0.748,-0.048,-0.066,0.694,23.917,6.506
1746585240.90,-0.005,-0.060,-0.086,0.755,0.109,-0.019,1.461,23.972,5.970
1746585240.92,-0.029,-0.016,-0.057,0.710,0.022,-0.063,2.195,24.019,5.425
1746585240.94,0.018,-0.006,-0.097,0.703,-0.073,-0.043,2.908,24.010,4.882
1746585240.96,0.085,-0.045,-0.065,0.625,-0.010,0.025,3.600,23.979,4.415
1746585240.98,0.014,-0.083,-0.035,0.544,0.114,0.077,4.228,24.062,4.047
1746585241.00,-0.002,-0.041,-0.061,0.465,0.181,0.125,4.801,24.240,3.783
1746585241.02,0.021,-0.010,-0.054,0.417,0.168,0.134,5.321,24.449,3.570
1746585241.04,0.053,-0.026,-0.067,0.384,0.067,0.109,5.795,24.582,3.362
1746585241.06,0.085,-0.070,-0.072,0.319,0.039,0.129,6.223,24.646,3.177
1746585241.08,0.042,-0.057,-0.053,0.191,0.104,0.161,6.552,24.721,3.065
1746585241.10,-0.025,0.017,-0.127,0.176,0.180,0.139,6.816,24.868,3.009
1746585241.12,-0.026,0.014,-0.141,0.149,0.115,0.137,7.050,25.039,2.941
1746585241.14,0.049,-0.009,-0.100,0.128,0.054,0.101,7.248,25.108,2.864
1746585241.16,-0.009,0.006,-0.062,0.113,0.078,0.069,7.418,25.174,2.760
1746585241.18,-0.021,0.019,-0.055,0.133,0.102,0.058,7.576,25.283,2.638
1746585241.20,-0.038,0.031,-0.062,0.138,0.139,0.054,7.745,25.415,2.502
1746585241.22,-0.034,0.055,-0.036,0.157,0.087,-0.004,7.906,25.551,2.328
1746585241.24,-0.022,0.039,-0.007,0.202,0.008,-0.036,8.078,25.620,2.084
1746585241.26,0.021,0.008,0.016,0.196,-0.018,-0.020,8.270,25.628,1.689
1746585241.28,-0.016,-0.003,0.020,0.205,0.034,-0.002,8.469,25.647,1.464
1746585241.30,-0.067,-0.013,0.044,0.178,0.068,0.000,8.652,25.719,1.246
1746585241.32,0.023,-0.002,-0.027,0.198,0.005,0.024,8.848,25.779,1.053
1746585241.34,0.036,-0.003,-0.042,0.152,0.015,0.048,9.057,25.796,0.878
1746585241.36,0.020,-0.033,-0.019,0.062,0.029,0.075,9.189,25.806,0.775
1746585241.38,0.034,-0.016,-0.129,0.009,-0.018,0.055,9.260,25.797,0.709
1746585241.40,0.051,-0.055,-0.171,-0.062,-0.124,-0.032,9.243,25.725,0.624
1746585241.42,0.061,-0.095,-0.181,-0.181,-0.180,-0.103,9.087,25.556,0.490
1746585241.44,0.104,-0.047,-0.233,-0.314,-0.223,-0.102,8.783,25.323,0.403
1746585241.46,0.079,-0.035,-0.248,-0.486,-0.210,-0.147,8.317,25.073,0.386
1746585241.48,0.045,-0.050,-0.243,-0.678,-0.222,-0.196,7.621,24.805,0.392
1746585241.50,0.116,-0.052,-0.268,-0.826,-0.287,-0.214,6.748,24.491,0.456
1746585241.51,0.120,-0.081,-0.218,-1.008,-0.239,-0.206,5.691,24.162,0.582
1746585241.53,0.089,-0.052,-0.151,-1.252,-0.110,-0.144,4.435,23.929,0.849
1746585241.55,0.029,-0.017,-0.214,-1.430,0.025,-0.108,2.970,23.846,1.303
1746585241.57,0.013,-0.024,-0.184,-1.635,0.101,-0.177,1.298,23.893,1.804
1746585241.59,0.112,-0.091,-0.192,-1.739,0.100,-0.191,-0.557,24.017,2.362
1746585241.61,0.091,-0.070,-0.163,-1.793,0.113,-0.226,-2.495,24.135,2.942
1746585241.63,-0.047,-0.059,-0.114,-1.831,0.145,-0.376,-4.515,24.334,3.469
1746585241.65,-0.058,-0.059,-0.127,-1.857,0.132,-0.510,-6.654,24.524,3.852
1746585241.67,0.078,-0.098,-0.096,-1.854,0.021,-0.523,-8.817,24.656,4.207
1746585241.69,0.102,-0.132,0.002,-1.894,-0.032,-0.507,-11.022,24.712,4.573
1746585241.71,0.082,-0.137,-0.014,-1.867,-0.068,-0.466,-13.204,24.737,4.991
1746585241.73,-0.003,-0.084,-0.026,-1.844,-0.094,-0.498,-15.356,24.758,5.412
1746585241.75,-0.060,-0.024,-0.000,-1.815,-0.099,-0.478,-17.489,24.747,5.831
1746585241.77,0.003,-0.041,0.011,-1.765,-0.146,-0.525,-19.578,24.739,6.233
1746585241.79,0.052,-0.106,-0.041,-1.645,-0.227,-0.604,-21.621,24.606,6.507
1746585241.81,-0.000,-0.122,-0.056,-1.661,-0.225,-0.679,-23.629,24.371,6.683
1746585241.83,-0.146,-0.067,0.063,-1.626,-0.106,-0.758,-25.709,24.206,6.774
1746585241.85,-0.111,-0.083,-0.010,-1.493,-0.121,-0.754,-27.668,24.048,6.759
1746585241.87,-0.004,-0.045,-0.015,-1.554,-0.034,-0.747,-29.596,23.921,6.739
1746585241.89,-0.021,0.003,0.000,-1.586,-0.198,-0.862,-31.599,23.730,6.683
1746585241.91,-0.083,-0.007,0.038,-1.543,-0.186,-0.854,-33.656,23.361,6.534
1746585241.93,-0.016,-0.027,-0.039,-1.516,-0.081,-0.811,-35.631,23.092,6.400
1746585241.95,-0.000,-0.040,0.029,-1.480,-0.245,-0.893,-37.585,22.759,6.221
1746585241.97,-0.049,-0.094,0.091,-1.400,-0.271,-0.931,-39.502,22.148,5.869
1746585241.99,-0.001,-0.128,0.075,-1.528,0.048,-0.829,-41.428,21.741,5.550
1746585242.01,0.015,-0.118,0.027,-1.500,0.102,-0.752,-43.375,21.697,5.412
1746585242.03,-0.054,-0.111,-0.009,-1.304,0.099,-0.841,-45.206,21.562,5.187
1746585242.05,-0.063,-0.165,0.043,-1.065,0.101,-0.898,-46.835,21.234,4.681
1746585242.07,0.005,-0.196,0.055,-0.830,0.038,-0.830,-48.196,20.703,3.996
1746585242.09,0.105,-0.193,0.042,-0.735,0.031,-0.713,-49.332,20.164,3.322
1746585242.11,0.161,-0.168,-0.056,-0.861,-0.114,-0.596,-50.421,19.620,2.825
1746585242.13,0.183,-0.137,0.059,-1.053,0.112,-0.473,-51.656,19.356,2.604
1746585242.15,0.188,-0.114,0.070,-1.207,0.020,-0.375,-53.043,19.443,2.695
1746585242.17,0.186,-0.075,0.012,-1.290,-0.248,-0.388,-54.521,19.427,2.949
1746585242.19,0.108,-0.035,0.035,-1.319,-0.519,-0.565,-56.123,18.975,3.065
1746585242.21,-0.008,0.017,-0.100,-1.304,-0.686,-0.743,-57.773,17.883,2.741
1746585242.23,-0.054,0.070,-0.064,-1.318,-0.727,-0.779,-59.466,16.419,2.086
1746585242.25,-0.067,0.090,0.015,-1.187,-0.827,-0.691,-61.092,14.803,1.334
1746585242.27,-0.106,0.082,-0.052,-0.858,-1.031,-0.551,-62.399,12.971,0.556
1746585242.29,-0.102,-0.017,-0.044,-0.876,-1.039,-0.360,-63.419,11.154,-0.036
1746585242.31,-0.027,-0.151,0.038,-1.140,-0.780,-0.156,-64.622,9.940,-0.137
1746585242.33,0.051,-0.264,-0.108,-1.297,-0.680,0.055,-66.000,9.531,0.401
1746585242.35,0.031,-0.287,-0.124,-1.436,-0.669,0.164,-67.530,9.666,1.494
1746585242.37,-0.012,-0.254,-0.076,-1.308,-0.568,0.234,-69.059,10.225,2.946
1746585242.39,-0.073,-0.126,-0.143,-0.888,-0.966,0.159,-70.258,10.690,4.438
1746585242.41,-0.197,0.052,-0.205,-0.582,-1.557,-0.298,-71.071,9.526,4.820
1746585242.43,-0.330,0.093,-0.125,-0.526,-1.828,-0.701,-71.761,6.014,3.294
1746585242.45,-0.360,-0.012,-0.036,-0.792,-1.334,-0.600,-72.547,1.815,0.919
1746585242.47,-0.290,-0.099,0.015,-1.029,-0.093,-0.085,-73.581,-0.324,-0.456
1746585242.49,-0.034,-0.149,0.159,-1.444,0.420,0.685,-74.988,1.152,0.821
1746585242.51,0.182,-0.137,0.272,-1.568,0.453,1.166,-76.683,6.512,5.809
1746585242.53,0.199,-0.016,0.243,-1.029,0.590,1.153,-77.953,14.301,13.214
1746585242.55,0.204,0.114,0.044,-0.355,0.707,0.593,-78.354,20.921,19.186
1746585242.57,0.195,0.145,-0.146,-0.515,0.233,-0.145,-78.652,23.255,20.967
1746585242.59,0.123,0.003,-0.166,-0.970,-0.714,-0.219,-79.569,23.578,21.566
1746585242.61,0.019,-0.090,-0.130,-0.895,-1.213,-0.027,-80.630,24.241,23.436
1746585242.63,-0.091,0.006,-0.025,-0.568,-0.796,0.012,-81.397,25.332,25.762
1746585242.65,-0.182,0.113,0.030,-0.254,-0.165,0.011,-81.806,26.175,27.153
1746585242.67,-0.235,0.157,0.018,-0.213,0.055,0.106,-81.978,27.306,28.302
1746585242.69,-0.244,0.159,-0.138,-0.424,-0.272,0.002,-82.263,29.027,30.142
1746585242.71,-0.157,-0.036,-0.058,-0.441,-0.471,-0.186,-82.765,29.746,31.324
1746585242.73,-0.083,-0.233,0.075,-0.321,-0.331,-0.163,-83.256,29.472,31.540
1746585242.75,-0.041,-0.222,0.149,-0.259,-0.028,-0.005,-83.570,29.876,32.137
1746585242.77,-0.026,-0.030,0.037,-0.377,-0.085,-0.007,-83.880,31.727,34.021
1746585242.79,0.011,0.032,-0.069,-0.345,-0.532,-0.131,-84.275,32.853,35.494
1746585242.81,0.052,-0.047,0.059,-0.442,-0.771,-0.119,-84.730,33.135,36.566
1746585242.83,0.047,-0.178,0.163,-0.467,-0.652,0.030,-85.205,35.218,39.500
1746585242.85,0.004,-0.151,0.115,-0.329,-0.255,0.132,-85.511,39.110,43.936
1746585242.87,-0.023,0.033,0.068,-0.205,0.024,0.169,-85.623,43.176,48.128
1746585242.89,-0.045,0.178,0.046,-0.193,0.141,0.207,-85.619,47.368,52.229
1746585242.91,-0.130,0.208,-0.090,-0.143,0.090,0.109,-85.607,51.121,55.837
1746585242.93,-0.141,0.075,-0.111,-0.056,-0.052,-0.057,-85.654,52.540,57.245
1746585242.95,-0.055,-0.050,0.057,-0.036,-0.004,-0.121,-85.771,51.924,56.679
1746585242.97,0.051,-0.022,0.182,-0.162,0.138,-0.071,-85.928,52.225,56.902
1746585242.99,0.091,0.044,0.135,-0.203,0.236,-0.060,-86.117,54.431,58.896
1746585243.01,0.094,0.053,-0.007,-0.148,0.163,-0.053,-86.288,56.603,60.813
1746585243.03,0.075,-0.036,-0.096,-0.124,-0.235,-0.021,-86.403,58.104,62.337
1746585243.05,0.026,-0.094,-0.041,-0.164,-0.546,-0.009,-86.502,59.902,64.615
1746585243.07,-0.008,-0.059,0.069,-0.084,-0.442,-0.001,-86.582,61.373,66.687
1746585243.09,-0.006,-0.001,0.129,0.019,-0.096,0.037,-86.583,61.772,67.399
1746585243.11,-0.027,0.044,0.125,0.108,0.094,0.062,-86.492,61.176,66.775
1746585243.13,-0.087,0.052,0.070,0.170,0.045,0.044,-86.357,59.531,65.038
1746585243.15,-0.156,0.035,0.006,0.207,-0.056,0.008,-86.221,56.994,62.503
1746585243.17,-0.191,0.007,-0.040,0.363,-0.025,-0.040,-86.053,52.946,58.512
1746585243.19,-0.147,-0.009,0.058,0.515,0.295,-0.066,-85.777,47.057,52.480
1746585243.21,-0.090,-0.008,0.177,0.559,0.680,-0.050,-85.376,41.317,46.152
1746585243.23,-0.065,0.026,0.162,0.529,0.908,-0.015,-84.920,37.275,41.167
1746585243.25,-0.026,0.030,0.040,0.562,0.944,-0.011,-84.428,34.339,37.141
1746585243.27,0.020,-0.021,0.043,0.565,0.864,-0.009,-83.887,31.787,33.535
1746585243.29,0.020,-0.058,0.108,0.544,0.867,0.001,-83.356,29.832,30.596
1746585243.31,-0.008,-0.057,0.108,0.769,1.039,0.031,-82.717,28.204,27.852
1746585243.33,-0.076,-0.006,-0.125,1.055,0.689,-0.006,-81.755,25.831,24.407
1746585243.35,-0.137,0.039,-0.173,0.933,0.252,-0.126,-80.739,22.819,20.848
1746585243.37,-0.113,0.027,-0.014,0.974,0.399,-0.163,-79.806,19.897,17.573
1746585243.39,-0.072,-0.016,0.120,1.200,0.878,-0.123,-78.689,17.724,14.595
1746585243.41,-0.080,-0.039,0.068,1.217,0.989,0.054,-77.350,16.612,12.335
1746585243.43,-0.069,-0.035,-0.059,0.981,0.795,0.185,-76.109,16.781,11.433
1746585243.45,-0.050,-0.029,-0.085,0.972,0.626,0.149,-75.000,17.025,10.908
1746585243.47,0.005,-0.025,0.058,0.988,0.845,0.079,-73.886,17.116,10.126
1746585243.49,0.028,-0.009,0.060,0.973,0.807,0.093,-72.790,17.260,9.237
1746585243.51,0.032,0.012,-0.090,0.928,0.149,0.287,-71.679,17.424,8.848
1746585243.53,-0.023,0.036,-0.065,0.733,0.359,0.300,-70.664,17.771,8.984
1746585243.55,-0.055,0.009,-0.020,0.512,0.526,0.248,-69.891,18.543,9.224
1746585243.57,-0.058,-0.041,-0.026,0.566,0.554,0.150,-69.262,19.224,9.271
1746585243.59,-0.053,-0.029,-0.028,0.734,0.431,0.223,-68.512,19.628,9.129
1746585243.61,-0.067,0.005,-0.072,0.958,0.252,0.287,-67.466,19.916,8.990
1746585243.63,-0.161,-0.007,-0.202,0.851,-0.148,0.297,-66.342,19.833,8.851
1746585243.65,-0.140,-0.075,-0.092,0.692,0.642,0.316,-65.437,20.106,8.946
1746585243.67,-0.002,-0.130,0.063,0.671,0.947,0.453,-64.544,21.423,9.244
1746585243.69,0.052,-0.101,-0.000,0.805,0.376,0.569,-63.586,22.637,9.813
1746585243.71,0.118,-0.002,0.049,0.898,-0.019,0.592,-62.370,23.318,10.294
1746585243.73,0.088,0.013,-0.143,0.762,-0.154,0.507,-61.265,23.504,10.731
1746585243.75,0.104,-0.047,-0.038,0.696,0.241,0.478,-60.288,23.916,11.092
1746585243.77,0.087,-0.071,0.019,0.891,0.153,0.428,-59.278,24.340,11.324
1746585243.79,0.058,-0.055,0.089,1.091,-0.007,0.504,-58.013,24.410,11.288
1746585243.81,-0.014,-0.076,-0.052,0.869,-0.176,0.695,-56.678,24.477,11.578
1746585243.83,0.034,-0.028,-0.053,0.533,0.184,0.702,-55.622,25.063,12.303
1746585243.85,0.112,-0.018,0.097,0.279,0.404,0.764,-54.859,26.256,13.259
1746585243.87,0.060,-0.035,0.057,0.425,0.075,0.781,-54.133,27.440,14.373
1746585243.89,0.023,0.061,0.042,0.951,0.106,0.535,-53.077,27.927,14.877
1746585243.91,-0.024,0.037,0.031,1.021,-0.200,0.524,-51.786,27.860,14.844
1746585243.93,-0.053,-0.052,-0.147,0.854,-0.150,0.670,-50.493,27.707,15.075
1746585243.95,-0.043,-0.017,0.004,0.778,0.117,0.556,-49.345,27.989,15.416
1746585243.97,-0.140,0.010,-0.044,0.729,0.141,0.409,-48.343,28.222,15.575
1746585243.99,-0.101,0.086,0.033,0.943,0.010,0.335,-47.321,28.230,15.501
1746585244.01,-0.043,0.085,0.167,1.294,-0.122,0.378,-46.017,27.938,15.158
1746585244.03,-0.049,0.004,-0.106,1.271,-0.003,0.394,-44.442,27.438,14.737
1746585244.05,0.021,0.016,0.036,0.875,0.427,0.339,-43.181,27.594,14.478
1746585244.07,-0.031,0.025,0.059,0.801,0.143,0.368,-42.169,27.835,14.365
1746585244.09,-0.012,0.052,0.097,0.845,-0.009,0.485,-41.121,27.914,14.345
1746585244.11,0.029,-0.021,-0.013,0.909,0.023,0.553,-39.942,27.963,14.420
1746585244.13,0.036,-0.077,-0.062,0.932,0.089,0.447,-38.738,28.059,14.415
1746585244.15,-0.025,-0.112,-0.037,0.940,0.104,0.342,-37.588,28.068,14.251
1746585244.17,-0.079,-0.147,0.040,0.961,0.149,0.360,-36.449,28.093,14.042
1746585244.19,-0.052,-0.124,0.057,0.905,0.045,0.454,-35.277,28.134,13.931
1746585244.21,0.036,-0.017,0.048,0.926,-0.116,0.457,-34.129,28.112,13.887
1746585244.23,-0.015,-0.013,-0.095,0.974,-0.067,0.364,-32.929,27.883,13.757
1746585244.25,-0.091,-0.007,-0.038,0.885,0.076,0.430,-31.792,27.830,13.607
1746585244.27,-0.053,0.039,-0.008,0.828,0.072,0.581,-30.660,27.968,13.674
1746585244.29,-0.008,0.073,0.024,0.865,-0.032,0.539,-29.497,28.057,13.790
1746585244.31,0.032,-0.027,0.066,0.922,-0.162,0.485,-28.333,27.973,13.811
1746585244.33,0.057,-0.170,-0.074,0.909,-0.035,0.441,-27.153,27.810,13.745
1746585244.35,-0.044,-0.051,-0.045,0.897,-0.131,0.477,-26.014,27.720,13.690
1746585244.37,-0.108,0.079,-0.005,0.923,-0.130,0.534,-24.819,27.565,13.679
1746585244.39,-0.049,0.069,0.033,0.929,-0.108,0.511,-23.605,27.464,13.665
1746585244.40,-0.045,-0.051,0.040,0.907,-0.069,0.461,-22.424,27.343,13.645
1746585244.42,-0.042,-0.150,-0.124,0.969,-0.001,0.352,-21.249,27.235,13.490
1746585244.44,-0.034,0.019,-0.091,0.916,0.088,0.418,-20.095,27.260,13.298
1746585244.46,-0.064,0.160,0.015,0.927,0.095,0.571,-18.900,27.353,13.258
1746585244.49,-0.135,0.028,0.020,0.837,0.286,0.568,-17.683,27.618,13.274
1746585244.50,-0.050,-0.066,0.027,0.823,0.118,0.442,-16.589,27.882,13.294
1746585244.52,0.108,-0.004,-0.056,0.906,0.157,0.490,-15.475,28.045,13.231
1746585244.54,-0.057,0.044,-0.067,0.929,0.160,0.471,-14.282,28.214,13.140
1746585244.56,-0.117,0.101,0.044,0.974,0.258,0.431,-13.093,28.500,13.050
1746585244.58,-0.075,0.020,-0.077,1.018,0.011,0.274,-11.889,28.624,12.753
1746585244.60,0.168,-0.084,-0.023,1.032,-0.376,0.248,-10.730,28.359,12.366
1746585244.62,0.072,-0.104,-0.011,0.988,-0.123,0.285,-9.557,27.973,12.012
1746585244.64,-0.112,-0.083,-0.101,0.856,0.213,0.387,-8.452,28.035,11.742
1746585244.66,-0.046,0.054,-0.040,0.856,0.203,0.386,-7.384,28.272,11.597
1746585244.68,-0.010,0.004,-0.006,0.830,0.093,0.321,-6.348,28.429,11.406
1746585244.70,0.080,-0.026,-0.052,0.807,0.021,0.357,-5.342,28.455,11.178
1746585244.72,0.062,-0.061,-0.127,0.717,0.071,0.389,-4.369,28.494,11.051
1746585244.74,-0.055,-0.016,-0.098,0.683,0.211,0.357,-3.462,28.665,10.957
1746585244.76,-0.065,0.079,-0.049,0.663,0.181,0.289,-2.617,28.881,10.819
1746585244.78,0.058,0.010,-0.069,0.695,0.152,0.303,-1.781,29.077,10.630
1746585244.80,0.083,0.023,-0.070,0.670,0.138,0.354,-0.909,29.218,10.461
1746585244.82,0.016,-0.016,-0.061,0.582,0.299,0.364,-0.085,29.473,10.353
1746585244.84,-0.056,0.024,-0.089,0.502,0.374,0.337,0.661,29.884,10.283
1746585244.86,0.016,-0.005,-0.081,0.435,0.245,0.255,1.289,30.256,10.188
1746585244.88,0.068,-0.071,-0.086,0.333,-0.085,0.207,1.795,30.341,10.068
1746585244.90,0.086,-0.040,-0.081,0.335,-0.005,0.305,2.268,30.222,10.012
1746585244.92,-0.014,0.004,-0.153,0.343,0.096,0.168,2.744,30.227,9.944
1746585244.94,-0.065,0.020,-0.075,0.243,0.127,0.056,3.101,30.360,9.758
1746585244.96,0.138,-0.029,-0.130,0.257,-0.009,0.050,3.380,30.462,9.547
1746585244.98,0.156,-0.012,-0.091,0.213,-0.056,0.078,3.647,30.406,9.363
1746585245.00,0.012,-0.006,-0.086,0.134,0.030,0.105,3.874,30.382,9.235
1746585245.02,-0.000,-0.019,-0.068,0.030,0.086,0.082,4.009,30.456,9.174
1746585245.04,0.034,-0.004,-0.088,-0.026,0.026,0.051,4.046,30.530,9.133
1746585245.06,0.055,0.028,-0.121,-0.033,-0.075,0.012,4.036,30.492,9.071
1746585245.08,0.037,0.018,-0.095,-0.063,-0.107,-0.027,3.990,30.392,9.000
1746585245.10,-0.010,-0.007,-0.125,-0.138,-0.132,-0.067,3.867,30.251,8.809
1746585245.12,0.069,-0.033,-0.109,-0.218,-0.223,-0.136,3.636,30.049,8.721
1746585245.14,0.117,-0.101,-0.174,-0.308,-0.355,-0.218,3.277,29.759,8.625
1746585245.16,0.119,-0.140,-0.158,-0.406,-0.451,-0.318,2.768,29.251,8.471
1746585245.18,0.065,-0.121,-0.157,-0.543,-0.397,-0.370,2.094,28.753,8.288
1746585245.20,0.011,-0.096,-0.169,-0.703,-0.251,-0.375,1.261,28.386,8.189
1746585245.22,0.108,-0.096,-0.206,-0.902,-0.100,-0.327,0.266,28.185,8.202
1746585245.24,0.109,-0.053,-0.161,-1.126,-0.009,-0.311,-0.924,28.110,8.361
1746585245.26,0.071,0.016,-0.194,-1.321,0.083,-0.293,-2.326,28.183,8.661
1746585245.28,0.087,0.060,-0.210,-1.479,0.049,-0.283,-3.897,28.301,9.088
1746585245.30,0.085,0.048,-0.199,-1.577,0.072,-0.335,-5.595,28.415,9.568
1746585245.32,-0.030,0.046,-0.136,-1.643,0.195,-0.404,-7.422,28.630,10.037
1746585245.34,-0.017,0.040,-0.110,-1.713,0.213,-0.435,-9.331,28.922,10.523
1746585245.36,0.030,0.003,-0.090,-1.664,0.223,-0.394,-11.254,29.291,11.048
1746585245.38,0.019,-0.034,-0.093,-1.613,0.186,-0.465,-13.121,29.616,11.564
1746585245.40,-0.062,-0.194,-0.036,-1.591,0.133,-0.583,-15.008,29.927,11.972
1746585245.42,-0.024,-0.238,-0.033,-1.454,-0.083,-0.660,-16.875,30.023,12.248
1746585245.44,0.005,-0.210,-0.034,-1.349,-0.003,-0.752,-18.655,29.972,12.367
1746585245.46,-0.020,-0.205,-0.039,-1.342,0.027,-0.758,-20.423,30.002,12.411
1746585245.48,-0.012,-0.175,-0.026,-1.340,0.032,-0.764,-22.170,30.036,12.463
1746585245.50,0.017,-0.146,0.037,-1.404,-0.109,-0.749,-23.963,30.053,12.556
1746585245.52,0.074,-0.143,-0.065,-1.418,-0.238,-0.733,-25.771,29.836,12.694
1746585245.54,0.018,-0.090,-0.027,-1.402,-0.127,-0.758,-27.592,29.675,12.818
1746585245.56,-0.061,-0.077,-0.012,-1.416,-0.181,-0.782,-29.426,29.515,12.911
1746585245.58,-0.044,-0.078,-0.013,-1.473,-0.097,-0.721,-31.284,29.380,13.046
1746585245.60,-0.001,-0.025,0.019,-1.446,-0.136,-0.693,-33.135,29.340,13.285
1746585245.62,-0.023,0.033,-0.020,-1.376,-0.163,-0.778,-34.951,29.210,13.434
1746585245.64,-0.046,0.028,-0.038,-1.346,-0.181,-0.806,-36.746,28.978,13.481
1746585245.66,-0.038,-0.052,0.025,-1.294,-0.167,-0.787,-38.519,28.716,13.496
1746585245.68,-0.040,-0.140,0.009,-1.297,-0.146,-0.769,-40.227,28.474,13.490
1746585245.70,-0.046,-0.162,0.025,-1.411,-0.059,-0.773,-42.009,28.304,13.541
1746585245.72,-0.037,-0.125,0.003,-1.537,0.083,-0.775,-43.897,28.342,13.672
1746585245.74,-0.031,-0.054,0.050,-1.631,0.190,-0.723,-45.919,28.622,13.899
1746585245.76,-0.015,-0.021,0.007,-1.555,0.174,-0.657,-47.899,29.032,14.184
1746585245.78,0.006,-0.002,-0.000,-1.473,0.085,-0.682,-49.772,29.409,14.508
1746585245.80,0.024,0.012,-0.020,-1.325,-0.201,-0.756,-51.571,29.454,14.633
1746585245.82,0.002,0.021,-0.042,-1.157,-0.557,-0.854,-53.257,28.843,14.443
1746585245.84,-0.024,0.013,-0.003,-1.128,-0.546,-0.815,-54.848,27.853,14.037
1746585245.86,-0.020,-0.024,-0.005,-1.271,-0.357,-0.673,-56.442,27.154,13.804
1746585245.88,0.028,-0.059,0.058,-1.410,-0.297,-0.580,-58.147,26.910,13.947
1746585245.90,0.022,-0.062,0.028,-1.210,-0.468,-0.599,-59.803,26.644,14.123
1746585245.92,-0.018,-0.036,-0.071,-1.072,-0.654,-0.665,-61.270,25.839,13.960
1746585245.94,-0.029,-0.031,-0.022,-1.138,-0.709,-0.600,-62.720,24.808,13.678
1746585245.96,-0.015,-0.068,0.071,-1.255,-0.586,-0.370,-64.193,24.152,13.797
1746585245.98,0.019,-0.118,0.114,-1.292,-0.240,-0.123,-65.648,24.428,14.616
1746585246.00,0.066,-0.111,-0.055,-1.250,-0.329,0.103,-66.967,25.533,16.117
1746585246.02,0.061,-0.063,-0.029,-1.303,-0.806,0.208,-68.181,26.859,18.254
1746585246.04,-0.007,-0.018,0.055,-1.253,-1.018,0.031,-69.415,27.907,20.536
1746585246.06,-0.043,-0.030,-0.029,-1.238,-0.863,-0.299,-70.728,28.243,22.055
1746585246.08,-0.045,-0.102,0.045,-1.262,-0.818,-0.385,-72.202,28.239,23.060
1746585246.10,-0.013,-0.097,0.001,-1.151,-0.697,-0.284,-73.593,28.363,24.091
1746585246.12,0.006,-0.002,0.033,-1.204,-0.729,-0.180,-74.900,29.092,25.668
1746585246.14,-0.064,0.063,-0.017,-1.153,-0.669,-0.166,-76.164,30.155,27.612
1746585246.16,-0.096,-0.019,0.076,-1.180,-0.560,-0.110,-77.388,31.810,30.037
1746585246.18,-0.091,-0.070,-0.027,-1.184,-0.377,-0.056,-78.577,34.339,33.149
1746585246.20,-0.019,-0.091,0.025,-1.171,-0.385,0.095,-79.648,38.080,37.401
1746585246.22,0.055,-0.047,0.103,-1.134,-0.342,0.200,-80.536,43.384,43.205
1746585246.24,0.058,-0.035,0.156,-1.009,-0.079,0.129,-81.234,49.566,49.752
1746585246.26,0.010,-0.065,0.067,-0.821,0.246,-0.053,-81.842,55.457,55.575
1746585246.28,-0.070,-0.119,-0.086,-0.710,0.029,-0.052,-82.365,60.583,60.550
1746585246.30,-0.100,-0.109,-0.120,-0.815,-0.359,0.114,-82.719,66.339,66.556
1746585246.32,-0.081,-0.032,-0.061,-0.844,-0.477,0.186,-82.877,73.561,74.346
1746585246.34,-0.041,0.043,0.035,-0.618,-0.269,0.123,-82.893,80.069,81.363
1746585246.36,-0.033,0.060,0.049,-0.428,0.118,0.074,-82.863,84.731,86.138
1746585246.38,-0.080,0.049,-0.055,-0.316,0.114,-0.018,-82.854,88.305,89.554
1746585246.40,-0.085,0.021,-0.108,-0.210,-0.256,-0.066,-82.916,90.616,91.964
1746585246.42,-0.039,0.016,-0.025,-0.167,-0.364,-0.007,-82.957,91.928,93.670
1746585246.44,-0.034,0.019,0.021,-0.153,-0.303,0.019,-82.932,93.049,95.194
1746585246.46,-0.039,-0.023,0.032,-0.093,-0.182,0.032,-82.903,93.886,96.322
1746585246.48,-0.039,-0.045,0.040,-0.047,-0.158,0.091,-82.824,94.318,96.930
1746585246.50,-0.061,0.039,-0.019,0.004,-0.353,0.085,-82.719,94.140,97.038
1746585246.52,-0.099,0.093,-0.056,0.083,-0.375,0.061,-82.636,93.308,96.647
1746585246.54,-0.128,0.047,-0.015,0.171,-0.125,0.061,-82.579,91.832,95.466
1746585246.56,-0.154,-0.018,0.047,0.163,0.205,0.048,-82.516,90.329,93.896
1746585246.58,-0.154,-0.021,0.025,0.171,0.268,-0.051,-82.515,89.221,92.485
1746585246.60,-0.044,-0.004,0.021,0.203,0.250,-0.064,-82.585,87.840,90.790
1746585246.62,0.046,0.001,0.051,0.153,0.174,0.000,-82.606,86.439,89.132
1746585246.64,0.036,0.012,0.032,0.001,-0.007,-0.001,-82.597,85.854,88.425
1746585246.66,-0.023,0.000,-0.109,-0.038,-0.240,-0.039,-82.621,86.025,88.763
1746585246.68,-0.022,0.018,-0.117,0.123,-0.019,-0.050,-82.676,85.436,88.355
1746585246.70,-0.012,-0.009,0.054,0.198,0.307,-0.021,-82.694,84.065,86.788
1746585246.72,-0.023,-0.025,0.075,0.083,0.215,-0.016,-82.688,83.086,85.455
1746585246.74,-0.040,0.002,-0.041,-0.016,-0.132,-0.063,-82.730,82.847,85.174
1746585246.76,-0.020,0.014,-0.090,0.045,-0.159,-0.086,-82.820,82.473,85.003
1746585246.78,0.028,0.008,-0.031,0.132,0.032,-0.036,-82.879,81.458,84.050
1746585246.80,0.030,-0.013,0.039,0.097,0.018,0.022,-82.861,80.423,82.956
1746585246.82,-0.010,-0.021,0.065,0.012,-0.125,0.019,-82.824,79.883,82.471
1746585246.84,-0.042,-0.024,0.067,-0.060,-0.205,0.000,-82.821,79.900,82.693
1746585246.86,-0.072,-0.006,0.050,-0.088,-0.180,-0.009,-82.839,80.375,83.394
1746585246.88,-0.107,0.032,-0.026,0.020,-0.134,-0.045,-82.874,80.584,83.796
1746585246.90,-0.111,0.042,-0.056,0.229,0.021,-0.068,-82.916,79.323,82.594
1746585246.92,-0.091,0.015,0.017,0.335,0.194,-0.069,-82.925,76.732,79.861
1746585246.94,-0.086,-0.010,0.069,0.363,0.304,-0.058,-82.899,73.763,76.568
1746585246.96,-0.092,-0.005,0.033,0.411,0.348,-0.068,-82.845,70.608,73.019
1746585246.98,-0.061,-0.005,0.031,0.520,0.537,-0.064,-82.724,66.983,68.866
1746585247.00,-0.045,-0.032,0.101,0.621,0.721,-0.049,-82.507,62.941,64.060
1746585247.02,-0.043,-0.023,0.065,0.738,0.726,0.001,-82.156,58.673,58.890
1746585247.04,-0.060,0.027,-0.111,0.874,0.503,0.018,-81.630,54.050,53.521
1746585247.06,-0.111,0.012,0.008,0.949,0.557,-0.055,-80.991,49.193,48.019
1746585247.08,-0.133,0.026,0.085,1.020,0.684,-0.115,-80.294,44.517,42.544
1746585247.10,-0.134,0.049,0.085,1.052,0.788,-0.162,-79.531,40.220,37.338
1746585247.12,-0.138,0.018,0.085,1.092,0.882,-0.170,-78.682,36.438,32.501
1746585247.14,-0.144,-0.021,0.064,1.103,0.832,-0.183,-77.759,33.209,28.185
1746585247.16,-0.134,-0.034,0.030,1.051,0.532,-0.243,-76.845,30.249,24.342
1746585247.18,-0.073,-0.017,-0.037,1.084,0.572,-0.304,-75.923,27.202,20.654
1746585247.20,0.035,0.025,0.072,0.984,1.004,-0.266,-74.995,24.983,17.380
1746585247.22,0.098,0.044,0.007,0.843,0.579,-0.135,-74.136,23.593,14.932
1746585247.24,0.140,0.006,-0.110,0.713,0.593,0.080,-73.357,22.860,13.592
1746585247.26,0.122,-0.086,0.019,0.833,1.019,0.281,-72.462,23.347,13.095
1746585247.27,0.090,-0.108,0.036,0.902,0.877,0.375,-71.403,24.316,12.917
1746585247.29,0.106,-0.087,-0.127,0.955,-0.076,0.500,-70.203,24.815,12.938
1746585247.31,0.120,-0.011,-0.090,0.769,0.090,0.375,-69.102,24.883,13.128
1746585247.34,0.050,-0.007,0.019,0.802,0.436,0.232,-68.146,25.038,12.894
1746585247.35,-0.003,-0.073,-0.032,0.670,0.500,0.281,-67.278,25.304,12.644
1746585247.37,0.007,-0.075,0.077,0.902,0.373,0.395,-66.327,25.796,12.562
1746585247.39,0.008,-0.011,0.038,0.989,-0.229,0.507,-65.081,25.849,12.504
1746585247.41,-0.071,0.070,-0.111,0.752,-0.138,0.433,-63.948,25.666,12.640
1746585247.43,-0.076,0.020,-0.017,0.600,0.327,0.379,-63.064,25.932,12.819
1746585247.45,-0.014,-0.060,0.072,0.757,0.286,0.402,-62.200,26.498,12.960
1746585247.47,0.017,-0.075,0.028,1.217,-0.098,0.438,-60.986,26.440,12.813
1746585247.49,0.009,-0.024,0.074,1.169,-0.165,0.519,-59.465,26.072,12.542
1746585247.51,-0.067,0.050,-0.095,0.710,0.060,0.437,-58.272,25.958,12.590
1746585247.53,-0.038,0.013,0.039,0.561,0.579,0.534,-57.389,26.687,13.016
1746585247.55,-0.012,-0.021,-0.025,0.743,0.197,0.513,-56.486,27.500,13.551
1746585247.57,-0.055,0.051,-0.036,1.195,0.232,0.329,-55.285,27.554,13.461
1746585247.59,-0.074,0.103,-0.014,1.140,0.110,0.221,-53.894,27.286,12.832
1746585247.61,-0.056,0.045,-0.046,0.581,0.051,0.523,-52.844,27.161,12.697
1746585247.63,0.068,-0.130,0.090,0.444,-0.009,0.831,-52.016,27.848,13.570
1746585247.65,0.003,-0.181,-0.120,0.685,0.118,0.644,-51.012,28.429,14.390
1746585247.67,-0.020,-0.070,-0.032,0.831,0.274,0.360,-50.011,28.837,14.611
1746585247.69,0.039,-0.040,0.040,1.096,-0.292,0.304,-48.859,28.594,14.339
1746585247.71,-0.025,-0.061,-0.035,0.965,-0.231,0.460,-47.586,28.008,14.123
1746585247.73,-0.116,-0.026,-0.049,0.804,0.108,0.504,-46.449,27.991,14.250
1746585247.75,-0.112,0.052,-0.011,0.895,0.220,0.370,-45.378,28.200,14.285
1746585247.77,-0.031,0.089,0.082,1.175,-0.164,0.326,-44.151,28.049,14.021
1746585247.79,-0.005,0.092,0.039,1.100,-0.392,0.437,-42.752,27.416,13.731
1746585247.81,0.097,0.048,0.007,0.796,-0.080,0.588,-41.539,27.188,13.838
1746585247.83,-0.016,-0.032,-0.032,0.783,0.307,0.469,-40.471,27.458,14.089
1746585247.85,-0.090,-0.073,-0.006,0.941,0.191,0.389,-39.386,27.728,14.098
1746585247.87,-0.029,-0.057,0.102,1.116,-0.040,0.388,-38.145,27.714,13.938
1746585247.89,-0.021,-0.036,0.004,1.096,-0.251,0.419,-36.773,27.347,13.723
1746585247.91,0.029,0.030,-0.068,0.685,0.063,0.522,-35.625,27.243,13.739
1746585247.93,0.033,0.038,0.017,0.576,0.112,0.618,-34.723,27.563,14.107
1746585247.95,-0.060,0.020,0.027,0.825,0.136,0.571,-33.700,27.854,14.396
1746585247.97,-0.053,-0.088,0.083,1.043,-0.047,0.570,-32.451,27.984,14.495
1746585247.99,0.006,-0.172,0.021,1.125,-0.387,0.449,-31.059,27.675,14.423
1746585248.01,0.034,-0.077,-0.047,1.001,-0.311,0.381,-29.769,27.154,14.249
1746585248.03,0.027,0.068,-0.058,0.795,-0.020,0.521,-28.639,26.966,14.264
1746585248.05,-0.093,0.103,0.048,0.941,-0.001,0.464,-27.507,27.007,14.364
1746585248.07,-0.181,0.040,0.082,0.988,-0.031,0.413,-26.293,26.964,14.290
1746585248.09,-0.122,-0.054,0.037,1.033,0.007,0.396,-25.051,26.872,14.174
1746585248.11,-0.029,-0.015,-0.082,0.940,0.313,0.311,-23.873,26.985,13.995
1746585248.13,-0.019,0.071,-0.050,1.003,0.161,0.324,-22.720,27.217,13.782
1746585248.15,0.018,0.075,0.002,1.156,-0.097,0.271,-21.467,27.177,13.485
1746585248.17,-0.024,0.053,0.077,1.333,-0.304,0.186,-20.065,26.766,13.005
1746585248.19,-0.121,-0.130,0.072,1.204,-0.254,0.164,-18.670,26.206,12.462
1746585248.21,0.013,-0.189,-0.098,1.073,0.131,0.222,-17.427,26.019,12.020
1746585248.23,-0.002,0.134,-0.085,0.988,0.208,0.378,-16.223,26.186,11.768
1746585248.25,0.040,0.149,0.014,0.982,0.187,0.487,-15.002,26.390,11.674
1746585248.27,0.006,0.005,0.165,1.012,0.080,0.531,-13.714,26.544,11.636
1746585248.29,0.000,-0.058,0.131,0.935,0.078,0.528,-12.447,26.645,11.644
1746585248.31,0.103,-0.077,-0.100,0.951,0.140,0.596,-11.200,26.729,11.656
1746585248.33,0.063,-0.038,-0.171,0.950,0.205,0.628,-9.899,26.969,11.746
1746585248.35,0.038,-0.042,-0.028,0.916,0.169,0.617,-8.632,27.195,11.833
1746585248.37,-0.071,0.054,0.104,0.921,0.018,0.652,-7.372,27.331,11.921
1746585248.39,-0.103,-0.011,-0.009,0.942,0.095,0.531,-6.117,27.394,11.961
1746585248.41,0.016,-0.009,-0.241,1.013,-0.102,0.371,-4.880,27.365,11.808
1746585248.43,-0.004,0.009,-0.166,1.025,-0.130,0.240,-3.692,27.213,11.504
1746585248.45,-0.018,0.028,-0.138,1.029,-0.184,0.218,-2.528,27.026,11.112
1746585248.47,-0.020,0.124,-0.026,0.975,-0.156,0.206,-1.405,26.785,10.734
1746585248.49,-0.096,0.080,-0.038,0.929,0.063,0.082,-0.379,26.723,10.269
1746585248.51,-0.049,-0.003,-0.146,0.887,0.205,0.068,0.591,26.896,9.790
1746585248.53,0.064,-0.039,-0.131,0.734,0.243,0.116,1.473,27.205,9.388
1746585248.55,0.098,-0.083,-0.061,0.537,0.341,0.186,2.198,27.547,9.125
1746585248.57,-0.019,-0.000,-0.105,0.473,0.421,0.181,2.799,27.985,8.964
1746585248.59,0.026,-0.026,-0.185,0.418,0.352,0.150,3.342,28.445,8.796
1746585248.61,0.096,-0.063,-0.110,0.319,0.184,0.159,3.796,28.756,8.650
1746585248.63,0.060,-0.007,-0.090,0.248,0.075,0.162,4.161,28.893,8.567
1746585248.65,-0.003,0.002,-0.099,0.254,0.078,0.152,4.499,28.980,8.503
1746585248.67,-0.029,-0.015,-0.076,0.233,0.140,0.150,4.827,29.103,8.425
1746585248.69,-0.026,-0.038,-0.061,0.198,0.137,0.122,5.120,29.262,8.355
1746585248.71,0.055,-0.059,-0.110,0.202,0.026,0.118,5.382,29.358,8.278
1746585248.73,0.036,-0.063,-0.059,0.204,-0.083,0.108,5.647,29.316,8.188
1746585248.75,-0.011,-0.035,-0.027,0.205,-0.096,0.115,5.919,29.224,8.079
1746585248.77,-0.056,0.011,0.038,0.173,-0.012,0.128,6.179,29.153,8.011
1746585248.79,-0.088,-0.003,0.029,0.176,0.047,0.100,6.414,29.176,7.942
1746585248.81,0.002,-0.003,-0.051,0.133,-0.009,0.116,6.634,29.205,7.863
1746585248.83,0.084,-0.060,-0.072,0.095,-0.089,0.143,6.818,29.143,7.843
1746585248.85,0.031,-0.023,-0.037,0.118,-0.104,0.140,7.005,29.010,7.841
1746585248.87,-0.093,0.029,0.028,0.093,0.007,0.100,7.183,28.939,7.811
1746585248.89,-0.073,0.024,0.007,0.044,0.105,0.065,7.291,29.009,7.770
1746585248.91,0.039,-0.015,-0.108,0.038,0.034,0.026,7.354,29.106,7.711
1746585248.93,0.061,-0.013,-0.174,-0.021,-0.130,-0.049,7.370,29.046,7.608
1746585248.95,0.059,-0.050,-0.154,-0.177,-0.108,-0.080,7.226,28.901,7.520
1746585248.97,0.077,-0.024,-0.210,-0.308,-0.050,-0.101,6.939,28.795,7.495
1746585248.99,0.022,-0.064,-0.172,-0.464,0.076,-0.171,6.478,28.801,7.423
1746585249.01,0.080,-0.061,-0.160,-0.673,0.195,-0.203,5.815,28.940,7.479
1746585249.03,0.088,-0.065,-0.239,-0.893,0.395,-0.133,4.935,29.243,7.695
1746585249.05,0.034,-0.019,-0.292,-1.132,0.508,-0.165,3.844,29.745,8.070
1746585249.07,0.122,-0.032,-0.199,-1.247,0.453,-0.230,2.552,30.281,8.524
1746585249.09,0.132,-0.073,-0.147,-1.330,0.257,-0.350,1.107,30.670,8.935
1746585249.11,0.170,-0.101,-0.141,-1.404,0.065,-0.318,-0.418,30.855,9.362
1746585249.13,0.121,-0.007,-0.173,-1.487,-0.034,-0.304,-2.008,30.870,9.882
1746585249.15,0.096,0.014,-0.164,-1.640,-0.059,-0.343,-3.728,30.855,10.461
1746585249.17,0.084,-0.037,-0.054,-1.693,-0.075,-0.387,-5.587,30.829,11.088
1746585249.19,0.081,-0.094,-0.070,-1.629,-0.066,-0.440,-7.455,30.810,11.665
1746585249.21,-0.009,-0.093,-0.061,-1.541,-0.006,-0.528,-9.283,30.851,12.122
1746585249.23,-0.116,-0.055,-0.075,-1.491,0.108,-0.674,-11.115,30.954,12.428
1746585249.25,-0.046,-0.039,-0.045,-1.444,0.102,-0.740,-12.980,31.127,12.634
1746585249.27,0.019,-0.041,-0.051,-1.344,-0.021,-0.855,-14.806,31.169,12.721
1746585249.29,-0.042,-0.064,-0.020,-1.172,-0.103,-0.983,-16.585,31.075,12.602
1746585249.31,-0.087,-0.138,-0.087,-1.160,-0.039,-1.067,-18.317,30.839,12.309
1746585249.33,-0.086,-0.126,-0.001,-1.174,0.187,-1.113,-20.103,30.800,11.956
1746585249.35,-0.061,-0.067,0.046,-1.210,0.234,-1.070,-21.926,30.919,11.624
1746585249.37,-0.014,-0.014,0.016,-1.149,0.084,-0.996,-23.684,30.971,11.363
1746585249.39,0.006,0.011,-0.012,-1.130,0.179,-0.993,-25.382,30.978,11.110
1746585249.41,0.026,-0.058,-0.019,-1.084,0.134,-0.969,-27.047,31.017,10.855
1746585249.43,0.012,-0.161,0.006,-1.014,-0.125,-0.938,-28.628,30.852,10.583
1746585249.45,0.028,-0.233,0.014,-1.081,-0.095,-0.893,-30.187,30.545,10.345
1746585249.47,0.041,-0.255,-0.017,-1.220,0.010,-0.855,-31.815,30.358,10.216
1746585249.49,0.019,-0.208,0.028,-1.351,0.175,-0.790,-33.561,30.458,10.252
1746585249.51,0.030,-0.140,0.003,-1.451,-0.041,-0.730,-35.388,30.583,10.465
1746585249.53,0.022,-0.094,-0.040,-1.480,-0.018,-0.631,-37.235,30.657,10.823
1746585249.55,0.012,-0.113,-0.040,-1.450,-0.026,-0.620,-39.031,30.852,11.279
1746585249.57,0.001,-0.127,-0.053,-1.386,-0.091,-0.779,-40.827,30.900,11.617
1746585249.59,-0.006,-0.104,-0.053,-1.422,0.002,-0.845,-42.677,30.837,11.743
1746585249.61,0.031,-0.072,-0.017,-1.636,0.201,-0.651,-44.613,31.109,12.094
1746585249.63,0.058,-0.034,0.034,-1.742,0.266,-0.501,-46.606,31.882,12.902
1746585249.65,0.027,0.003,0.013,-1.611,0.011,-0.548,-48.564,32.654,13.850
1746585249.67,-0.012,0.012,-0.111,-1.222,-0.400,-0.729,-50.313,32.750,14.330
1746585249.69,-0.009,-0.011,-0.116,-1.147,-0.647,-0.914,-51.937,32.008,14.335
1746585249.71,0.023,-0.081,-0.025,-1.236,-0.647,-0.962,-53.658,30.978,14.117
1746585249.73,0.027,-0.116,0.016,-1.341,-0.764,-0.831,-55.455,29.986,13.937
1746585249.75,0.005,-0.074,0.008,-1.342,-0.795,-0.645,-57.200,29.091,13.967
1746585249.77,0.018,-0.012,0.059,-1.478,-0.539,-0.504,-58.917,28.662,14.362
1746585249.79,0.006,0.005,0.093,-1.572,-0.497,-0.454,-60.716,28.714,15.089
1746585249.81,0.012,-0.014,0.028,-1.439,-0.524,-0.380,-62.472,28.912,16.120
1746585249.83,0.030,-0.045,-0.037,-1.378,-0.662,-0.184,-64.017,29.198,17.184
1746585249.85,0.035,-0.067,0.026,-1.543,-0.931,0.007,-65.503,29.840,18.907
1746585249.87,0.009,-0.092,0.061,-1.597,-0.938,0.025,-67.052,30.930,21.293
1746585249.89,-0.013,-0.077,-0.085,-1.607,-1.029,-0.205,-68.643,31.958,23.584
1746585249.91,-0.068,-0.107,-0.012,-1.582,-1.253,-0.415,-70.395,32.436,25.656
1746585249.93,-0.100,-0.148,0.050,-1.411,-1.185,-0.457,-72.121,32.454,27.165
1746585249.95,-0.108,-0.123,0.134,-1.274,-0.880,-0.362,-73.658,32.613,28.596
1746585249.97,-0.109,-0.030,0.087,-1.085,-0.509,-0.257,-74.998,33.427,30.239
1746585249.99,-0.138,-0.006,0.017,-0.948,-0.407,-0.100,-76.046,34.702,32.083
1746585250.01,-0.136,0.010,-0.054,-1.043,-0.316,-0.016,-76.997,36.838,34.711
1746585250.03,-0.065,-0.044,0.019,-1.267,-0.363,0.028,-78.013,40.193,38.523
1746585250.05,-0.001,-0.083,0.087,-1.374,-0.452,-0.018,-79.138,44.931,43.836
1746585250.07,0.020,-0.040,0.041,-1.195,-0.530,-0.087,-80.190,50.147,49.721
1746585250.09,0.037,0.006,-0.008,-0.917,-0.545,-0.086,-81.007,54.896,55.136
1746585250.11,0.036,-0.026,0.047,-0.804,-0.545,0.078,-81.542,59.449,60.420
1746585250.12,-0.033,-0.066,0.022,-0.827,-0.242,0.249,-81.802,65.219,66.711
1746585250.15,-0.095,-0.057,0.002,-0.811,-0.030,0.283,-81.853,72.015,73.709
1746585250.17,-0.109,-0.025,-0.005,-0.725,0.011,0.233,-81.792,78.451,80.225
1746585250.18,-0.102,0.010,0.025,-0.620,0.038,0.205,-81.659,83.992,85.788
1746585250.20,-0.128,0.078,-0.017,-0.414,-0.085,0.098,-81.518,88.095,89.950
1746585250.22,-0.144,0.080,-0.027,-0.168,-0.207,-0.030,-81.488,90.118,92.181
1746585250.24,-0.112,0.026,0.035,-0.094,-0.100,-0.037,-81.537,90.808,93.068
1746585250.26,-0.086,-0.002,0.053,-0.116,-0.076,0.023,-81.546,91.563,93.904
1746585250.28,-0.087,-0.001,-0.010,-0.068,-0.200,0.073,-81.486,92.093,94.609
1746585250.30,-0.068,0.029,-0.016,-0.036,-0.012,0.064,-81.404,92.316,94.992
1746585250.32,-0.020,0.029,-0.013,0.075,0.255,0.092,-81.322,92.364,94.882
1746585250.34,-0.021,-0.009,0.046,0.178,0.315,0.159,-81.180,91.633,93.794
1746585250.36,-0.068,0.002,0.060,0.054,0.205,0.093,-81.036,90.974,92.812
1746585250.38,-0.101,0.050,-0.028,-0.088,-0.068,-0.061,-81.036,91.263,93.022
1746585250.40,-0.044,0.029,-0.084,-0.004,-0.045,-0.071,-81.132,91.597,93.465
1746585250.42,0.011,0.001,-0.002,0.079,0.108,-0.003,-81.175,91.319,93.132
1746585250.44,0.022,0.010,-0.043,0.053,0.072,-0.005,-81.185,90.991,92.685
1746585250.46,0.040,-0.031,-0.032,0.011,0.040,0.020,-81.194,90.783,92.413
1746585250.48,0.030,-0.054,0.030,-0.070,-0.019,0.073,-81.144,90.899,92.522
1746585250.50,-0.002,-0.011,0.010,-0.175,-0.131,0.113,-81.035,91.769,93.472
1746585250.52,-0.055,0.030,-0.064,-0.106,-0.227,0.108,-80.893,92.565,94.512
1746585250.54,-0.088,0.038,-0.043,0.014,0.051,0.080,-80.781,92.712,94.785
1746585250.56,-0.107,0.012,-0.022,0.215,0.182,0.027,-80.713,92.086,93.982
1746585250.58,-0.089,0.015,0.004,0.293,0.090,-0.060,-80.744,90.354,92.072
1746585250.60,-0.017,0.005,0.073,0.188,0.114,-0.040,-80.813,88.632,90.228
1746585250.62,0.021,-0.011,0.084,0.035,0.148,0.015,-80.833,88.060,89.477
1746585250.64,-0.004,-0.025,0.035,0.024,-0.020,0.053,-80.799,87.980,89.326
1746585250.66,-0.013,-0.024,0.030,0.060,-0.017,0.060,-80.745,87.677,89.053
1746585250.68,-0.031,-0.001,0.047,0.081,0.012,0.049,-80.679,87.205,88.570
1746585250.70,-0.076,0.033,0.020,0.054,-0.033,-0.020,-80.655,86.797,88.161
1746585250.72,-0.103,0.030,0.004,0.088,-0.082,-0.082,-80.711,86.315,87.739
1746585250.74,-0.076,0.001,0.021,0.182,-0.090,-0.110,-80.813,85.221,86.735
1746585250.76,-0.026,-0.010,0.055,0.203,-0.079,-0.112,-80.923,83.726,85.308
1746585250.78,-0.002,-0.024,0.064,0.188,-0.165,-0.090,-81.023,82.124,83.821
1746585250.80,0.004,-0.023,0.056,0.176,-0.261,-0.051,-81.094,80.509,82.432
1746585250.82,-0.026,-0.011,0.035,0.215,-0.331,0.001,-81.102,78.786,81.044
1746585250.84,-0.094,-0.009,0.073,0.305,-0.231,-0.004,-81.044,76.708,79.281
1746585250.86,-0.152,-0.004,0.112,0.424,-0.009,-0.078,-80.982,73.985,76.667
1746585250.88,-0.179,0.018,0.097,0.569,0.221,-0.185,-80.954,70.446,72.957
1746585250.90,-0.186,0.040,0.059,0.708,0.350,-0.267,-80.927,65.906,68.013
1746585250.92,-0.156,0.069,-0.010,0.792,0.525,-0.299,-80.829,60.666,62.227
1746585250.94,-0.108,0.037,0.043,0.908,0.930,-0.281,-80.600,55.351,56.021
1746585250.96,-0.047,-0.012,0.106,1.022,1.431,-0.228,-80.172,50.484,49.702
1746585250.98,-0.029,-0.033,0.137,1.209,1.502,-0.093,-79.467,46.216,43.600
1746585251.00,-0.005,-0.006,-0.080,1.090,1.018,-0.061,-78.541,42.532,38.358
1746585251.02,-0.050,0.005,-0.059,0.950,0.566,-0.195,-77.789,39.393,34.253
1746585251.04,-0.023,-0.019,-0.007,1.310,0.698,-0.253,-76.940,35.661,29.731
1746585251.06,0.049,-0.016,-0.002,1.458,1.070,-0.067,-75.707,32.238,25.192
1746585251.08,0.064,0.027,-0.061,1.205,0.905,0.134,-74.367,30.549,22.223
1746585251.10,0.053,0.026,-0.089,0.889,0.838,0.191,-73.249,30.046,20.733
1746585251.12,0.035,-0.046,0.087,0.963,1.155,0.112,-72.278,30.073,19.511
1746585251.14,-0.007,-0.103,-0.050,1.148,0.545,0.093,-71.161,29.510,17.855
1746585251.16,-0.003,-0.089,-0.103,1.065,0.399,0.253,-69.944,28.663,16.482
1746585251.18,0.044,-0.031,-0.035,0.801,0.485,0.254,-68.861,28.597,15.821
1746585251.20,0.021,-0.014,-0.004,0.785,0.568,0.125,-67.994,28.571,15.160
1746585251.22,0.048,-0.087,-0.062,1.033,0.356,0.298,-66.974,28.399,14.363
1746585251.24,0.057,-0.109,-0.100,1.037,0.262,0.510,-65.705,28.353,13.990
1746585251.26,0.094,-0.053,0.081,1.006,0.420,0.586,-64.372,28.807,13.983
1746585251.28,0.019,-0.032,-0.035,0.822,0.167,0.535,-63.154,29.206,14.133
1746585251.30,0.010,-0.084,-0.010,0.826,0.457,0.607,-62.017,29.719,14.313
1746585251.32,0.155,-0.106,0.022,0.795,0.278,0.734,-60.852,30.580,14.779
1746585251.34,0.201,-0.020,0.051,1.225,-0.129,0.606,-59.465,30.880,14.985
1746585251.36,-0.005,0.103,0.065,1.337,-0.625,0.252,-57.926,29.849,14.309
1746585251.38,-0.180,0.035,-0.149,1.021,-0.745,0.463,-56.545,28.423,13.706
1746585251.40,-0.067,-0.011,-0.058,0.800,0.071,0.640,-55.333,28.208,13.943
1746585251.42,-0.094,0.005,0.057,0.849,-0.055,0.505,-54.225,28.509,14.329
1746585251.44,-0.140,0.046,0.071,1.225,-0.189,0.415,-52.945,28.209,14.235
1746585251.46,-0.168,0.039,0.000,1.405,-0.200,0.449,-51.330,27.554,13.826
1746585251.48,-0.015,0.008,-0.191,0.969,0.230,0.432,-49.867,27.310,13.627
1746585251.50,0.164,0.005,0.006,0.631,0.433,0.414,-48.868,27.834,13.738
1746585251.52,0.090,0.003,0.160,0.801,-0.100,0.427,-47.959,28.077,13.925
1746585251.54,0.016,-0.012,0.156,1.054,-0.199,0.471,-46.758,27.787,13.899
1746585251.56,0.010,-0.084,0.052,1.084,-0.061,0.583,-45.393,27.607,13.918
1746585251.58,0.114,-0.081,-0.128,1.019,0.024,0.555,-44.007,27.582,14.007
1746585251.60,0.135,-0.007,0.016,0.813,-0.016,0.509,-42.800,27.690,14.117
1746585251.62,-0.048,-0.038,0.041,0.725,-0.094,0.552,-41.754,27.746,14.333
1746585251.64,-0.067,-0.094,-0.016,0.752,-0.115,0.646,-40.691,27.771,14.652
1746585251.66,-0.037,-0.052,0.013,0.767,-0.176,0.591,-39.613,27.815,15.017
1746585251.68,-0.073,0.032,-0.042,0.912,-0.031,0.459,-38.475,27.744,15.161
1746585251.70,-0.154,0.053,-0.049,0.800,0.149,0.404,-37.369,27.785,15.131
1746585251.72,-0.162,0.071,-0.004,0.861,0.198,0.434,-36.325,28.018,15.147
1746585251.74,-0.129,0.089,-0.030,0.940,0.046,0.460,-35.167,28.135,15.142
1746585251.76,-0.047,0.021,0.031,1.084,-0.193,0.374,-33.930,27.936,15.023
1746585251.78,0.046,-0.093,-0.025,1.187,0.024,0.177,-32.610,27.599,14.654
1746585251.80,-0.041,-0.067,-0.001,1.040,0.143,0.092,-31.416,27.429,14.078
1746585251.82,-0.070,0.049,-0.021,0.880,0.197,0.350,-30.323,27.423,13.768
1746585251.84,0.011,0.158,0.080,0.871,0.046,0.429,-29.238,27.618,13.734
1746585251.86,-0.040,0.013,0.073,0.872,-0.288,0.395,-28.122,27.423,13.672
1746585251.88,0.055,-0.165,0.000,0.843,0.020,0.369,-27.054,27.209,13.561
1746585251.90,-0.035,-0.100,-0.098,0.746,0.078,0.334,-26.072,27.230,13.510
1746585251.92,-0.143,0.100,-0.029,0.815,0.215,0.426,-25.087,27.384,13.456
1746585251.94,-0.027,0.113,0.023,0.818,0.071,0.419,-24.029,27.603,13.464
1746585251.96,0.073,-0.007,0.010,0.911,-0.060,0.296,-22.961,27.554,13.327
1746585251.98,0.116,-0.152,-0.073,0.924,0.080,0.244,-21.886,27.470,13.032
1746585252.00,-0.038,0.021,-0.103,0.875,0.091,0.394,-20.794,27.494,12.851
1746585252.02,-0.136,0.121,-0.036,0.835,0.274,0.410,-19.724,27.687,12.788
1746585252.04,-0.044,-0.054,-0.010,0.809,0.257,0.426,-18.666,28.022,12.760
1746585252.06,0.023,-0.118,-0.013,0.774,0.033,0.336,-17.657,28.170,12.694
1746585252.08,0.038,-0.166,-0.125,0.757,-0.096,0.280,-16.730,28.055,12.534
1746585252.10,0.026,-0.031,-0.117,0.800,-0.187,0.285,-15.800,27.854,12.344
1746585252.12,-0.112,0.030,0.054,0.837,-0.077,0.335,-14.801,27.659,12.188
1746585252.14,-0.144,-0.007,0.056,0.801,0.164,0.408,-13.756,27.657,12.076
1746585252.16,-0.045,-0.070,0.091,0.696,0.302,0.478,-12.772,28.030,12.114
1746585252.18,0.059,-0.003,0.013,0.602,0.259,0.531,-11.846,28.376,12.222
1746585252.20,0.059,0.004,0.024,0.556,0.348,0.662,-10.949,28.768,12.451
1746585252.22,-0.004,0.030,-0.007,0.593,0.417,0.762,-9.983,29.291,12.799
1746585252.24,-0.034,0.041,-0.032,0.612,0.342,0.708,-8.965,29.802,13.149
1746585252.26,-0.029,-0.036,-0.112,0.665,0.248,0.597,-7.958,30.166,13.338
1746585252.28,-0.002,-0.038,-0.085,0.630,0.133,0.497,-7.020,30.400,13.439
1746585252.30,-0.029,0.097,-0.150,0.719,0.091,0.439,-6.087,30.520,13.442
1746585252.32,-0.128,0.065,-0.116,0.770,0.137,0.282,-5.140,30.634,13.279
1746585252.34,0.044,-0.013,-0.070,0.799,0.064,0.251,-4.208,30.734,12.992
1746585252.36,0.037,-0.065,-0.008,0.759,0.099,0.251,-3.298,30.796,12.697
1746585252.38,-0.002,-0.013,-0.043,0.725,0.120,0.251,-2.426,30.917,12.429
1746585252.40,-0.030,0.040,-0.009,0.686,0.144,0.191,-1.596,31.060,12.164
1746585252.42,0.052,-0.034,-0.081,0.680,0.097,0.162,-0.834,31.206,11.845
1746585252.44,0.103,-0.051,-0.099,0.652,-0.012,0.135,-0.090,31.260,11.508
1746585252.46,0.081,-0.050,-0.092,0.551,-0.058,0.126,0.592,31.229,11.186
1746585252.48,-0.021,-0.031,0.007,0.389,-0.067,0.105,1.120,31.148,10.952
1746585252.50,-0.052,-0.015,-0.034,0.427,0.008,0.093,1.571,31.116,10.710
1746585252.52,-0.007,-0.045,-0.054,0.387,-0.048,0.062,1.995,31.122,10.446
1746585252.54,0.112,0.028,-0.154,0.366,-0.235,0.092,2.416,30.945,10.187
1746585252.56,0.122,-0.000,-0.090,0.322,-0.225,0.172,2.834,30.685,10.022
1746585252.58,-0.047,0.038,-0.043,0.337,-0.052,0.154,3.247,30.545,9.889
1746585252.60,-0.104,0.003,-0.039,0.352,0.027,0.089,3.658,30.548,9.720
1746585252.62,0.067,-0.030,-0.041,0.316,0.002,0.083,4.038,30.578,9.516
1746585252.64,0.087,-0.038,-0.060,0.248,-0.005,0.117,4.378,30.579,9.364
1746585252.66,0.018,-0.010,-0.098,0.187,0.051,0.118,4.657,30.586,9.265
1746585252.68,-0.006,0.016,-0.060,0.128,0.100,0.124,4.879,30.677,9.208
1746585252.70,0.044,0.017,-0.051,0.104,0.079,0.115,5.064,30.781,9.187
1746585252.72,0.065,-0.024,-0.061,0.027,0.030,0.100,5.196,30.842,9.172
1746585252.74,0.070,0.031,-0.069,-0.049,0.051,0.097,5.236,30.879,9.194
1746585252.76,0.021,0.037,-0.155,-0.114,-0.019,0.018,5.197,30.899,9.223
1746585252.78,0.019,-0.049,-0.126,-0.222,-0.138,-0.101,5.007,30.803,9.197
1746585252.80,0.182,-0.088,-0.202,-0.351,-0.310,-0.178,4.637,30.543,9.172
1746585252.82,0.146,-0.072,-0.264,-0.485,-0.339,-0.245,4.108,30.165,9.131
1746585252.84,0.045,-0.081,-0.243,-0.729,-0.221,-0.239,3.371,29.808,9.164
1746585252.86,0.073,-0.021,-0.282,-0.956,-0.123,-0.203,2.410,29.614,9.371
1746585252.88,0.163,-0.002,-0.252,-1.107,-0.121,-0.159,1.277,29.462,9.731
1746585252.90,0.090,-0.015,-0.150,-1.213,-0.029,-0.211,0.023,29.367,10.181
1746585252.92,-0.036,0.024,-0.150,-1.239,0.024,-0.395,-1.375,29.351,10.520
1746585252.94,0.092,-0.089,-0.164,-1.351,-0.013,-0.405,-2.883,29.367,10.771
1746585252.96,0.107,-0.024,-0.185,-1.505,-0.066,-0.392,-4.526,29.353,11.149
1746585252.98,0.053,0.041,-0.164,-1.539,-0.059,-0.462,-6.281,29.283,11.587
1746585253.00,-0.017,-0.028,-0.060,-1.528,-0.045,-0.577,-8.104,29.283,11.928
1746585253.02,-0.024,-0.059,-0.065,-1.536,-0.133,-0.695,-9.988,29.225,12.122
1746585253.04,0.035,-0.095,-0.087,-1.524,-0.258,-0.719,-11.909,29.024,12.279
1746585253.05,0.026,-0.059,-0.073,-1.474,-0.247,-0.816,-13.824,28.743,12.347
1746585253.07,-0.028,-0.078,-0.053,-1.528,-0.168,-0.819,-15.766,28.481,12.368
1746585253.09,-0.046,-0.083,0.018,-1.584,-0.066,-0.792,-17.774,28.407,12.449
1746585253.11,0.080,-0.149,-0.067,-1.639,-0.161,-0.789,-19.832,28.286,12.586
1746585253.13,0.152,-0.151,-0.042,-1.491,-0.230,-0.813,-21.837,28.111,12.685
1746585253.15,0.088,-0.147,-0.077,-1.519,-0.401,-0.940,-23.811,27.684,12.626
1746585253.17,-0.056,-0.160,0.074,-1.516,-0.245,-0.772,-25.830,27.262,12.612
1746585253.19,-0.071,-0.205,-0.007,-1.541,-0.008,-0.653,-27.737,27.171,12.780
1746585253.21,-0.115,-0.186,-0.051,-1.476,0.110,-0.671,-29.607,27.294,13.004
1746585253.23,-0.113,-0.120,-0.011,-1.532,0.203,-0.792,-31.505,27.511,13.138
1746585253.25,-0.097,-0.071,0.025,-1.560,0.280,-0.905,-33.537,27.761,13.190
1746585253.27,-0.048,-0.053,-0.021,-1.576,0.345,-0.944,-35.606,28.052,13.162
1746585253.29,0.007,-0.073,0.077,-1.411,0.235,-0.908,-37.627,28.341,13.114
1746585253.31,0.068,-0.102,-0.045,-1.375,-0.066,-0.846,-39.477,28.283,13.032
1746585253.33,0.105,-0.087,-0.004,-1.587,0.028,-0.815,-41.411,28.212,13.101
1746585253.35,0.033,-0.087,0.068,-1.683,0.157,-0.780,-43.502,28.396,13.331
1746585253.37,-0.014,-0.079,0.067,-1.634,0.324,-0.666,-45.569,28.854,13.703
1746585253.39,-0.018,-0.050,-0.020,-1.594,0.247,-0.596,-47.523,29.500,14.198
1746585253.41,-0.013,-0.007,-0.074,-1.478,0.161,-0.675,-49.402,30.002,14.563
1746585253.43,0.049,-0.016,-0.025,-1.525,0.032,-0.772,-51.288,30.291,14.779
1746585253.45,0.061,-0.054,0.035,-1.648,-0.231,-0.795,-53.308,30.350,15.002
1746585253.47,0.033,-0.077,0.055,-1.562,-0.257,-0.756,-55.365,30.299,15.296
1746585253.49,0.005,-0.069,-0.051,-1.328,-0.447,-0.700,-57.196,30.083,15.493
1746585253.51,-0.035,-0.028,-0.045,-1.381,-0.635,-0.712,-58.921,29.549,15.621
1746585253.53,-0.068,-0.036,-0.002,-1.393,-0.577,-0.753,-60.727,28.928,15.717
1746585253.55,-0.065,-0.089,-0.024,-1.275,-0.506,-0.660,-62.457,28.317,15.719
1746585253.57,0.007,-0.136,-0.011,-1.328,-0.556,-0.366,-64.039,28.042,16.077
1746585253.59,0.050,-0.157,0.082,-1.486,-0.645,0.049,-65.540,28.635,17.499
1746585253.61,0.041,-0.148,0.036,-1.576,-0.717,0.309,-66.961,30.282,20.136
1746585253.63,0.013,-0.135,0.003,-1.508,-0.833,0.262,-68.295,32.378,23.363
1746585253.65,-0.002,-0.120,0.008,-1.365,-0.787,-0.017,-69.584,34.088,26.222
1746585253.67,-0.013,-0.072,0.024,-1.286,-0.584,-0.276,-70.925,35.294,28.313
1746585253.69,-0.061,-0.024,0.008,-1.300,-0.676,-0.353,-72.328,36.208,30.026
1746585253.71,-0.059,0.005,0.049,-1.419,-0.675,-0.173,-73.774,37.659,32.375
1746585253.73,-0.050,0.009,-0.002,-1.288,-0.486,0.031,-75.035,40.345,35.849
1746585253.75,-0.100,-0.031,-0.051,-1.099,-0.557,0.055,-76.001,43.486,39.676
1746585253.77,-0.125,-0.032,-0.033,-0.924,-0.616,-0.080,-76.830,46.157,43.128
1746585253.79,-0.124,-0.015,-0.039,-0.896,-0.522,-0.124,-77.617,48.371,46.076
1746585253.81,-0.079,-0.042,0.077,-0.959,-0.389,0.012,-78.355,51.459,49.778
1746585253.83,-0.051,-0.041,0.095,-1.014,-0.146,0.121,-78.952,55.913,54.637
1746585253.85,-0.058,-0.024,0.036,-1.042,0.104,0.130,-79.438,61.687,60.519
1746585253.87,-0.052,-0.019,0.011,-0.852,0.067,0.011,-79.830,67.400,66.205
1746585253.89,-0.043,0.003,-0.014,-0.607,-0.106,-0.068,-80.158,71.646,70.546
1746585253.91,-0.018,0.000,-0.002,-0.631,0.030,-0.019,-80.406,75.308,74.329
1746585253.93,-0.010,-0.023,-0.032,-0.680,0.147,0.017,-80.565,79.914,78.883
1746585253.95,-0.019,-0.018,-0.093,-0.440,0.125,-0.012,-80.654,84.033,82.881
1746585253.97,-0.019,0.014,-0.121,-0.172,-0.026,-0.006,-80.700,86.108,84.928
1746585253.99,0.038,0.005,0.001,-0.144,-0.059,0.065,-80.680,87.041,85.932
1746585254.01,0.052,-0.012,0.077,-0.221,-0.088,0.133,-80.576,88.236,87.219
1746585254.03,0.026,-0.030,0.060,-0.359,-0.201,0.202,-80.388,90.030,89.196
1746585254.05,-0.033,-0.041,0.012,-0.436,-0.366,0.238,-80.124,92.392,91.925
1746585254.07,-0.077,-0.014,0.002,-0.355,-0.386,0.220,-79.830,94.475,94.500
1746585254.09,-0.109,0.055,0.013,-0.267,-0.218,0.158,-79.579,95.918,96.319
1746585254.11,-0.155,0.089,-0.013,-0.223,-0.051,0.043,-79.428,97.199,97.773
1746585254.13,-0.151,0.039,0.026,-0.099,0.070,-0.046,-79.413,98.214,98.792
1746585254.15,-0.101,0.016,0.046,-0.073,0.184,-0.066,-79.471,98.865,99.299
1746585254.17,-0.047,0.021,-0.018,-0.092,0.107,-0.028,-79.511,99.604,99.867
1746585254.19,-0.044,0.017,-0.080,-0.001,-0.034,-0.018,-79.521,100.001,100.245
1746585254.21,-0.042,0.004,0.009,0.084,0.106,-0.018,-79.553,99.747,99.958
1746585254.23,-0.011,-0.001,0.034,0.058,0.175,0.015,-79.583,99.489,99.514
1746585254.25,0.002,0.022,-0.043,0.033,0.069,0.017,-79.577,99.405,99.277
1746585254.27,-0.015,0.016,-0.033,0.118,-0.026,0.022,-79.568,98.925,98.782
1746585254.29,-0.043,-0.001,0.073,0.058,0.144,0.027,-79.566,98.317,98.100
1746585254.31,-0.064,-0.007,0.059,-0.036,0.152,0.007,-79.545,98.525,98.107
1746585254.33,-0.070,-0.017,-0.012,0.048,0.050,-0.023,-79.557,98.649,98.130
1746585254.35,-0.017,-0.013,0.005,0.092,0.097,0.019,-79.580,98.183,97.581
1746585254.37,0.006,0.015,0.011,0.004,0.113,0.034,-79.557,98.053,97.308
1746585254.39,-0.020,0.034,-0.047,0.055,-0.065,0.013,-79.539,98.040,97.263
1746585254.41,-0.033,0.012,-0.018,0.093,0.025,-0.006,-79.562,97.494,96.758
1746585254.43,-0.016,-0.008,0.034,0.097,0.082,0.012,-79.579,97.008,96.179
1746585254.45,-0.006,-0.026,0.010,0.106,-0.026,0.009,-79.583,96.436,95.559
1746585254.47,0.003,-0.017,0.016,0.120,-0.079,0.038,-79.583,95.576,94.757
1746585254.49,-0.026,0.018,0.018,0.103,-0.093,0.038,-79.567,94.713,93.970
1746585254.51,-0.076,0.031,-0.012,0.154,-0.151,0.009,-79.560,93.901,93.292
1746585254.53,-0.084,0.019,-0.001,0.266,-0.115,-0.022,-79.583,92.502,92.030
1746585254.55,-0.056,-0.014,0.050,0.329,-0.083,-0.016,-79.616,90.548,90.150
1746585254.57,-0.029,-0.021,0.065,0.289,-0.121,0.023,-79.614,88.550,88.233
1746585254.59,-0.040,0.002,0.057,0.252,-0.201,0.038,-79.586,86.729,86.567
1746585254.61,-0.100,0.025,0.051,0.275,-0.209,0.004,-79.561,84.899,84.961
1746585254.63,-0.127,0.019,0.096,0.351,-0.023,-0.038,-79.552,82.845,83.015
1746585254.65,-0.135,0.018,0.108,0.396,0.160,-0.064,-79.547,80.598,80.639
1746585254.67,-0.124,0.021,0.092,0.437,0.172,-0.116,-79.559,78.169,77.962
1746585254.69,-0.099,0.017,0.079,0.483,0.150,-0.170,-79.600,75.362,74.927
1746585254.71,-0.081,0.012,0.082,0.561,0.223,-0.199,-79.640,72.138,71.439
1746585254.73,-0.066,0.011,0.057,0.710,0.406,-0.190,-79.610,68.385,67.267
1746585254.75,-0.049,-0.007,0.008,0.908,0.694,-0.192,-79.429,63.951,62.126
1746585254.77,-0.077,-0.034,0.071,0.994,0.816,-0.276,-79.140,59.070,56.248
1746585254.79,-0.103,-0.008,0.046,1.055,0.559,-0.294,-78.774,53.948,50.218
1746585254.81,-0.118,0.005,0.044,0.974,0.587,-0.286,-78.298,49.000,44.540
1746585254.83,-0.117,-0.016,0.049,0.955,0.648,-0.197,-77.776,45.084,39.790
1746585254.85,-0.043,-0.001,-0.112,1.055,0.768,-0.120,-77.048,41.754,35.581
1746585254.87,-0.037,0.016,0.063,1.115,0.741,-0.196,-76.231,38.720,31.544
1746585254.89,0.026,0.018,-0.059,1.319,0.498,-0.117,-75.242,35.524,27.503
1746585254.91,0.079,-0.016,-0.197,1.374,0.792,0.092,-73.954,32.982,24.168
1746585254.93,0.056,-0.052,-0.090,1.274,1.292,0.115,-72.608,31.869,21.761
1746585254.95,0.093,-0.104,0.075,1.342,1.159,0.187,-71.274,31.377,19.652
1746585254.97,0.130,-0.121,-0.216,1.003,-0.130,0.455,-69.853,30.752,18.403
1746585254.99,0.110,-0.066,-0.008,0.710,0.711,0.474,-68.811,31.048,18.483
1746585255.01,0.110,-0.083,0.059,1.090,0.880,0.328,-67.673,31.656,18.034
1746585255.03,0.109,-0.068,0.061,0.975,0.241,0.375,-66.456,31.637,17.262
1746585255.05,0.104,-0.057,-0.088,0.897,-0.551,0.515,-65.269,31.150,16.958
1746585255.07,-0.011,-0.027,-0.135,0.952,-0.449,0.479,-64.089,30.417,16.906
1746585255.09,-0.069,-0.027,0.013,0.996,0.474,0.406,-62.855,30.200,16.579
1746585255.11,-0.027,-0.059,-0.016,0.886,0.231,0.448,-61.695,30.399,16.320
1746585255.13,0.047,-0.036,0.128,1.233,0.299,0.469,-60.416,30.421,16.026
1746585255.15,-0.018,-0.004,0.021,1.114,-0.173,0.591,-58.885,30.104,15.626
1746585255.17,-0.059,-0.035,-0.011,0.689,0.398,0.647,-57.654,30.431,15.836
1746585255.19,0.116,-0.064,-0.066,0.382,0.422,0.656,-56.762,31.462,16.452
1746585255.21,0.138,0.020,0.066,0.626,-0.137,0.624,-55.930,32.185,17.115
1746585255.23,0.015,0.104,-0.054,1.147,-0.239,0.348,-54.767,31.822,17.013
1746585255.25,-0.070,0.084,0.054,1.450,-0.357,0.220,-53.269,30.803,16.045
1746585255.27,-0.258,-0.033,-0.116,1.130,-0.271,0.504,-51.805,29.788,15.364
1746585255.29,-0.117,-0.080,-0.116,0.618,0.504,0.706,-50.572,30.095,15.551
1746585255.31,-0.010,-0.089,0.193,0.544,0.264,0.599,-49.693,31.128,16.197
1746585255.33,-0.043,-0.010,-0.023,0.938,-0.196,0.510,-48.615,31.148,16.312
1746585255.35,0.046,0.118,0.187,1.072,0.057,0.405,-47.385,31.008,16.179
1746585255.37,-0.046,0.094,-0.211,1.069,-0.256,0.457,-46.036,30.468,15.851
1746585255.39,0.051,0.057,0.063,0.738,0.219,0.585,-44.873,30.615,15.953
1746585255.41,-0.031,-0.006,0.030,0.851,-0.124,0.511,-43.790,30.732,16.182
1746585255.43,-0.053,-0.050,0.009,0.946,-0.024,0.521,-42.592,30.584,16.215
1746585255.45,0.018,-0.010,0.071,0.863,-0.038,0.513,-41.406,30.596,16.267
1746585255.47,0.052,0.069,-0.046,0.881,-0.084,0.517,-40.226,30.465,16.279
1746585255.49,0.003,0.068,-0.040,0.586,0.290,0.543,-39.188,30.672,16.454
1746585255.51,-0.087,0.027,-0.009,0.628,0.182,0.486,-38.343,31.104,16.753
1746585255.53,-0.055,0.041,0.001,0.919,0.089,0.398,-37.318,31.227,16.744
1746585255.55,-0.052,-0.015,0.071,1.053,-0.183,0.426,-36.107,31.056,16.540
1746585255.57,-0.050,-0.091,-0.041,0.990,-0.178,0.382,-34.842,30.645,16.337
1746585255.59,-0.008,-0.026,-0.072,0.836,0.133,0.290,-33.751,30.499,16.104
1746585255.61,-0.075,0.056,-0.035,0.831,0.204,0.296,-32.788,30.568,15.907
1746585255.63,-0.049,0.036,0.038,0.954,0.029,0.322,-31.731,30.620,15.680
1746585255.65,-0.026,-0.029,0.047,0.994,-0.403,0.374,-30.550,30.241,15.434
1746585255.67,-0.011,-0.077,-0.048,0.879,-0.058,0.378,-29.413,29.800,15.276
1746585255.69,-0.111,-0.087,-0.105,0.790,0.191,0.326,-28.382,29.878,15.163
1746585255.71,-0.130,-0.066,0.018,0.871,0.037,0.273,-27.400,29.911,14.970
1746585255.73,0.024,-0.061,0.062,0.919,-0.148,0.261,-26.363,29.749,14.699
1746585255.75,0.051,-0.055,0.093,1.028,-0.242,0.364,-25.206,29.395,14.418
1746585255.77,-0.013,-0.080,-0.033,0.877,0.090,0.442,-24.024,29.207,14.266
1746585255.79,0.014,-0.002,0.034,0.761,0.196,0.523,-22.938,29.435,14.287
1746585255.81,0.052,0.030,0.093,0.711,-0.041,0.514,-21.934,29.549,14.387
1746585255.83,0.185,-0.026,0.028,0.762,-0.124,0.604,-20.886,29.499,14.521
1746585255.85,0.081,-0.051,-0.020,0.775,-0.167,0.578,-19.788,29.395,14.654
1746585255.87,-0.026,-0.070,-0.038,0.702,-0.088,0.620,-18.716,29.303,14.811
1746585255.89,-0.022,-0.060,-0.039,0.750,0.045,0.661,-17.627,29.362,15.054
1746585255.91,-0.040,-0.063,-0.004,0.846,0.049,0.600,-16.478,29.488,15.217
1746585255.93,-0.108,-0.093,0.032,0.847,-0.058,0.485,-15.313,29.503,15.240
1746585255.94,-0.028,-0.072,-0.018,0.846,-0.148,0.368,-14.243,29.393,15.135
1746585255.97,0.086,-0.012,-0.090,0.897,-0.324,0.370,-13.170,29.096,14.979
1746585255.99,0.102,-0.001,-0.100,0.810,-0.286,0.536,-12.076,28.700,14.910
1746585256.01,-0.005,0.018,0.007,0.778,-0.154,0.586,-10.952,28.462,15.025
1746585256.02,-0.105,-0.050,-0.020,0.810,0.049,0.544,-9.845,28.450,15.116
1746585256.04,0.037,-0.056,-0.009,0.786,-0.086,0.498,-8.757,28.478,15.131
1746585256.06,0.051,0.059,-0.030,0.757,-0.184,0.534,-7.704,28.333,15.172
1746585256.08,0.007,0.111,-0.182,0.778,-0.046,0.468,-6.647,28.164,15.201
1746585256.10,-0.095,0.004,-0.111,0.684,0.225,0.453,-5.668,28.267,15.217
1746585256.12,-0.041,0.003,-0.053,0.572,0.367,0.444,-4.778,28.623,15.263
1746585256.14,-0.066,0.009,0.021,0.509,0.422,0.461,-4.002,29.101,15.366
1746585256.16,-0.016,0.114,-0.111,0.506,0.332,0.370,-3.246,29.572,15.423
1746585256.18,0.016,0.125,-0.148,0.453,0.112,0.288,-2.603,29.809,15.425
1746585256.20,0.148,0.048,-0.203,0.469,-0.018,0.252,-1.996,29.852,15.372
1746585256.22,0.046,-0.017,-0.098,0.502,0.015,0.203,-1.387,29.820,15.254
1746585256.24,-0.053,0.030,-0.000,0.481,0.213,0.146,-0.797,29.932,15.080
1746585256.26,-0.096,0.073,-0.044,0.476,0.350,0.111,-0.246,30.273,14.852
1746585256.28,-0.035,0.102,-0.084,0.404,0.257,0.053,0.235,30.638,14.601
1746585256.30,0.101,0.041,-0.191,0.391,0.051,-0.001,0.636,30.814,14.306
1746585256.32,0.143,0.002,-0.125,0.315,-0.041,0.031,0.991,30.800,14.043
1746585256.34,-0.008,0.031,-0.070,0.280,0.088,0.037,1.299,30.813,13.832
1746585256.36,-0.143,0.078,-0.063,0.248,0.163,-0.065,1.562,30.978,13.600
1746585256.38,0.057,0.022,-0.085,0.179,0.048,-0.113,1.707,31.131,13.318
1746585256.40,0.123,0.001,-0.159,0.141,-0.111,-0.191,1.781,31.086,13.014
1746585256.42,0.029,0.003,-0.144,0.061,-0.086,-0.264,1.743,30.973,12.660
1746585256.44,0.006,-0.052,-0.204,-0.025,-0.011,-0.359,1.580,30.928,12.284
1746585256.46,0.044,-0.039,-0.216,-0.210,-0.059,-0.478,1.230,30.927,11.894
1746585256.48,0.270,-0.142,-0.251,-0.335,-0.122,-0.508,0.673,30.850,11.517
1746585256.50,0.229,-0.082,-0.186,-0.554,-0.081,-0.496,-0.057,30.698,11.228
1746585256.52,0.097,-0.021,-0.169,-0.749,0.073,-0.526,-0.990,30.690,11.073
1746585256.54,0.106,-0.029,-0.221,-0.956,0.109,-0.531,-2.143,30.796,11.013
1746585256.56,0.230,-0.065,-0.254,-1.136,-0.014,-0.500,-3.473,30.861,11.107
1746585256.58,0.107,-0.041,-0.194,-1.263,0.024,-0.540,-4.954,30.864,11.291
1746585256.60,0.049,-0.081,-0.131,-1.337,-0.028,-0.621,-6.563,30.908,11.473
1746585256.62,-0.014,-0.071,-0.111,-1.453,-0.053,-0.704,-8.316,30.889,11.629
1746585256.64,0.041,-0.092,-0.190,-1.536,-0.019,-0.711,-10.205,30.882,11.815
1746585256.66,0.109,-0.064,-0.124,-1.633,-0.167,-0.681,-12.161,30.842,12.075
1746585256.68,0.085,-0.074,-0.027,-1.655,-0.198,-0.627,-14.175,30.686,12.443
1746585256.70,-0.016,-0.087,0.037,-1.666,-0.158,-0.615,-16.169,30.609,12.824
1746585256.72,-0.078,-0.175,-0.099,-1.737,-0.004,-0.544,-18.173,30.606,13.306
1746585256.74,0.056,-0.115,-0.028,-1.753,0.207,-0.548,-20.219,30.933,13.893
1746585256.76,0.034,-0.063,0.014,-1.607,0.063,-0.709,-22.221,31.243,14.360
1746585256.78,-0.087,-0.078,0.069,-1.477,-0.044,-0.804,-24.197,31.316,14.597
1746585256.80,-0.118,-0.136,-0.045,-1.443,0.122,-0.783,-26.065,31.373,14.764
1746585256.82,-0.141,-0.092,0.066,-1.350,0.297,-0.809,-27.941,31.689,14.942
1746585256.84,-0.087,-0.080,-0.084,-1.215,0.202,-0.907,-29.659,31.919,14.946
1746585256.86,-0.045,-0.079,0.001,-1.185,0.256,-1.010,-31.422,32.078,14.871
1746585256.88,-0.073,-0.109,-0.042,-1.175,0.058,-1.155,-33.199,32.029,14.535
1746585256.90,-0.100,-0.120,0.037,-1.240,0.267,-1.180,-35.095,31.907,14.118
1746585256.92,0.019,-0.094,-0.003,-1.304,0.415,-0.993,-36.985,32.110,13.861
1746585256.94,0.098,-0.032,-0.010,-1.355,0.431,-0.886,-38.837,32.544,13.861
1746585256.96,0.089,-0.045,0.001,-1.393,0.412,-0.885,-40.709,33.002,13.958
1746585256.98,0.092,-0.128,0.010,-1.272,0.456,-0.826,-42.530,33.542,14.090
1746585257.00,0.056,-0.194,-0.044,-1.242,0.334,-0.794,-44.217,34.012,14.229
1746585257.02,0.022,-0.201,-0.044,-1.261,0.259,-0.814,-45.914,34.395,14.408
1746585257.04,0.042,-0.157,-0.039,-1.369,0.177,-0.841,-47.680,34.723,14.586
1746585257.06,0.040,-0.118,0.059,-1.403,0.154,-0.866,-49.555,35.041,14.751
1746585257.08,0.062,-0.100,-0.022,-1.339,0.010,-0.780,-51.382,35.289,14.947
1746585257.10,0.160,-0.096,-0.109,-1.358,-0.152,-0.639,-53.096,35.521,15.328
1746585257.12,0.159,-0.069,-0.009,-1.403,-0.405,-0.632,-54.799,35.672,15.910
1746585257.14,0.075,-0.023,0.028,-1.299,-0.679,-0.674,-56.495,35.489,16.439
1746585257.16,-0.019,0.007,-0.017,-1.257,-0.787,-0.754,-58.138,34.875,16.741
1746585257.18,-0.050,-0.020,0.002,-1.462,-0.374,-0.755,-59.914,34.440,17.061
1746585257.20,-0.024,-0.091,-0.033,-1.465,-0.074,-0.593,-61.753,34.803,17.698
1746585257.22,-0.001,-0.131,-0.028,-1.379,-0.494,-0.258,-63.362,35.565,18.859
1746585257.24,0.004,-0.117,0.062,-1.419,-1.051,0.062,-64.705,36.388,20.799
1746585257.26,0.048,-0.072,0.010,-1.567,-1.105,0.185,-65.959,37.630,23.557
1746585257.28,0.028,-0.082,0.026,-1.584,-1.111,0.017,-67.295,39.246,26.693
1746585257.30,-0.037,-0.104,0.042,-1.508,-1.047,-0.273,-68.752,40.533,29.410
1746585257.32,-0.011,-0.086,-0.039,-1.377,-0.811,-0.427,-70.269,41.500,31.597
1746585257.34,0.021,-0.047,-0.052,-1.412,-0.703,-0.323,-71.730,42.754,33.810
1746585257.36,-0.014,-0.054,0.042,-1.443,-0.863,-0.236,-73.138,44.819,36.884
1746585257.38,-0.075,-0.055,-0.077,-1.314,-1.137,-0.215,-74.414,46.853,40.217
1746585257.40,-0.053,-0.069,-0.067,-1.278,-1.055,-0.081,-75.534,49.259,44.016
1746585257.42,-0.096,-0.055,0.000,-1.294,-0.998,0.123,-76.438,52.723,48.789
1746585257.44,-0.127,-0.021,0.049,-1.273,-0.872,0.157,-77.136,57.251,54.549
1746585257.46,-0.115,-0.011,0.085,-1.146,-0.609,0.004,-77.752,61.977,60.269
1746585257.48,-0.063,-0.047,0.157,-1.011,-0.262,-0.148,-78.367,66.504,65.407
1746585257.50,-0.052,-0.064,0.116,-0.994,-0.036,-0.108,-78.932,71.357,70.513
1746585257.52,-0.081,-0.024,-0.018,-1.018,0.002,0.010,-79.297,76.994,76.264
1746585257.54,-0.074,0.008,-0.048,-0.951,-0.066,0.031,-79.465,83.022,82.419
1746585257.56,-0.053,-0.013,-0.003,-0.773,-0.064,0.033,-79.509,88.181,87.768
1746585257.58,-0.045,-0.015,0.034,-0.624,0.160,0.050,-79.459,92.536,92.153
1746585257.60,-0.040,0.005,0.006,-0.377,0.285,0.086,-79.341,95.897,95.295
1746585257.62,-0.059,0.047,-0.031,-0.046,0.123,0.174,-79.171,97.291,96.460
1746585257.64,-0.137,0.092,-0.072,0.032,0.229,0.257,-78.918,97.147,96.170
1746585257.66,-0.155,0.088,0.012,-0.039,0.805,0.183,-78.653,97.609,96.037
1746585257.68,-0.113,0.007,0.062,0.116,0.848,-0.037,-78.564,98.469,95.876
1746585257.70,-0.039,-0.074,0.077,0.255,0.358,-0.188,-78.750,98.049,94.745
1746585257.72,0.050,-0.072,0.072,-0.108,0.117,-0.123,-78.954,97.835,94.277
1746585257.74,0.141,0.012,-0.032,-0.430,-0.088,0.001,-78.964,99.679,96.117
1746585257.76,0.110,0.042,-0.110,-0.248,-0.358,0.015,-78.869,101.477,98.230
1746585257.78,0.005,0.004,-0.029,-0.044,-0.272,0.012,-78.829,101.802,98.955
1746585257.80,-0.068,-0.012,0.044,-0.098,-0.114,0.012,-78.800,101.907,99.268
1746585257.82,-0.069,0.033,-0.004,-0.164,-0.190,-0.041,-78.778,102.540,100.078
1746585257.84,-0.011,0.067,-0.055,-0.106,-0.201,-0.081,-78.818,103.213,101.001
1746585257.86,0.049,0.028,0.005,0.013,-0.243,-0.007,-78.858,103.280,101.326
1746585257.88,0.017,-0.018,0.072,-0.047,-0.126,0.082,-78.812,102.998,101.265
1746585257.90,-0.042,-0.030,0.050,-0.164,-0.116,0.041,-78.704,103.416,101.809
1746585257.92,-0.064,-0.019,0.020,-0.135,-0.172,-0.019,-78.662,104.099,102.682
1746585257.94,-0.062,-0.029,0.030,-0.056,-0.198,0.034,-78.631,104.404,103.202
1746585257.96,-0.075,-0.014,0.056,-0.065,-0.112,0.129,-78.520,104.388,103.396
1746585257.98,-0.109,0.052,0.054,-0.139,0.081,0.127,-78.334,104.831,103.842
1746585258.00,-0.153,0.107,-0.046,0.031,-0.010,-0.017,-78.253,105.214,104.177
1746585258.02,-0.112,0.058,-0.038,0.175,0.077,-0.067,-78.359,104.644,103.590
1746585258.04,-0.061,0.013,0.051,0.034,0.268,-0.031,-78.449,104.342,103.057
1746585258.06,-0.072,-0.004,0.020,0.019,0.144,-0.064,-78.510,104.695,103.158
1746585258.08,-0.041,-0.034,0.010,0.110,0.124,-0.095,-78.644,104.565,102.893
1746585258.10,0.031,-0.052,0.047,0.029,0.229,-0.006,-78.746,104.371,102.490
1746585258.12,0.038,-0.013,0.002,-0.083,0.144,0.053,-78.707,104.777,102.655
1746585258.14,-0.020,0.035,-0.067,-0.050,-0.062,0.006,-78.653,105.193,103.052
1746585258.16,-0.036,0.038,-0.047,0.049,-0.028,-0.020,-78.672,105.158,103.082
1746585258.18,-0.030,0.013,-0.008,0.057,0.035,-0.006,-78.699,104.850,102.751
1746585258.20,-0.049,0.008,-0.045,0.066,-0.058,-0.018,-78.716,104.602,102.497
1746585258.22,-0.046,-0.002,-0.015,0.174,-0.087,-0.029,-78.783,103.814,101.802
1746585258.24,-0.010,-0.012,0.059,0.219,-0.015,0.018,-78.857,102.567,100.590
1746585258.26,-0.022,-0.005,0.076,0.180,-0.032,0.067,-78.861,101.346,99.362
1746585258.28,-0.086,0.012,0.039,0.105,-0.147,0.062,-78.819,100.363,98.461
1746585258.30,-0.117,0.046,0.008,0.169,-0.190,-0.015,-78.822,99.456,97.737
1746585258.32,-0.086,0.022,0.053,0.299,-0.098,-0.038,-78.900,97.978,96.407
1746585258.34,-0.048,-0.005,0.073,0.278,-0.059,-0.018,-78.977,96.273,94.740
1746585258.36,-0.054,0.004,0.038,0.186,-0.225,-0.031,-79.042,94.890,93.478
1746585258.38,-0.066,0.021,0.011,0.184,-0.389,-0.074,-79.146,93.542,92.468
1746585258.40,-0.064,0.011,0.036,0.237,-0.415,-0.078,-79.262,91.868,91.246
1746585258.42,-0.069,-0.006,0.069,0.305,-0.378,-0.054,-79.340,89.789,89.586
1746585258.44,-0.100,-0.008,0.048,0.377,-0.438,-0.077,-79.399,87.246,87.464
1746585258.46,-0.130,0.004,0.047,0.448,-0.442,-0.163,-79.498,84.130,84.824
1746585258.48,-0.130,0.001,0.095,0.520,-0.277,-0.239,-79.653,80.562,81.621
1746585258.50,-0.108,0.005,0.113,0.624,-0.002,-0.284,-79.821,76.553,77.719
1746585258.52,-0.090,0.007,0.115,0.798,0.433,-0.299,-79.922,71.912,72.763
1746585258.54,-0.091,-0.000,0.100,0.956,0.723,-0.307,-79.892,66.658,66.722
1746585258.56,-0.116,-0.003,0.016,1.070,0.733,-0.319,-79.693,60.786,59.908
1746585258.58,-0.129,-0.002,-0.006,1.007,0.790,-0.325,-79.371,55.081,53.227
1746585258.60,-0.093,0.009,-0.025,0.958,0.955,-0.316,-78.987,50.276,47.342
1746585258.62,-0.057,-0.016,0.028,1.075,1.141,-0.306,-78.497,46.022,41.744
1746585258.64,0.033,-0.008,-0.040,1.207,0.868,-0.293,-77.770,41.702,36.123
1746585258.66,0.090,0.003,-0.046,1.105,0.563,-0.278,-76.953,37.513,31.005
1746585258.68,0.153,-0.025,-0.125,1.072,0.659,-0.073,-76.096,34.459,27.195
1746585258.70,0.186,-0.070,-0.091,1.100,0.904,0.183,-75.011,32.891,24.635
1746585258.72,0.163,-0.058,0.011,0.933,0.793,0.326,-73.864,32.575,23.222
1746585258.74,0.054,-0.064,-0.153,0.888,0.121,0.276,-72.807,32.253,22.375
1746585258.76,-0.007,-0.031,-0.045,1.026,0.581,0.120,-71.781,31.364,21.142
1746585258.78,0.000,-0.067,0.062,1.094,0.700,0.258,-70.615,30.822,19.607
1746585258.79,0.022,-0.073,-0.115,0.957,0.302,0.333,-69.439,30.592,18.833
1746585258.82,-0.002,-0.004,-0.027,0.913,0.340,0.256,-68.328,30.254,18.068
1746585258.84,0.052,0.017,-0.007,0.664,0.706,0.284,-67.413,30.377,17.603
1746585258.85,0.089,-0.019,0.045,0.893,0.602,0.320,-66.505,30.860,17.238
1746585258.88,0.113,-0.018,0.008,1.062,0.181,0.383,-65.320,30.795,16.661
1746585258.89,-0.008,0.040,-0.063,0.971,-0.345,0.288,-64.105,30.082,16.075
1746585258.91,-0.135,0.011,-0.068,0.803,0.256,0.273,-63.062,29.481,15.516
1746585258.93,0.024,-0.057,0.085,0.653,0.563,0.385,-62.187,29.928,15.362
1746585258.95,0.054,-0.040,0.017,0.971,0.128,0.416,-61.179,30.244,15.273
1746585258.97,0.064,0.057,0.015,1.372,-0.088,0.385,-59.744,29.751,14.652
1746585258.99,-0.053,0.078,-0.155,1.089,-0.100,0.341,-58.275,28.942,13.974
1746585259.01,-0.033,-0.040,-0.017,0.807,0.414,0.425,-57.161,28.998,13.715
1746585259.03,0.003,-0.159,0.050,0.796,0.094,0.538,-56.098,29.364,13.791
1746585259.05,0.020,-0.126,0.059,0.874,-0.165,0.586,-54.966,29.461,13.977
1746585259.07,0.039,-0.045,0.059,1.173,-0.428,0.487,-53.627,29.072,13.917
1746585259.09,0.002,0.009,-0.095,0.951,-0.256,0.405,-52.301,28.438,13.641
1746585259.11,-0.017,-0.013,-0.087,0.775,0.357,0.456,-51.229,28.458,13.714
1746585259.13,-0.041,-0.057,0.021,0.826,0.156,0.467,-50.175,28.845,13.864
1746585259.15,-0.078,-0.048,0.022,0.915,0.078,0.455,-49.060,28.929,13.886
1746585259.17,-0.023,-0.015,0.115,1.227,-0.096,0.425,-47.763,28.807,13.708
1746585259.19,0.013,-0.081,-0.135,1.136,-0.176,0.505,-46.270,28.336,13.437
1746585259.21,0.114,-0.055,-0.005,0.817,0.266,0.505,-45.016,28.419,13.412
1746585259.23,0.014,-0.019,0.069,0.674,0.089,0.471,-44.036,28.721,13.564
1746585259.25,-0.045,0.042,0.037,0.799,0.080,0.581,-43.006,28.905,13.752
1746585259.27,0.017,0.083,0.145,0.785,0.080,0.699,-41.850,29.232,14.063
1746585259.29,0.042,0.027,0.022,0.881,-0.287,0.689,-40.618,29.248,14.377
1746585259.31,0.044,0.005,-0.027,0.661,0.208,0.595,-39.482,29.395,14.692
1746585259.33,-0.090,-0.005,-0.031,0.583,0.038,0.542,-38.578,29.742,15.051
1746585259.35,-0.102,0.048,0.004,0.777,-0.049,0.595,-37.582,29.871,15.302
1746585259.37,-0.055,0.031,0.053,0.868,-0.235,0.632,-36.394,29.819,15.520
1746585259.39,-0.070,-0.071,0.010,0.885,-0.170,0.525,-35.186,29.601,15.652
1746585259.41,-0.088,-0.094,-0.034,0.856,0.200,0.425,-34.068,29.627,15.653
1746585259.43,-0.161,-0.003,-0.036,0.876,0.148,0.488,-32.959,29.801,15.626
1746585259.45,-0.073,0.083,-0.003,0.944,0.015,0.502,-31.769,29.893,15.633
1746585259.47,-0.033,0.024,0.059,0.924,-0.110,0.446,-30.574,29.765,15.567
1746585259.49,0.002,-0.115,0.085,0.973,-0.203,0.405,-29.407,29.532,15.463
1746585259.51,0.015,-0.190,-0.129,0.871,0.049,0.351,-28.267,29.296,15.257
1746585259.53,-0.030,0.022,-0.053,0.766,0.171,0.524,-27.213,29.480,15.227
1746585259.55,-0.058,0.094,0.006,0.734,0.140,0.562,-26.172,29.712,15.381
1746585259.57,-0.038,-0.014,0.106,0.926,0.020,0.580,-25.023,29.891,15.466
1746585259.59,0.003,-0.150,0.000,1.027,-0.084,0.453,-23.756,29.804,15.416
1746585259.61,0.054,-0.159,-0.146,1.089,-0.076,0.324,-22.487,29.599,15.160
1746585259.63,0.001,-0.048,-0.067,1.018,-0.080,0.369,-21.238,29.408,14.834
1746585259.65,0.049,0.086,0.092,0.915,-0.158,0.601,-20.009,29.236,14.744
1746585259.67,-0.083,0.067,0.038,0.852,0.064,0.579,-18.786,29.215,14.821
1746585259.69,-0.006,0.059,-0.005,0.839,0.023,0.508,-17.647,29.319,14.860
1746585259.71,0.132,0.020,-0.009,0.802,-0.199,0.487,-16.563,29.215,14.847
1746585259.73,0.075,-0.071,-0.057,0.941,-0.133,0.463,-15.416,29.005,14.782
1746585259.75,-0.002,-0.065,0.027,0.882,0.012,0.577,-14.213,28.953,14.746
1746585259.77,-0.096,0.081,0.093,0.836,0.170,0.699,-13.001,29.076,14.890
1746585259.79,-0.212,0.150,-0.007,0.862,0.256,0.591,-11.796,29.385,15.018
1746585259.81,0.058,0.012,-0.153,0.935,-0.084,0.402,-10.614,29.535,14.966
1746585259.83,0.247,-0.047,-0.170,0.926,-0.367,0.427,-9.469,29.228,14.779
1746585259.85,0.062,-0.032,-0.071,0.978,-0.188,0.461,-8.272,28.859,14.619
1746585259.87,-0.234,0.135,0.104,0.929,0.155,0.380,-7.060,28.825,14.472
1746585259.89,-0.302,0.139,0.116,0.920,0.349,0.357,-5.918,29.120,14.297
1746585259.91,0.013,-0.058,-0.062,0.947,0.232,0.251,-4.836,29.502,13.996
1746585259.93,0.340,-0.112,-0.171,1.006,-0.254,0.323,-3.700,29.451,13.633
1746585259.95,0.152,-0.074,-0.007,0.920,-0.227,0.397,-2.529,29.111,13.369
1746585259.97,-0.210,0.035,0.084,0.915,0.197,0.402,-1.405,29.075,13.194
1746585259.99,-0.159,0.103,-0.039,0.949,0.426,0.320,-0.269,29.477,12.944
1746585260.01,0.093,0.034,-0.101,0.894,0.208,0.314,0.819,29.846,12.633
1746585260.03,0.192,0.026,-0.142,0.839,-0.008,0.338,1.870,29.946,12.349
1746585260.05,0.065,0.062,-0.113,0.731,0.008,0.418,2.848,29.937,12.180
1746585260.07,-0.048,0.094,-0.122,0.713,0.132,0.387,3.801,30.015,12.070
1746585260.09,-0.149,0.065,-0.030,0.714,0.306,0.226,4.674,30.276,11.871
1746585260.11,-0.026,-0.039,-0.101,0.681,0.261,0.140,5.470,30.648,11.529
1746585260.13,0.090,-0.066,-0.160,0.607,0.063,0.138,6.168,30.844,11.190
1746585260.15,0.083,-0.035,-0.185,0.558,0.013,0.108,6.821,30.888,10.875
1746585260.17,-0.041,-0.045,-0.084,0.507,0.106,0.065,7.385,30.987,10.548
1746585260.19,0.013,-0.033,-0.050,0.421,0.150,0.043,7.872,31.165,10.217
1746585260.21,0.072,-0.095,-0.112,0.314,0.131,0.018,8.252,31.358,9.914
1746585260.23,0.136,-0.091,-0.130,0.161,0.022,0.029,8.492,31.468,9.701
1746585260.25,0.096,-0.107,-0.094,0.031,-0.058,0.005,8.592,31.462,9.569
1746585260.27,0.051,-0.108,-0.116,-0.112,-0.072,-0.073,8.512,31.391,9.441
1746585260.29,0.074,-0.182,-0.151,-0.349,-0.248,-0.210,8.199,31.205,9.343
1746585260.31,0.251,-0.166,-0.310,-0.565,-0.355,-0.261,7.616,30.815,9.270
1746585260.33,0.128,-0.117,-0.333,-0.816,-0.174,-0.289,6.779,30.501,9.330
1746585260.35,0.117,0.014,-0.374,-1.055,-0.097,-0.268,5.683,30.332,9.528
1746585260.37,0.218,0.015,-0.346,-1.247,-0.119,-0.273,4.399,30.174,9.880
1746585260.39,0.125,0.019,-0.227,-1.368,-0.109,-0.362,2.919,30.028,10.272
1746585260.41,0.004,0.051,-0.164,-1.402,-0.098,-0.532,1.289,29.894,10.559
1746585260.43,-0.025,-0.057,-0.196,-1.477,-0.048,-0.645,-0.470,29.789,10.748
1746585260.45,-0.038,-0.020,-0.173,-1.509,-0.010,-0.752,-2.341,29.769,10.880
1746585260.47,0.021,-0.074,-0.129,-1.565,-0.015,-0.804,-4.310,29.755,10.960
1746585260.49,0.070,-0.119,-0.001,-1.579,-0.063,-0.756,-6.307,29.713,11.062
1746585260.51,0.064,-0.098,0.012,-1.603,-0.070,-0.712,-8.302,29.665,11.250
1746585260.53,0.023,-0.070,-0.020,-1.627,-0.102,-0.716,-10.303,29.597,11.456
1746585260.55,0.029,-0.061,-0.079,-1.728,-0.034,-0.659,-12.367,29.569,11.745
1746585260.57,0.056,-0.008,0.003,-1.706,-0.172,-0.645,-14.445,29.563,12.113
1746585260.59,0.039,-0.044,0.013,-1.600,-0.247,-0.658,-16.462,29.356,12.464
1746585260.61,-0.043,-0.105,0.040,-1.512,-0.252,-0.667,-18.372,29.163,12.715
1746585260.63,-0.042,-0.240,-0.106,-1.583,0.028,-0.635,-20.280,29.059,12.980
1746585260.65,-0.022,-0.204,0.008,-1.447,0.037,-0.716,-22.148,29.230,13.259
1746585260.67,-0.139,-0.182,0.080,-1.387,0.033,-0.990,-24.074,29.227,13.269
1746585260.69,-0.087,-0.285,-0.106,-1.321,0.057,-1.017,-25.931,29.141,13.089
1746585260.71,0.033,-0.208,0.004,-1.564,0.094,-0.934,-27.928,29.157,12.982
1746585260.73,0.054,-0.111,0.027,-1.600,0.098,-0.916,-30.040,29.233,13.029
1746585260.75,0.041,-0.040,0.005,-1.519,0.214,-0.857,-32.084,29.405,13.083
1746585260.77,0.057,-0.022,0.013,-1.555,0.262,-0.773,-34.063,29.737,13.234
1746585260.79,0.116,-0.049,-0.014,-1.611,0.136,-0.729,-36.047,30.063,13.513
1746585260.81,0.158,-0.084,0.049,-1.600,0.072,-0.685,-38.051,30.361,13.902
1746585260.83,0.092,-0.093,-0.008,-1.566,0.005,-0.737,-40.006,30.581,14.232
1746585260.85,0.023,-0.076,0.008,-1.529,0.064,-0.863,-41.998,30.710,14.388
1746585260.87,-0.022,-0.070,0.009,-1.585,0.115,-0.842,-44.014,30.864,14.499
1746585260.89,-0.007,-0.110,0.049,-1.567,0.103,-0.681,-46.024,31.202,14.837
1746585260.91,0.023,-0.114,-0.002,-1.524,0.002,-0.579,-47.893,31.581,15.298
1746585260.93,0.045,-0.096,-0.020,-1.473,-0.001,-0.658,-49.711,31.940,15.772
1746585260.95,0.085,-0.089,-0.068,-1.528,-0.106,-0.750,-51.580,32.157,16.102
1746585260.97,0.127,-0.080,0.084,-1.590,-0.469,-0.755,-53.562,32.141,16.479
1746585260.99,0.079,-0.024,0.021,-1.421,-0.764,-0.794,-55.497,31.649,16.774
1746585261.01,-0.007,0.026,-0.015,-1.409,-0.738,-0.849,-57.343,30.793,16.808
1746585261.03,-0.065,0.007,0.012,-1.536,-0.616,-0.789,-59.275,30.082,16.873
1746585261.05,-0.034,-0.067,-0.032,-1.571,-0.543,-0.555,-61.210,29.783,17.289
1746585261.07,0.020,-0.136,0.077,-1.562,-0.549,-0.181,-62.969,30.173,18.413
1746585261.09,0.028,-0.130,0.072,-1.639,-0.802,0.145,-64.535,31.294,20.503
1746585261.11,-0.031,-0.129,0.154,-1.640,-0.978,0.200,-66.023,32.871,23.387
1746585261.13,-0.069,-0.107,0.061,-1.533,-0.621,-0.120,-67.483,34.351,26.049
1746585261.15,-0.045,-0.130,-0.000,-1.490,-0.119,-0.435,-69.092,35.769,27.993
1746585261.17,-0.007,-0.108,-0.101,-1.421,-0.172,-0.514,-70.768,37.124,29.556
1746585261.19,-0.050,-0.075,-0.111,-1.245,-0.631,-0.432,-72.298,38.108,31.080
1746585261.21,-0.094,-0.029,0.021,-1.321,-0.781,-0.253,-73.683,39.214,33.121
1746585261.23,-0.135,-0.006,0.020,-1.355,-0.605,0.026,-74.939,41.585,36.433
1746585261.25,-0.161,-0.042,-0.008,-1.279,-0.233,0.115,-75.963,45.424,40.885
1746585261.27,-0.150,-0.068,0.027,-1.145,-0.081,-0.031,-76.855,49.686,45.433
1746585261.29,-0.098,-0.027,-0.021,-1.035,-0.165,-0.257,-77.757,53.382,49.339
1746585261.31,-0.016,0.001,-0.020,-1.114,-0.413,-0.272,-78.717,56.889,53.267
1746585261.33,0.049,-0.011,0.033,-1.305,-0.537,-0.056,-79.588,62.028,59.063
1746585261.35,0.060,-0.046,0.079,-1.373,-0.482,0.094,-80.187,69.452,67.219
1746585261.37,-0.001,-0.053,-0.003,-1.263,-0.221,0.101,-80.500,77.776,76.070
1746585261.39,0.000,-0.090,0.020,-1.081,-0.204,0.158,-80.563,85.678,84.296
1746585261.41,0.014,-0.105,0.070,-0.871,-0.221,0.310,-80.316,92.007,90.985
1746585261.43,-0.054,-0.064,0.030,-0.742,-0.098,0.368,-79.845,96.934,96.149
1746585261.45,-0.153,0.024,-0.131,-0.573,-0.235,0.270,-79.368,100.466,99.922
1746585261.47,-0.155,0.078,-0.071,-0.377,-0.160,0.199,-79.002,102.738,102.498
1746585261.49,-0.119,0.073,0.013,-0.127,0.201,0.227,-78.705,103.911,103.676
1746585261.51,-0.107,0.104,0.037,0.027,0.282,0.238,-78.431,104.090,103.532
1746585261.53,-0.128,0.164,0.005,0.021,0.026,0.133,-78.224,103.842,103.093
1746585261.55,-0.136,0.133,0.041,-0.037,-0.012,-0.028,-78.168,103.819,103.092
1746585261.57,-0.083,-0.033,0.071,-0.026,0.130,-0.072,-78.225,104.167,103.381
1746585261.59,-0.006,-0.095,0.045,0.069,0.170,0.015,-78.269,104.334,103.363
1746585261.61,0.013,-0.026,0.006,0.139,0.121,0.103,-78.230,103.789,102.630
1746585261.63,-0.081,0.038,0.005,0.084,0.043,0.065,-78.159,103.150,101.887
1746585261.65,-0.103,0.043,-0.032,0.094,0.117,-0.014,-78.160,102.826,101.476
1746585261.67,-0.029,-0.005,-0.017,0.178,0.182,-0.025,-78.220,102.311,100.765
1746585261.69,0.011,-0.016,0.043,0.142,0.187,-0.037,-78.291,101.635,99.857
1746585261.71,0.030,-0.022,0.071,0.022,0.114,-0.028,-78.357,101.417,99.448
1746585261.72,0.051,-0.038,0.026,-0.085,-0.014,0.011,-78.373,101.676,99.657
1746585261.75,0.049,-0.033,-0.011,-0.141,-0.119,0.061,-78.309,102.205,100.272
1746585261.77,0.003,0.004,-0.041,-0.136,-0.215,0.079,-78.190,102.712,100.989
1746585261.78,-0.067,0.041,-0.084,-0.024,-0.218,0.019,-78.104,102.891,101.431
1746585261.80,-0.097,0.034,-0.056,0.140,-0.048,-0.028,-78.126,102.432,101.136
1746585261.82,-0.055,0.010,0.016,0.197,0.049,-0.005,-78.184,101.483,100.143
1746585261.84,-0.014,0.006,0.046,0.134,0.019,0.024,-78.211,100.591,99.186
1746585261.86,-0.002,0.007,0.019,0.090,-0.138,0.023,-78.204,99.900,98.543
1746585261.88,-0.012,-0.005,-0.010,0.133,-0.219,-0.020,-78.236,99.102,97.958
1746585261.90,-0.007,-0.016,0.049,0.156,-0.083,-0.015,-78.297,98.116,97.136
1746585261.92,-0.020,0.003,0.062,0.103,-0.053,-0.008,-78.332,97.405,96.467
1746585261.94,-0.042,0.017,0.020,0.116,-0.184,-0.020,-78.358,96.732,95.916
1746585261.96,-0.051,0.017,-0.025,0.183,-0.178,-0.034,-78.410,95.724,95.115
1746585261.98,-0.035,0.019,0.014,0.265,-0.050,-0.038,-78.478,94.392,93.888
1746585262.00,-0.025,0.009,0.083,0.261,-0.008,-0.029,-78.540,92.976,92.461
1746585262.02,-0.035,-0.002,0.106,0.203,-0.043,-0.007,-78.580,91.707,91.184
1746585262.04,-0.058,-0.003,0.061,0.183,-0.148,-0.004,-78.598,90.545,90.108
1746585262.06,-0.074,-0.006,0.033,0.232,-0.214,-0.032,-78.625,89.201,88.954
1746585262.08,-0.074,-0.000,0.024,0.290,-0.217,-0.048,-78.671,87.525,87.498
1746585262.10,-0.080,0.014,0.054,0.338,-0.131,-0.058,-78.714,85.563,85.702
1746585262.12,-0.079,0.023,0.069,0.381,-0.069,-0.068,-78.744,83.376,83.583
1746585262.14,-0.076,0.018,0.075,0.456,-0.008,-0.090,-78.770,80.908,81.116
1746585262.16,-0.086,-0.000,0.065,0.573,0.045,-0.111,-78.778,77.944,78.070
1746585262.18,-0.106,-0.006,-0.004,0.695,0.082,-0.122,-78.732,74.302,74.289
1746585262.20,-0.116,-0.023,0.007,0.776,0.251,-0.170,-78.633,70.207,69.937
1746585262.22,-0.107,-0.040,0.061,0.900,0.552,-0.208,-78.477,65.878,65.054
1746585262.24,-0.086,-0.040,0.069,1.077,0.692,-0.206,-78.198,61.264,59.585
1746585262.26,-0.056,-0.013,-0.035,1.272,0.610,-0.186,-77.674,56.006,53.442
1746585262.28,-0.050,0.021,-0.083,1.106,0.567,-0.218,-77.039,51.089,47.733
1746585262.30,-0.034,0.003,-0.076,1.067,0.768,-0.176,-76.427,47.327,43.093
1746585262.32,-0.025,-0.051,-0.011,1.324,0.918,-0.131,-75.596,43.926,38.563
1746585262.34,-0.003,-0.046,-0.023,1.297,0.136,-0.083,-74.556,40.410,34.206
1746585262.36,0.085,-0.055,-0.174,1.118,-0.113,0.030,-73.498,37.230,30.991
1746585262.38,0.134,-0.062,-0.080,1.087,0.560,0.224,-72.412,35.359,28.825
1746585262.40,0.117,-0.047,0.075,1.095,0.720,0.284,-71.226,34.814,27.383
1746585262.42,0.011,0.001,-0.021,1.105,0.180,0.216,-70.009,33.933,25.890
1746585262.44,-0.033,0.054,-0.009,0.929,-0.155,0.245,-68.893,32.770,24.684
1746585262.46,-0.029,0.044,0.078,0.844,0.406,0.238,-67.904,32.107,23.914
1746585262.48,-0.039,-0.016,0.082,0.902,0.651,0.160,-66.938,31.996,23.018
1746585262.50,-0.029,0.005,-0.090,0.763,0.519,0.139,-66.026,31.759,22.109
1746585262.52,0.038,0.098,0.129,0.956,0.582,0.056,-65.173,31.577,21.143
1746585262.54,-0.019,0.097,-0.061,1.002,0.104,0.106,-64.115,30.799,19.858
1746585262.56,-0.106,-0.002,-0.050,0.701,0.530,0.252,-63.195,30.447,19.174
1746585262.58,-0.048,-0.125,0.022,0.646,0.743,0.362,-62.362,31.109,19.003
1746585262.60,0.065,-0.113,0.018,0.897,0.519,0.347,-61.430,31.662,18.823
1746585262.62,0.132,-0.025,0.061,1.230,0.163,0.335,-60.142,31.496,18.115
1746585262.64,0.041,0.016,-0.020,0.784,-0.129,0.347,-58.929,31.004,17.552
1746585262.66,-0.043,-0.068,-0.048,0.583,0.082,0.524,-58.031,30.950,17.591
1746585262.68,0.134,-0.139,-0.039,0.432,0.004,0.607,-57.195,31.515,18.098
1746585262.70,0.181,-0.061,-0.034,0.465,-0.241,0.545,-56.442,31.812,18.693
1746585262.72,0.060,0.098,0.025,1.010,-0.144,0.243,-55.475,31.548,18.611
1746585262.74,-0.154,0.129,-0.078,1.011,-0.157,0.062,-54.374,30.635,17.725
1746585262.76,-0.186,-0.034,-0.033,0.812,0.008,0.418,-53.359,30.114,17.249
1746585262.78,-0.048,-0.161,0.026,0.773,0.140,0.687,-52.257,30.378,17.540
1746585262.80,0.012,-0.130,0.020,0.914,0.121,0.576,-51.047,30.719,17.845
1746585262.82,-0.005,-0.060,0.000,0.996,0.012,0.418,-49.808,30.704,17.830
1746585262.84,-0.012,0.028,-0.022,0.872,0.166,0.348,-48.664,30.577,17.556
1746585262.86,-0.015,0.063,-0.018,0.726,0.149,0.421,-47.664,30.657,17.414
1746585262.88,-0.012,0.058,0.014,0.803,0.058,0.429,-46.666,30.787,17.458
1746585262.90,-0.032,0.052,0.028,0.880,0.216,0.321,-45.622,30.798,17.397
1746585262.92,-0.008,0.016,0.094,1.067,0.160,0.315,-44.493,30.772,17.109
1746585262.94,0.004,-0.004,-0.040,1.134,0.039,0.383,-43.188,30.539,16.799
1746585262.96,0.011,0.043,-0.037,0.872,0.241,0.334,-41.957,30.502,16.526
1746585262.98,0.048,-0.013,0.070,0.684,0.109,0.417,-41.020,30.658,16.523
1746585263.00,0.063,-0.006,0.068,0.938,-0.166,0.365,-40.001,30.572,16.510
1746585263.02,0.021,-0.019,0.068,1.112,-0.394,0.390,-38.769,30.082,16.250
1746585263.04,0.039,-0.045,-0.107,0.998,-0.399,0.431,-37.458,29.396,16.073
1746585263.06,0.066,-0.025,-0.083,0.652,0.056,0.422,-36.412,29.184,16.080
1746585263.08,-0.044,-0.045,0.036,0.639,0.019,0.426,-35.556,29.316,16.234
1746585263.10,-0.043,-0.057,0.128,0.830,0.007,0.483,-34.575,29.378,16.336
1746585263.12,0.062,-0.043,0.030,0.874,-0.220,0.479,-33.452,29.236,16.396
1746585263.14,0.034,0.018,-0.095,0.864,-0.166,0.417,-32.326,28.951,16.396
1746585263.16,-0.105,0.018,-0.141,0.831,0.135,0.334,-31.266,28.896,16.324
1746585263.18,-0.105,-0.009,-0.041,0.845,0.096,0.236,-30.287,28.950,16.175
1746585263.20,-0.050,0.050,0.026,0.895,-0.160,0.213,-29.285,28.762,15.894
1746585263.22,0.036,0.117,0.039,0.781,-0.337,0.296,-28.312,28.358,15.698
1746585263.24,0.038,0.085,-0.055,0.653,-0.063,0.340,-27.409,28.065,15.665
1746585263.26,-0.051,-0.035,0.007,0.684,0.193,0.248,-26.583,28.145,15.629
1746585263.28,-0.089,-0.126,0.050,0.743,0.112,0.187,-25.739,28.243,15.460
1746585263.30,0.015,-0.024,0.044,0.756,-0.132,0.205,-24.882,28.132,15.236
1746585263.32,0.023,-0.038,-0.032,0.745,-0.346,0.257,-23.995,27.770,15.067
1746585263.34,-0.005,-0.057,-0.120,0.688,-0.108,0.252,-23.126,27.434,14.954
1746585263.36,-0.094,-0.058,-0.067,0.601,-0.034,0.200,-22.362,27.301,14.850
1746585263.38,-0.061,-0.078,0.019,0.772,0.001,0.212,-21.573,27.284,14.694
1746585263.40,-0.007,-0.065,0.020,0.871,-0.314,0.142,-20.644,26.969,14.421
1746585263.42,0.001,-0.023,0.042,0.935,-0.422,0.142,-19.624,26.444,14.060
1746585263.44,-0.044,-0.025,-0.033,0.893,-0.249,0.154,-18.617,25.916,13.704
1746585263.46,0.042,-0.070,-0.089,0.820,-0.204,0.214,-17.641,25.603,13.431
1746585263.48,0.054,-0.013,0.080,0.761,-0.186,0.321,-16.716,25.317,13.290
1746585263.50,-0.031,-0.018,0.053,0.840,-0.045,0.308,-15.723,25.197,13.233
1746585263.52,-0.112,0.002,0.088,0.881,0.029,0.369,-14.664,25.150,13.129
1746585263.54,0.015,-0.084,0.010,0.868,0.012,0.390,-13.567,25.174,13.046
1746585263.56,0.107,-0.028,-0.024,0.802,-0.024,0.488,-12.495,25.179,13.069
1746585263.58,0.039,-0.012,0.013,0.720,0.007,0.541,-11.464,25.205,13.190
1746585263.60,-0.088,-0.001,0.114,0.694,0.001,0.670,-10.432,25.258,13.443
1746585263.62,-0.074,0.029,0.043,0.720,0.212,0.703,-9.396,25.427,13.744
1746585263.64,-0.098,-0.122,0.005,0.724,0.542,0.740,-8.275,25.916,14.112
1746585263.66,-0.045,-0.048,-0.122,0.723,0.619,0.715,-7.171,26.658,14.446
1746585263.68,0.038,0.039,-0.121,0.647,0.450,0.621,-6.139,27.342,14.724
1746585263.70,0.041,0.042,-0.089,0.678,0.093,0.537,-5.152,27.656,14.883
1746585263.72,0.100,-0.007,-0.053,0.667,0.032,0.583,-4.175,27.698,15.021
1746585263.74,-0.063,-0.056,-0.088,0.677,0.185,0.524,-3.208,27.804,15.155
1746585263.76,-0.072,-0.044,-0.188,0.645,0.344,0.455,-2.278,28.152,15.224
1746585263.78,0.033,0.038,-0.152,0.623,0.326,0.416,-1.408,28.545,15.246
1746585263.80,-0.026,0.084,-0.072,0.637,0.132,0.262,-0.585,28.816,15.158
1746585263.82,0.027,0.130,-0.029,0.623,-0.051,0.228,0.182,28.860,14.979
1746585263.84,0.009,0.028,-0.095,0.613,-0.054,0.225,0.926,28.780,14.773
1746585263.86,-0.016,-0.013,-0.091,0.577,0.051,0.226,1.643,28.787,14.594
1746585263.88,0.015,0.010,-0.068,0.538,0.097,0.180,2.318,28.863,14.409
1746585263.90,-0.001,0.081,-0.026,0.516,0.112,0.214,2.962,28.986,14.237
1746585263.92,-0.025,0.010,-0.052,0.529,0.125,0.140,3.586,29.141,14.031
1746585263.94,0.088,-0.032,-0.093,0.487,0.064,0.115,4.162,29.260,13.785
1746585263.96,0.078,-0.020,-0.082,0.445,0.020,0.143,4.700,29.320,13.559
1746585263.98,0.046,0.018,-0.068,0.378,0.127,0.222,5.214,29.397,13.428
1746585264.00,-0.070,0.037,-0.045,0.362,0.296,0.230,5.702,29.627,13.371
1746585264.02,-0.037,0.013,-0.094,0.356,0.200,0.112,6.159,29.943,13.247
1746585264.04,0.099,-0.015,-0.070,0.245,0.009,0.109,6.521,30.055,13.080
1746585264.06,0.122,0.028,-0.128,0.180,0.024,0.107,6.790,30.060,12.988
1746585264.08,-0.027,0.017,-0.165,0.150,0.087,-0.022,6.977,30.119,12.844
1746585264.10,0.055,-0.020,-0.166,0.073,0.055,-0.109,7.059,30.224,12.619
1746585264.12,0.059,-0.030,-0.084,-0.050,-0.013,-0.207,6.983,30.249,12.371
1746585264.14,0.092,0.001,-0.161,-0.143,0.000,-0.254,6.768,30.274,12.111
1746585264.16,0.091,-0.028,-0.201,-0.293,0.067,-0.296,6.393,30.333,11.889
1746585264.18,0.122,-0.057,-0.268,-0.470,0.074,-0.353,5.825,30.414,11.723
1746585264.20,0.099,-0.037,-0.269,-0.621,0.094,-0.438,5.061,30.519,11.605
1746585264.22,0.108,-0.064,-0.221,-0.733,0.057,-0.503,4.114,30.624,11.474
1746585264.24,0.110,-0.116,-0.174,-0.892,0.090,-0.569,3.003,30.693,11.362
1746585264.26,0.051,-0.059,-0.208,-1.022,0.133,-0.613,1.715,30.838,11.299
1746585264.28,0.122,-0.039,-0.254,-1.179,0.118,-0.632,0.262,30.992,11.264
1746585264.30,0.128,-0.091,-0.097,-1.217,-0.009,-0.611,-1.279,31.039,11.357
1746585264.32,-0.049,-0.031,-0.162,-1.194,-0.045,-0.754,-2.845,31.016,11.360
1746585264.34,-0.093,-0.058,-0.153,-1.232,0.050,-0.878,-4.517,31.036,11.268
1746585264.36,0.101,-0.084,-0.183,-1.334,-0.077,-0.869,-6.285,31.015,11.161
1746585264.38,0.157,-0.016,0.032,-1.358,-0.243,-0.901,-8.128,30.813,11.100
1746585264.40,0.048,-0.047,0.051,-1.359,-0.137,-0.857,-9.986,30.555,11.039
1746585264.42,0.038,-0.092,-0.011,-1.402,-0.297,-0.718,-11.778,30.330,11.064
1746585264.44,0.042,-0.088,0.037,-1.484,-0.277,-0.633,-13.601,30.045,11.302
1746585264.46,0.028,-0.111,0.078,-1.413,-0.211,-0.645,-15.408,29.807,11.552
1746585264.48,0.066,-0.177,0.004,-1.382,-0.130,-0.647,-17.154,29.647,11.754
1746585264.50,0.028,-0.164,-0.008,-1.421,-0.201,-0.655,-18.906,29.525,11.957
1746585264.52,-0.059,-0.116,0.033,-1.457,-0.059,-0.598,-20.706,29.415,12.207
1746585264.54,-0.021,-0.102,0.072,-1.428,0.045,-0.485,-22.441,29.558,12.576
1746585264.56,-0.006,-0.106,0.024,-1.330,-0.178,-0.495,-24.084,29.602,13.047
1746585264.58,-0.007,-0.139,-0.022,-1.327,-0.025,-0.682,-25.718,29.547,13.285
1746585264.59,-0.048,-0.131,-0.021,-1.350,-0.051,-0.831,-27.493,29.499,13.366
1746585264.61,-0.125,-0.098,0.036,-1.116,0.000,-0.890,-29.217,29.405,13.270
1746585264.63,-0.149,-0.056,-0.003,-0.833,-0.161,-0.907,-30.687,29.124,12.951
1746585264.65,-0.105,-0.050,-0.087,-0.733,-0.295,-0.911,-31.938,28.517,12.467
1746585264.67,0.031,-0.097,0.010,-0.959,-0.140,-0.898,-33.288,27.984,12.022
1746585264.69,0.023,-0.184,0.049,-0.976,-0.172,-0.723,-34.700,27.601,11.738
1746585264.71,0.023,-0.216,0.057,-1.062,0.357,-0.523,-36.066,27.590,11.742
1746585264.73,0.011,-0.178,-0.044,-1.215,0.557,-0.468,-37.457,28.248,11.992
1746585264.75,0.010,-0.125,-0.019,-1.471,0.510,-0.428,-39.059,29.097,12.466
1746585264.77,0.101,-0.084,-0.012,-1.453,0.309,-0.351,-40.756,29.944,13.173
1746585264.79,0.145,-0.022,-0.080,-1.407,0.192,-0.391,-42.358,30.639,13.906
1746585264.81,0.112,0.025,0.004,-1.364,-0.059,-0.518,-43.997,31.062,14.538
1746585264.83,0.095,0.029,-0.080,-1.312,-0.268,-0.551,-45.619,31.132,15.015
1746585264.85,0.049,0.008,-0.096,-1.372,-0.235,-0.532,-47.242,31.091,15.455
1746585264.87,0.000,-0.029,0.001,-1.421,-0.211,-0.520,-48.925,31.216,16.048
1746585264.89,-0.015,-0.040,-0.026,-1.416,-0.363,-0.532,-50.618,31.270,16.675
1746585264.91,-0.015,-0.048,0.015,-1.541,-0.315,-0.576,-52.378,31.276,17.264
1746585264.93,0.034,-0.071,0.031,-1.666,-0.258,-0.536,-54.292,31.509,17.955
1746585264.95,0.069,-0.046,0.014,-1.574,-0.221,-0.449,-56.171,31.956,18.830
1746585264.97,0.062,0.039,-0.002,-1.528,-0.386,-0.423,-57.921,32.436,19.797
1746585264.99,0.007,0.084,-0.024,-1.518,-0.642,-0.470,-59.663,32.672,20.764
1746585265.01,-0.004,0.008,0.057,-1.525,-0.639,-0.395,-61.398,32.827,21.810
1746585265.03,-0.022,-0.099,0.123,-1.537,-0.579,-0.315,-63.084,33.333,23.153
1746585265.05,-0.066,-0.166,0.012,-1.452,-0.673,-0.381,-64.717,33.901,24.566
1746585265.07,-0.072,-0.145,-0.050,-1.612,-0.814,-0.454,-66.420,34.277,25.934
1746585265.09,-0.065,-0.116,0.060,-1.816,-0.477,-0.420,-68.327,35.194,27.760
1746585265.11,-0.077,-0.082,0.036,-1.694,-0.224,-0.335,-70.221,37.063,30.152
1746585265.13,-0.064,-0.048,-0.016,-1.521,-0.409,-0.252,-71.863,39.268,32.814
1746585265.15,-0.040,-0.023,0.085,-1.321,-0.678,-0.129,-73.253,41.452,35.794
1746585265.17,-0.020,0.003,0.068,-1.072,-0.361,-0.020,-74.299,43.752,38.860
1746585265.19,-0.069,-0.014,0.040,-1.075,0.189,-0.087,-75.184,46.673,41.964
1746585265.21,-0.102,-0.066,-0.008,-1.141,0.204,-0.114,-76.119,50.357,45.474
1746585265.23,-0.083,-0.120,-0.013,-1.240,-0.126,-0.069,-77.026,54.626,49.821
1746585265.25,-0.032,-0.100,-0.048,-1.357,-0.342,-0.055,-77.891,59.765,55.376
1746585265.27,0.048,-0.052,-0.014,-1.358,-0.470,-0.027,-78.645,65.941,62.165
1746585265.29,0.068,-0.023,-0.028,-1.151,-0.442,-0.076,-79.215,72.218,69.096
1746585265.31,0.056,-0.065,-0.030,-0.992,-0.323,-0.062,-79.613,77.903,75.332
1746585265.33,0.029,-0.070,-0.092,-0.909,-0.288,0.081,-79.788,83.421,81.285
1746585265.35,0.016,-0.038,-0.135,-0.927,-0.337,0.277,-79.651,88.868,87.190
1746585265.37,0.035,0.009,-0.096,-0.800,-0.331,0.373,-79.244,93.927,92.704
1746585265.39,0.007,0.015,-0.059,-0.366,-0.492,0.406,-78.746,96.659,95.982
1746585265.41,-0.003,0.007,0.069,-0.164,-0.274,0.504,-78.207,97.160,96.979
1746585265.43,-0.073,0.026,0.130,-0.391,0.222,0.612,-77.526,98.117,97.972
1746585265.45,-0.200,0.068,0.021,-0.415,-0.017,0.469,-76.815,100.000,99.716
1746585265.47,-0.275,0.094,0.015,-0.201,-0.314,0.208,-76.377,100.899,100.879
1746585265.49,-0.321,0.104,0.059,-0.162,-0.153,0.031,-76.208,101.257,101.553
1746585265.51,-0.281,0.103,0.050,-0.153,0.064,-0.164,-76.249,102.083,102.432
1746585265.53,-0.083,0.053,-0.028,-0.011,0.050,-0.229,-76.462,102.752,103.053
1746585265.55,0.039,-0.046,-0.009,0.066,0.077,-0.135,-76.689,102.858,103.086
1746585265.57,0.081,-0.071,0.021,-0.032,0.205,-0.008,-76.764,102.894,102.983
1746585265.59,0.096,-0.017,0.004,-0.156,0.191,-0.018,-76.744,103.725,103.542
1746585265.61,0.047,-0.019,-0.037,-0.095,-0.178,-0.058,-76.748,104.371,104.213
1746585265.63,0.040,0.005,0.036,-0.159,-0.146,-0.033,-76.778,104.747,104.821
1746585265.65,0.009,0.038,0.030,-0.204,-0.113,-0.013,-76.737,105.540,105.775
1746585265.67,-0.058,0.040,0.004,-0.130,-0.085,-0.052,-76.711,106.284,106.650
1746585265.71,-0.084,0.001,-0.033,0.025,-0.092,-0.092,-76.773,106.484,106.977
1746585265.72,-0.025,-0.013,0.013,0.087,0.061,-0.057,-76.879,106.261,106.763
1746585265.73,0.000,0.013,0.040,0.034,0.039,-0.000,-76.925,106.089,106.506
1746585265.75,-0.025,0.038,-0.039,0.053,-0.137,-0.022,-76.946,105.912,106.379
1746585265.77,-0.030,0.044,-0.067,0.171,-0.079,-0.013,-77.020,105.290,105.891
1746585265.79,-0.039,0.038,-0.048,0.337,0.005,0.002,-77.105,104.036,104.642
1746585265.81,-0.062,0.000,0.023,0.343,0.050,0.026,-77.175,102.367,102.890
1746585265.83,-0.076,0.006,0.042,0.270,0.046,-0.012,-77.234,100.920,101.345
1746585265.85,-0.075,0.025,0.031,0.287,0.053,-0.070,-77.348,99.619,99.962
1746585265.87,-0.048,0.001,0.053,0.347,0.105,-0.081,-77.507,98.114,98.329
1746585265.89,-0.006,-0.025,0.059,0.307,0.097,-0.021,-77.628,96.612,96.656
1746585265.91,0.027,-0.029,0.046,0.289,-0.022,0.026,-77.654,95.139,95.102
1746585265.93,0.030,-0.033,0.067,0.316,-0.151,0.055,-77.632,93.445,93.469
1746585265.95,-0.007,-0.034,0.101,0.304,-0.209,0.024,-77.599,91.600,91.796
1746585265.97,-0.064,-0.020,0.106,0.275,-0.269,-0.009,-77.597,89.835,90.265
1746585265.99,-0.117,0.011,0.057,0.321,-0.357,-0.048,-77.623,87.959,88.715
1746585266.01,-0.158,0.056,0.032,0.439,-0.235,-0.107,-77.687,85.609,86.687
1746585266.03,-0.160,0.050,0.086,0.559,0.164,-0.151,-77.780,82.859,83.932
1746585266.05,-0.128,0.006,0.142,0.645,0.571,-0.177,-77.860,80.000,80.560
1746585266.07,-0.111,-0.021,0.098,0.754,0.685,-0.210,-77.919,76.907,76.633
1746585266.09,-0.100,0.004,0.008,0.813,0.543,-0.245,-77.936,73.202,72.113
1746585266.11,-0.086,0.012,-0.015,0.789,0.396,-0.279,-77.929,69.219,67.507
1746585266.13,-0.055,-0.032,-0.003,0.816,0.430,-0.260,-77.863,65.145,62.883
1746585266.15,-0.002,-0.050,0.013,0.827,0.785,-0.182,-77.674,61.420,58.388
1746585266.17,0.020,-0.043,0.035,0.862,0.972,-0.077,-77.309,58.366,54.173
1746585266.19,0.028,-0.004,-0.107,0.738,0.605,-0.089,-76.874,55.705,50.491
1746585266.21,0.002,0.005,-0.086,0.711,0.340,-0.142,-76.517,53.103,47.299
1746585266.23,0.016,0.007,-0.023,0.874,0.336,-0.139,-76.086,50.178,43.875
1746585266.25,0.036,0.019,-0.047,1.038,-0.109,-0.118,-75.469,46.697,40.129
1746585266.27,0.047,0.040,-0.168,0.939,-0.260,-0.126,-74.738,43.005,36.591
1746585266.29,-0.056,0.046,-0.061,0.920,0.546,-0.191,-74.090,40.145,33.551
1746585266.31,-0.064,0.026,0.091,1.097,1.062,-0.137,-73.320,38.149,30.387
1746585266.33,-0.036,-0.025,0.090,1.016,0.765,0.076,-72.370,36.682,27.707
1746585266.35,-0.023,-0.057,-0.107,0.795,0.105,0.288,-71.397,35.849,26.335
1746585266.37,-0.042,-0.058,-0.070,0.815,0.437,0.172,-70.506,35.259,25.473
1746585266.39,-0.043,-0.059,0.032,0.999,0.773,0.022,-69.589,34.562,23.926
1746585266.41,-0.013,-0.088,0.018,0.943,0.549,0.174,-68.629,33.893,22.365
1746585266.43,0.086,-0.063,-0.120,0.933,0.165,0.428,-67.530,33.511,21.565
1746585266.45,0.101,-0.001,-0.075,0.761,-0.055,0.449,-66.424,33.356,21.293
1746585266.47,0.038,0.000,-0.017,0.554,0.169,0.328,-65.576,33.275,21.229
1746585266.49,0.062,-0.050,0.064,0.649,0.437,0.323,-64.818,33.534,21.058
1746585266.51,0.067,-0.051,0.006,0.757,0.111,0.462,-63.896,33.684,20.860
1746585266.53,0.075,0.065,0.008,0.871,-0.147,0.466,-62.811,33.532,20.735
1746585266.55,-0.014,0.111,0.054,0.603,-0.573,0.311,-61.826,32.960,20.477
1746585266.57,-0.130,-0.016,-0.034,0.670,-0.276,0.358,-61.074,32.187,20.360
1746585266.59,-0.015,-0.103,0.010,0.549,0.263,0.472,-60.178,32.312,20.390
1746585266.61,0.067,-0.053,0.035,0.459,0.295,0.449,-59.443,32.927,20.700
1746585266.63,0.078,0.085,0.062,0.608,-0.127,0.391,-58.662,33.121,20.828
1746585266.65,0.063,0.151,0.108,0.609,0.034,0.338,-57.842,33.002,20.748
1746585266.67,0.065,0.064,0.014,0.629,0.001,0.399,-57.041,33.005,20.676
1746585266.69,0.075,-0.040,-0.112,0.503,-0.147,0.490,-56.211,32.970,20.821
1746585266.71,0.085,-0.053,-0.017,0.657,-0.097,0.369,-55.390,32.986,20.975
1746585266.73,-0.050,-0.007,0.017,0.770,-0.013,0.108,-54.567,32.590,20.581
1746585266.75,-0.105,-0.009,-0.009,0.895,-0.122,0.127,-53.695,31.952,19.920
1746585266.77,-0.099,0.001,0.004,0.943,-0.068,0.275,-52.668,31.341,19.418
1746585266.79,0.009,-0.002,0.021,0.861,0.200,0.326,-51.610,31.137,19.033
1746585266.81,0.037,-0.040,-0.002,0.809,0.177,0.315,-50.592,31.129,18.835
1746585266.83,0.017,-0.044,-0.020,0.732,0.360,0.245,-49.673,31.176,18.626
1746585266.85,0.049,-0.047,0.062,0.690,0.171,0.232,-48.855,31.341,18.422
1746585266.87,0.036,-0.004,-0.006,0.859,0.057,0.205,-47.967,31.161,18.137
1746585266.89,-0.041,0.020,-0.056,0.903,-0.006,0.163,-46.986,30.793,17.699
1746585266.91,-0.031,-0.063,-0.050,0.895,0.021,0.194,-45.999,30.454,17.267
1746585266.93,0.016,-0.069,0.003,0.804,-0.101,0.262,-45.016,30.096,16.933
1746585266.95,0.058,-0.097,0.027,0.664,-0.062,0.392,-44.112,29.928,16.885
1746585266.97,0.038,-0.069,-0.069,0.665,-0.054,0.418,-43.227,29.909,17.004
1746585266.99,-0.028,-0.036,-0.124,0.705,0.139,0.297,-42.331,29.882,17.012
1746585267.01,-0.011,-0.054,0.075,0.722,0.117,0.213,-41.511,29.937,16.857
1746585267.03,0.030,-0.088,0.072,0.881,-0.119,0.294,-40.568,29.726,16.626
1746585267.05,0.073,-0.049,0.019,0.847,-0.080,0.391,-39.491,29.494,16.477
1746585267.07,0.010,0.010,-0.155,0.608,0.064,0.388,-38.542,29.388,16.489
1746585267.09,-0.059,0.035,-0.003,0.466,0.217,0.379,-37.811,29.697,16.642
1746585267.11,-0.093,0.011,0.053,0.592,0.115,0.317,-37.108,29.935,16.756
1746585267.13,-0.077,-0.053,0.072,0.822,-0.072,0.376,-36.209,29.924,16.695
1746585267.15,-0.051,-0.045,-0.055,0.788,-0.232,0.352,-35.179,29.656,16.620
1746585267.17,-0.038,0.045,-0.113,0.753,-0.130,0.301,-34.224,29.327,16.486
1746585267.19,-0.092,-0.007,-0.090,0.537,0.190,0.372,-33.393,29.330,16.472
1746585267.21,0.004,-0.025,0.066,0.493,0.210,0.464,-32.673,29.708,16.674
1746585267.23,0.046,0.019,0.085,0.691,-0.209,0.464,-31.826,29.775,16.852
1746585267.25,-0.022,-0.030,0.003,0.744,-0.274,0.458,-30.828,29.472,16.910
1746585267.27,-0.035,-0.061,-0.075,0.591,-0.031,0.470,-29.904,29.340,17.009
1746585267.29,-0.043,-0.037,-0.017,0.507,0.060,0.546,-29.083,29.499,17.223
1746585267.31,-0.040,-0.052,0.048,0.505,-0.110,0.630,-28.273,29.653,17.579
1746585267.33,-0.084,-0.092,0.022,0.702,-0.102,0.629,-27.303,29.654,17.910
1746585267.35,-0.079,-0.197,-0.083,0.687,0.067,0.477,-26.285,29.741,18.070
1746585267.37,-0.026,-0.113,-0.041,0.697,-0.219,0.382,-25.366,29.691,18.094
1746585267.39,-0.010,0.040,0.019,0.739,-0.265,0.419,-24.430,29.388,18.041
1746585267.41,0.048,0.126,0.049,0.660,-0.265,0.660,-23.438,29.147,18.187
1746585267.43,0.010,0.161,0.020,0.638,-0.229,0.684,-22.400,29.006,18.547
1746585267.45,-0.084,0.041,-0.016,0.734,-0.094,0.581,-21.372,28.926,18.795
1746585267.47,-0.049,-0.080,-0.013,0.773,-0.063,0.496,-20.319,28.903,18.906
1746585267.49,-0.030,-0.029,0.027,0.768,-0.066,0.441,-19.281,28.835,18.917
1746585267.50,-0.029,0.039,0.096,0.770,-0.137,0.438,-18.276,28.749,18.894
1746585267.52,-0.008,0.091,-0.052,0.886,-0.158,0.395,-17.222,28.530,18.834
1746585267.54,0.031,0.038,-0.073,0.962,-0.186,0.307,-16.107,28.312,18.634
1746585267.56,0.023,-0.006,0.036,0.960,-0.178,0.308,-14.967,28.043,18.367
1746585267.58,0.030,0.030,0.062,0.928,-0.195,0.369,-13.825,27.794,18.146
1746585267.60,0.074,-0.043,0.014,0.908,-0.160,0.458,-12.675,27.573,18.014
1746585267.62,0.035,0.078,-0.012,0.842,-0.106,0.531,-11.524,27.444,18.005
1746585267.64,-0.031,0.117,-0.002,0.872,-0.030,0.518,-10.379,27.367,18.041
1746585267.66,-0.017,0.057,0.001,0.875,-0.103,0.421,-9.267,27.304,18.004
1746585267.68,0.043,0.012,-0.021,0.939,-0.267,0.358,-8.138,27.111,17.853
1746585267.70,0.061,-0.003,-0.024,0.924,-0.183,0.486,-6.976,26.804,17.742
1746585267.72,-0.071,0.116,-0.002,0.915,0.053,0.558,-5.760,26.743,17.733
1746585267.74,-0.201,0.053,0.003,0.935,0.399,0.454,-4.572,26.999,17.692
1746585267.76,-0.096,0.131,-0.021,0.996,0.535,0.414,-3.367,27.561,17.556
1746585267.78,-0.004,0.084,-0.077,0.970,0.423,0.327,-2.176,28.105,17.323
1746585267.80,0.064,0.049,-0.116,0.954,0.182,0.296,-1.041,28.451,17.035
1746585267.82,0.076,0.089,-0.126,0.966,-0.003,0.313,0.066,28.546,16.706
1746585267.84,-0.004,0.024,-0.039,0.986,0.013,0.311,1.232,28.527,16.404
1746585267.86,-0.131,-0.022,-0.000,1.038,0.102,0.254,2.403,28.623,16.035
1746585267.88,-0.075,-0.071,-0.034,1.036,0.084,0.127,3.546,28.762,15.562
1746585267.90,0.096,-0.155,-0.071,1.035,-0.151,0.108,4.646,28.760,14.982
1746585267.92,0.174,-0.184,-0.041,0.898,-0.269,0.188,5.693,28.519,14.474
1746585267.94,0.014,-0.030,-0.026,0.836,-0.094,0.239,6.691,28.326,14.136
1746585267.96,-0.136,0.052,0.005,0.799,0.045,0.230,7.639,28.317,13.825
1746585267.98,0.037,-0.104,-0.014,0.772,0.066,0.195,8.526,28.443,13.486
1746585268.00,0.150,-0.085,-0.082,0.721,0.013,0.217,9.397,28.524,13.174
1746585268.02,0.092,-0.062,-0.140,0.605,0.008,0.266,10.200,28.547,12.945
1746585268.04,-0.050,0.030,-0.079,0.512,0.131,0.244,10.897,28.634,12.787
1746585268.06,-0.003,0.059,-0.144,0.465,0.199,0.199,11.505,28.831,12.640
