Time,AccX,AccY,AccZ,GyroX,GyroY,GyroZ,Pitch,Roll,Yaw
1746585765.29,-0.013,0.026,0.008,0.291,0.398,0.301,13.136,-1.006,18.476
1746585765.31,-0.075,0.037,0.117,0.211,0.199,0.271,13.423,-0.737,18.815
1746585765.33,-0.062,-0.000,0.112,0.079,0.038,0.243,13.587,-0.681,19.122
1746585765.35,-0.038,0.018,0.032,0.103,-0.345,0.128,13.648,-0.867,19.352
1746585765.37,-0.020,0.024,0.005,0.325,-0.830,0.036,13.909,-1.575,19.437
1746585765.39,0.024,0.150,0.085,0.132,-0.752,-0.032,14.229,-2.609,19.451
1746585765.41,-0.095,0.017,0.046,-0.037,-0.573,-0.078,14.238,-3.254,19.360
1746585765.43,0.013,0.024,0.104,-0.161,0.056,-0.019,14.160,-3.599,19.277
1746585765.45,-0.188,0.017,0.077,-0.438,0.513,0.001,13.798,-3.132,19.240
1746585765.47,-0.043,0.083,-0.045,-0.322,0.719,-0.009,13.324,-2.492,19.217
1746585765.49,-0.117,0.023,0.083,-0.007,1.103,0.047,13.145,-1.359,19.220
1746585765.51,-0.081,-0.064,0.140,0.104,0.946,0.215,13.220,-0.251,19.391
1746585765.53,-0.055,0.007,0.149,-0.028,0.860,0.279,13.291,0.689,19.680
1746585765.55,-0.045,0.037,0.159,-0.370,1.412,0.459,13.087,1.829,20.097
1746585765.57,-0.071,0.064,0.177,-0.697,2.197,0.727,12.489,3.738,20.838
1746585765.59,-0.093,0.060,0.036,-0.563,1.994,0.892,11.802,6.033,21.867
1746585765.61,-0.086,0.038,-0.107,-0.363,1.411,0.948,11.451,7.681,22.998
1746585765.63,-0.106,0.085,0.147,-1.241,2.823,0.922,10.822,9.599,24.214
1746585765.65,-0.050,0.242,0.612,-3.960,7.726,0.237,8.181,15.245,25.545
1746585765.67,-0.558,0.355,-0.199,-0.616,-1.709,0.434,5.685,18.233,26.534
1746585765.69,0.220,-0.113,0.395,-1.058,-0.534,0.818,4.990,17.092,27.447
1746585765.71,-0.247,0.311,0.126,-1.420,-0.727,1.222,4.096,16.041,28.881
1746585765.73,0.049,0.314,0.503,-2.492,-0.288,1.924,2.501,15.303,31.227
1746585765.75,-0.090,0.410,0.735,-3.989,0.079,1.750,-0.608,15.147,34.386
1746585765.77,-0.410,0.484,0.078,-3.141,0.869,1.009,-4.254,15.751,36.975
1746585765.79,-0.101,0.405,0.077,-2.849,1.673,1.026,-7.089,17.485,38.986
1746585765.81,-0.099,0.445,0.346,-3.344,1.564,1.052,-10.040,19.733,41.279
1746585765.83,-0.257,0.456,0.319,-3.628,1.119,0.814,-13.420,21.800,43.793
1746585765.85,-0.427,0.340,0.053,-3.281,0.475,0.276,-16.845,23.289,46.023
1746585765.87,-0.360,0.397,-0.077,-2.964,0.617,-0.412,-20.117,24.243,47.397
1746585765.89,0.023,0.396,-0.056,-3.135,1.451,-0.658,-23.537,25.748,48.335
1746585765.91,0.339,0.406,-0.181,-2.997,2.279,-0.444,-27.013,28.426,49.474
1746585765.93,0.198,0.296,-0.287,-2.735,2.355,-0.628,-30.005,31.694,50.806
1746585765.95,-0.001,0.102,-0.333,-2.574,1.256,-0.965,-33.086,34.560,51.917
1746585765.97,0.053,0.182,-0.396,-2.375,1.371,-1.447,-36.254,36.260,52.455
1746585765.99,0.635,0.263,-0.469,-2.318,1.971,-1.020,-39.247,38.500,53.005
1746585766.01,0.964,0.152,-0.522,-2.262,2.829,-0.214,-41.713,42.256,54.560
1746585766.03,0.679,0.020,-0.571,-1.892,3.169,0.102,-43.412,47.254,56.794
1746585766.05,0.419,-0.096,-0.507,-1.682,2.809,0.192,-44.596,52.322,59.107
1746585766.07,0.425,-0.175,-0.470,-1.464,2.272,0.335,-45.390,56.858,61.418
1746585766.09,0.439,-0.158,-0.387,-1.536,1.787,0.558,-45.860,60.870,63.817
1746585766.11,0.538,-0.214,-0.388,-1.525,1.697,0.999,-45.874,64.885,66.705
1746585766.13,0.393,-0.281,-0.341,-1.529,1.678,1.158,-45.382,68.935,69.620
1746585766.15,0.210,-0.386,-0.417,-1.222,1.423,1.146,-44.670,72.719,72.430
1746585766.17,-0.167,-0.465,-0.766,0.012,1.636,0.537,-43.896,75.369,73.799
1746585766.19,-0.280,-0.431,-0.529,0.062,2.007,0.054,-43.614,77.298,73.632
1746585766.21,0.118,-0.250,-0.216,-0.079,2.432,0.093,-43.611,79.919,73.737
1746585766.23,0.182,-0.091,-0.257,0.172,1.559,0.492,-43.270,82.098,73.662
1746585766.25,0.070,-0.229,-0.324,0.411,0.902,0.717,-42.494,83.249,73.336
1746585766.27,-0.098,-0.296,-0.325,0.458,0.594,0.541,-41.697,83.701,72.757
1746585766.29,-0.114,-0.257,-0.172,0.358,0.326,0.325,-41.165,83.901,72.214
1746585766.31,-0.129,-0.206,-0.145,0.346,-0.118,0.124,-40.858,83.691,71.700
1746585766.33,-0.154,-0.114,0.073,0.000,-0.510,-0.159,-40.855,83.140,71.438
1746585766.35,-0.130,-0.086,0.062,-0.032,-0.912,-0.516,-41.240,82.332,71.416
1746585766.37,-0.167,0.008,0.094,-0.207,-1.196,-0.796,-42.012,81.139,71.426
1746585766.39,-0.034,0.070,0.031,-0.154,-1.353,-0.728,-42.938,79.744,71.536
1746585766.41,0.183,0.131,0.100,-0.120,-1.188,-0.377,-43.587,78.272,71.559
1746585766.43,0.066,0.148,0.114,-0.019,-1.143,-0.252,-43.903,77.001,71.611
1746585766.45,-0.232,0.100,0.054,-0.009,-1.313,-0.620,-44.364,75.460,71.430
1746585766.47,-0.270,0.158,-0.029,-0.087,-1.058,-0.740,-45.172,73.828,71.179
1746585766.49,-0.081,0.327,-0.090,-0.145,-1.033,-0.749,-46.029,72.470,71.042
1746585766.51,0.143,0.405,-0.049,-0.216,-0.509,-0.785,-46.955,71.453,70.925
1746585766.53,0.143,0.174,0.064,-0.077,-0.373,-0.432,-47.661,70.734,70.708
1746585766.55,-0.043,0.220,-0.049,-0.343,0.420,-0.383,-48.144,70.849,70.774
1746585766.57,-0.189,0.145,-0.119,-0.389,0.047,-0.592,-48.756,71.616,71.236
1746585766.59,0.032,0.177,-0.182,0.354,-1.400,-1.247,-49.874,70.459,70.790
1746585766.61,0.155,0.169,0.103,0.581,-0.817,-0.688,-50.771,67.814,69.150
1746585766.63,0.005,0.009,0.095,0.196,-0.347,-0.136,-51.000,66.569,68.272
1746585766.65,-0.168,0.012,-0.038,0.185,-0.657,-0.227,-51.012,65.742,67.935
1746585766.67,-0.102,0.147,-0.033,0.310,-0.729,-0.471,-51.329,64.313,67.206
1746585766.69,-0.027,0.118,0.167,0.215,-0.146,-0.245,-51.548,63.215,66.438
1746585766.71,-0.065,0.045,0.152,0.056,0.178,-0.281,-51.727,62.904,66.017
1746585766.73,0.110,-0.097,0.103,-0.099,0.979,-0.339,-52.054,63.279,65.761
1746585766.75,0.185,-0.205,0.230,-0.304,2.009,-0.264,-52.489,65.123,65.878
1746585766.77,0.075,-0.265,-0.035,0.746,1.189,0.132,-52.328,66.473,65.356
1746585766.79,0.028,-0.041,-0.257,0.385,0.648,0.207,-51.883,66.663,64.340
1746585766.81,-0.049,-0.003,-0.158,-0.016,0.012,0.462,-51.483,67.174,64.431
1746585766.83,-0.034,0.089,-0.127,0.524,-0.308,0.126,-50.963,66.712,64.210
1746585766.85,0.075,0.247,0.053,0.036,0.551,-0.341,-51.036,66.265,63.500
1746585766.87,0.087,-0.170,-0.027,-0.262,-0.018,0.007,-51.247,66.916,63.723
1746585766.89,-0.018,-0.242,-0.242,-0.285,-1.105,-0.088,-51.372,66.563,64.127
1746585766.90,-0.203,-0.031,-0.195,-0.291,-1.825,-0.810,-52.021,64.869,64.326
1746585766.93,-0.143,-0.451,0.102,-0.271,-1.281,-1.085,-53.110,62.740,63.954
1746585766.94,-0.223,-0.595,0.104,-0.474,-1.167,-1.194,-54.531,61.000,63.513
1746585766.96,-0.050,-0.602,-0.015,-0.825,-1.332,-0.970,-55.954,59.512,63.488
1746585766.98,0.032,-0.419,0.006,-1.308,-1.903,-0.366,-57.325,58.838,64.660
1746585767.00,0.300,0.123,0.029,-1.516,-1.401,0.466,-58.102,59.137,67.425
1746585767.02,0.317,0.405,0.193,-1.193,-0.110,0.693,-58.288,61.110,70.794
1746585767.04,0.156,0.318,0.119,-0.280,0.648,0.557,-58.026,63.225,72.789
1746585767.06,0.019,0.198,0.119,-0.124,0.523,0.373,-57.633,64.624,73.551
1746585767.08,0.126,0.533,0.044,-0.080,0.372,-0.165,-57.510,65.233,73.853
1746585767.10,0.281,0.580,0.072,-0.118,0.788,-0.338,-58.018,65.822,73.651
1746585767.12,0.168,0.158,-0.103,-0.326,0.169,0.107,-58.139,66.802,74.161
1746585767.14,-0.332,0.146,-0.141,-0.205,-0.420,-0.291,-58.331,67.008,74.616
1746585767.16,-0.284,0.076,-0.041,-0.293,-0.402,-0.648,-58.906,66.527,74.670
1746585767.18,0.062,0.042,0.026,-0.342,0.090,-1.012,-59.991,66.221,74.560
1746585767.20,0.013,-0.000,0.124,-0.266,0.882,-0.981,-61.156,66.540,74.269
1746585767.22,-0.123,-0.049,0.115,-0.329,1.188,-1.009,-62.349,67.519,74.004
1746585767.24,-0.192,-0.120,0.059,-0.143,1.278,-0.989,-63.515,68.676,73.673
1746585767.26,-0.213,-0.166,-0.070,0.409,1.061,-1.173,-64.589,68.887,72.430
1746585767.28,0.027,-0.435,0.014,0.409,1.913,-1.162,-65.671,68.046,69.809
1746585767.30,0.083,-0.313,0.187,-1.462,2.727,-2.020,-67.373,70.411,69.352
1746585767.32,-0.068,-0.001,0.001,-2.916,1.888,-3.095,-71.000,77.960,74.513
1746585767.34,-0.200,-0.109,-0.376,-2.443,-0.277,-3.889,-75.368,88.088,83.963
1746585767.36,-0.155,0.056,-0.639,-0.206,-2.639,-3.627,-79.786,93.450,91.318
1746585767.38,-0.118,0.075,-0.213,0.809,-3.217,-2.440,-83.252,86.484,87.906
1746585767.40,-0.043,0.379,0.138,0.199,-0.956,-1.578,-85.352,73.274,77.167
1746585767.42,0.035,0.458,0.204,-0.395,0.688,-1.333,-86.945,67.668,71.515
1746585767.44,0.056,0.269,-0.134,-0.365,0.095,-1.330,-88.509,63.346,66.540
1746585767.46,-0.045,0.151,-0.321,-0.010,-1.286,-1.156,-89.523,-19.033,-15.159
1746585767.48,-0.142,0.139,-0.323,0.021,-2.105,-0.775,-88.670,-69.691,-63.768
1746585767.50,-0.239,0.031,-0.136,0.568,-1.102,-0.221,-88.078,-67.626,-59.731
1746585767.52,-0.306,0.010,0.133,1.009,0.261,-0.125,-87.423,-49.175,-40.874
1746585767.54,-0.259,0.111,0.130,0.705,0.508,-0.104,-86.589,-37.520,-29.713
1746585767.56,-0.165,-0.031,-0.003,0.614,0.627,0.089,-85.980,-30.772,-23.562
1746585767.58,-0.079,-0.017,0.020,0.571,1.172,0.152,-85.433,-23.730,-17.495
1746585767.60,-0.019,0.003,0.063,0.466,1.777,-0.059,-84.907,-18.899,-14.383
1746585767.62,0.019,-0.248,0.031,0.270,1.605,-0.127,-84.470,-16.477,-13.956
1746585767.64,0.027,-0.274,0.017,0.151,0.991,-0.160,-84.202,-16.080,-15.062
1746585767.66,-0.013,-0.161,0.029,0.052,0.284,-0.047,-84.045,-16.150,-15.874
1746585767.68,-0.089,-0.092,-0.010,-0.196,-0.491,0.014,-84.111,-16.588,-16.192
1746585767.70,-0.075,-0.135,-0.087,-0.418,-1.100,0.068,-84.468,-18.233,-16.902
1746585767.72,-0.033,-0.068,-0.105,-0.550,-1.087,0.138,-85.036,-20.391,-17.734
1746585767.74,-0.002,0.043,-0.040,-0.520,-0.317,0.242,-85.704,-21.508,-18.009
1746585767.76,-0.043,0.046,0.010,-0.254,0.484,0.332,-86.247,-19.342,-15.964
1746585767.78,-0.173,-0.002,-0.028,0.025,0.846,0.397,-86.475,-12.645,-10.058
1746585767.80,-0.233,0.041,-0.122,-0.035,0.690,0.415,-86.518,-4.124,-2.437
1746585767.82,-0.201,0.040,-0.181,-0.189,0.357,0.413,-86.660,4.439,5.544
1746585767.84,-0.193,0.128,-0.219,-0.164,0.059,0.242,-86.812,12.045,12.912
1746585767.86,-0.136,0.098,-0.230,-0.006,-0.264,0.097,-86.869,15.600,16.622
1746585767.88,-0.086,0.011,-0.082,0.125,-0.030,0.183,-86.764,17.243,18.479
1746585767.90,-0.065,-0.030,0.047,0.065,0.487,0.287,-86.539,21.763,22.730
1746585767.92,0.010,0.035,0.061,0.147,0.647,0.158,-86.354,25.645,25.971
1746585767.94,0.104,-0.013,0.004,0.113,0.427,0.187,-86.090,27.553,27.244
1746585767.96,0.168,-0.091,-0.051,-0.098,0.100,0.189,-85.987,30.675,30.066
1746585767.98,0.196,-0.120,0.007,-0.147,-0.163,0.194,-86.004,34.307,33.747
1746585768.00,0.172,-0.076,0.103,-0.075,-0.578,0.221,-85.969,37.782,37.635
1746585768.02,0.236,0.022,0.006,-0.083,-0.936,0.142,-85.889,39.959,40.713
1746585768.04,0.281,0.144,-0.139,-0.188,-1.031,0.050,-85.956,41.012,42.904
1746585768.06,0.118,0.106,-0.048,-0.217,-0.834,0.190,-86.041,43.876,46.884
1746585768.08,-0.072,0.023,0.083,-0.124,-0.421,0.125,-86.042,47.185,50.906
1746585768.10,-0.119,-0.036,0.115,-0.096,-0.258,0.034,-86.058,48.857,52.954
1746585768.12,-0.043,-0.019,0.080,-0.127,-0.198,0.031,-86.121,50.242,54.602
1746585768.14,0.073,0.005,-0.017,-0.089,0.027,0.002,-86.178,52.126,56.612
1746585768.16,0.152,0.014,0.008,0.007,0.326,-0.053,-86.236,52.348,56.615
1746585768.18,0.151,-0.018,0.024,0.018,0.280,0.005,-86.247,52.358,56.239
1746585768.20,0.101,-0.004,-0.038,0.004,0.068,-0.000,-86.231,52.359,56.051
1746585768.22,0.097,0.013,-0.047,0.005,0.021,-0.036,-86.253,52.238,55.895
1746585768.24,0.102,0.038,0.043,0.058,0.052,-0.012,-86.252,51.540,55.148
1746585768.26,0.050,0.032,0.161,0.011,-0.048,-0.015,-86.221,50.939,54.531
1746585768.28,-0.021,0.005,0.135,-0.087,-0.172,-0.103,-86.302,50.838,54.567
1746585768.30,-0.062,-0.013,0.032,0.016,-0.097,-0.166,-86.460,49.808,53.709
1746585768.32,-0.098,0.017,-0.027,0.246,-0.104,-0.211,-86.515,45.629,49.601
1746585768.34,-0.086,0.081,-0.110,0.444,-0.392,-0.273,-86.410,37.678,41.928
1746585768.36,-0.064,0.116,-0.084,0.610,-0.214,-0.154,-86.048,28.983,33.612
1746585768.38,-0.140,0.143,-0.016,0.687,0.145,-0.017,-85.413,23.489,28.125
1746585768.40,-0.243,0.191,-0.040,0.733,0.192,-0.069,-84.676,19.989,24.389
1746585768.42,-0.266,0.104,-0.121,0.772,0.288,-0.197,-83.894,15.965,20.093
1746585768.44,-0.234,-0.143,-0.068,0.631,0.695,-0.167,-83.150,12.861,16.446
1746585768.46,-0.179,-0.251,0.022,0.373,1.082,-0.141,-82.635,11.608,14.097
1746585768.48,-0.115,-0.186,0.010,0.187,0.848,-0.141,-82.345,11.066,12.412
1746585768.50,-0.009,-0.103,0.062,-0.021,0.450,-0.102,-82.285,10.620,11.219
1746585768.52,0.055,-0.110,0.087,-0.203,0.429,-0.042,-82.422,10.711,10.836
1746585768.54,-0.038,-0.163,0.053,-0.315,0.481,-0.134,-82.737,10.999,10.587
1746585768.56,-0.130,-0.194,0.050,-0.305,0.362,-0.128,-83.132,10.734,9.825
1746585768.58,-0.133,-0.124,-0.018,-0.238,0.214,-0.016,-83.441,10.811,9.585
1746585768.60,-0.078,0.009,-0.074,-0.408,0.065,0.136,-83.770,12.152,10.751
1746585768.62,-0.042,0.078,-0.205,-0.568,-0.070,0.284,-84.272,15.778,14.435
1746585768.64,-0.048,0.128,-0.249,-0.454,0.315,0.193,-84.747,20.679,19.241
1746585768.66,-0.061,0.141,-0.102,-0.272,0.545,0.027,-85.089,24.298,22.360
1746585768.68,-0.108,0.109,0.090,-0.086,0.559,-0.026,-85.275,25.791,23.172
1746585768.70,-0.142,0.006,-0.024,-0.032,-0.045,-0.033,-85.342,26.195,23.288
1746585768.72,-0.068,-0.090,-0.052,0.071,0.306,-0.074,-85.352,25.457,22.483
1746585768.74,0.024,-0.057,0.006,0.188,0.669,-0.035,-85.247,24.558,20.980
1746585768.76,0.069,0.097,0.012,0.292,0.663,0.021,-84.997,23.905,19.537
1746585768.78,0.034,0.158,-0.045,0.304,0.478,0.055,-84.651,23.487,18.478
1746585768.80,-0.003,0.063,0.021,0.269,1.035,0.034,-84.330,23.398,17.585
1746585768.82,0.028,-0.113,0.075,0.181,1.325,0.049,-84.072,24.227,16.992
1746585768.84,0.134,-0.140,-0.004,0.072,1.066,-0.015,-83.934,25.274,16.654
1746585768.86,0.255,-0.022,-0.074,0.060,0.772,-0.019,-83.886,25.893,16.214
1746585768.88,0.283,0.094,-0.271,0.179,0.231,-0.092,-83.795,25.550,15.256
1746585768.90,0.259,0.063,-0.357,0.414,-0.283,-0.194,-83.561,22.807,12.583
1746585768.92,0.189,-0.061,-0.135,0.426,-0.494,-0.101,-83.148,19.280,9.458
1746585768.94,0.156,-0.071,-0.079,0.110,-0.975,0.072,-82.847,17.545,8.558
1746585768.96,0.109,-0.020,-0.004,-0.057,-0.963,0.073,-82.813,17.123,9.297
1746585768.98,0.015,0.018,0.058,0.006,-0.671,0.011,-82.842,16.633,9.750
1746585769.00,-0.102,0.036,0.097,0.024,-0.516,0.010,-82.810,15.951,9.723
1746585769.02,-0.200,-0.012,0.062,0.025,-0.464,-0.016,-82.789,15.370,9.686
1746585769.04,-0.201,0.011,-0.015,-0.007,-0.551,-0.034,-82.779,14.470,9.386
1746585769.06,-0.018,0.054,0.032,-0.082,-0.035,0.013,-82.844,14.089,9.386
1746585769.08,0.126,0.026,0.188,-0.088,0.493,0.134,-82.912,15.190,10.191
1746585769.10,0.087,-0.050,0.232,-0.251,0.413,0.193,-83.027,17.765,12.196
1746585769.12,-0.060,-0.100,0.079,-0.399,-0.349,0.071,-83.346,20.188,14.556
1746585769.14,-0.081,-0.139,-0.207,-0.082,-0.818,-0.050,-83.648,20.364,15.517
1746585769.16,0.075,-0.003,-0.236,0.165,-0.351,0.097,-83.551,19.445,15.278
1746585769.18,0.130,0.172,-0.127,-0.068,-0.233,0.252,-83.418,20.685,16.806
1746585769.20,0.011,0.137,-0.138,-0.070,-0.393,0.410,-83.379,23.660,20.171
1746585769.22,-0.100,-0.026,-0.097,0.024,-0.171,0.452,-83.167,27.316,24.220
1746585769.24,-0.172,-0.135,0.061,0.163,0.214,0.244,-82.894,30.000,26.854
1746585769.26,-0.326,-0.139,-0.071,0.405,-0.435,-0.138,-82.567,29.218,26.100
1746585769.28,-0.475,-0.018,-0.212,0.485,-0.935,-0.627,-82.297,23.551,21.275
1746585769.30,-0.418,0.052,-0.121,0.459,-0.674,-0.758,-82.052,15.513,14.097
1746585769.32,-0.094,0.103,0.027,0.231,-0.312,-0.388,-81.802,9.524,8.637
1746585769.34,0.279,0.096,0.083,0.041,0.008,0.152,-81.691,8.408,7.670
1746585769.36,0.419,0.040,0.066,0.143,0.386,0.181,-81.569,10.279,9.351
1746585769.38,0.217,-0.048,0.032,0.316,0.415,0.014,-81.281,10.903,9.456
1746585769.40,-0.033,-0.085,-0.048,0.271,0.004,-0.022,-80.936,10.749,9.052
1746585769.42,-0.139,-0.077,-0.001,0.103,-0.316,-0.045,-80.734,10.042,8.505
1746585769.44,-0.090,-0.018,0.017,0.091,-0.551,-0.041,-80.655,9.146,8.148
1746585769.46,0.006,0.058,0.057,0.173,-0.319,-0.005,-80.508,8.313,7.816
1746585769.48,0.006,0.077,0.007,0.236,-0.049,0.021,-80.273,7.976,7.696
1746585769.50,-0.036,0.048,0.049,0.270,0.219,0.029,-79.974,8.004,7.608
1746585769.52,-0.094,0.004,0.046,0.271,0.271,0.025,-79.670,8.239,7.558
1746585769.54,-0.113,-0.022,0.035,0.322,0.168,0.032,-79.330,8.378,7.414
1746585769.56,-0.062,0.014,0.015,0.352,0.007,0.080,-78.935,8.474,7.439
1746585769.58,0.013,0.028,0.059,0.347,0.175,0.163,-78.523,8.941,7.815
1746585769.60,-0.002,0.065,-0.008,0.558,0.207,0.170,-78.009,9.772,8.429
1746585769.62,-0.118,0.108,-0.193,0.862,-0.129,0.024,-77.167,9.717,8.296
1746585769.64,-0.148,0.086,-0.183,0.721,-0.123,0.004,-76.226,8.788,7.563
1746585769.66,-0.107,-0.006,0.109,0.234,0.506,0.240,-75.673,9.166,7.751
1746585769.68,-0.111,-0.096,0.358,-0.062,1.054,0.347,-75.538,11.461,9.148
1746585769.70,-0.222,-0.165,0.232,0.130,0.523,0.152,-75.472,13.613,10.345
1746585769.71,-0.310,-0.124,0.000,0.433,-0.316,-0.181,-75.147,13.328,9.972
1746585769.73,-0.273,-0.098,0.047,0.410,-0.058,-0.341,-74.714,11.408,8.315
1746585769.75,-0.127,-0.101,0.137,0.092,0.436,-0.106,-74.478,10.457,7.058
1746585769.77,-0.014,-0.016,0.029,-0.071,0.458,0.213,-74.468,11.289,7.354
1746585769.79,0.025,0.121,-0.292,0.072,0.125,0.205,-74.458,12.628,8.391
1746585769.81,0.043,0.228,-0.500,0.512,0.030,-0.060,-74.092,12.700,8.420
1746585769.83,-0.028,0.176,-0.242,0.486,0.082,-0.089,-73.524,11.947,7.555
1746585769.85,-0.166,-0.024,-0.021,0.306,0.011,-0.006,-73.098,11.590,7.095
1746585769.87,-0.300,-0.206,-0.104,0.398,-0.077,0.023,-72.734,11.260,6.860
1746585769.89,-0.133,-0.213,-0.097,0.506,0.533,0.089,-72.184,11.341,6.670
1746585769.91,0.237,-0.096,0.083,0.312,0.668,0.271,-71.693,12.419,7.021
1746585769.93,0.332,-0.038,0.013,0.587,0.231,0.282,-71.173,13.634,7.742
1746585769.95,0.227,-0.060,-0.138,1.131,0.037,0.184,-70.139,13.797,7.785
1746585769.97,0.144,-0.042,-0.064,1.321,-0.151,0.187,-68.699,13.387,7.382
1746585769.99,0.131,0.006,0.135,1.108,-0.260,0.304,-67.276,12.946,7.231
1746585770.01,0.106,-0.063,0.166,1.079,0.167,0.522,-65.990,13.335,7.724
1746585770.03,0.004,-0.062,-0.005,1.382,0.321,0.412,-64.493,14.155,8.237
1746585770.05,-0.102,0.041,0.047,1.470,-0.093,0.159,-62.820,14.111,8.024
1746585770.07,-0.074,0.112,0.143,1.445,-0.264,0.205,-61.180,13.425,7.546
1746585770.09,0.003,0.058,0.070,1.350,-0.010,0.374,-59.489,13.221,7.440
1746585770.11,0.051,-0.038,0.122,1.209,-0.127,0.485,-58.012,13.389,7.752
1746585770.13,-0.028,0.012,0.073,1.435,-0.050,0.326,-56.432,13.482,7.996
1746585770.15,-0.241,-0.003,-0.116,1.443,-0.233,0.123,-54.755,13.084,7.689
1746585770.17,-0.245,-0.140,-0.093,1.240,0.340,0.240,-53.204,12.967,7.434
1746585770.19,-0.170,-0.145,-0.097,1.053,0.306,0.427,-51.865,13.419,7.566
1746585770.21,0.022,-0.044,-0.028,1.033,0.233,0.450,-50.597,14.038,7.913
1746585770.23,0.038,0.043,0.028,1.016,0.168,0.405,-49.345,14.482,8.217
1746585770.25,-0.007,-0.018,0.022,1.151,0.285,0.296,-48.039,14.790,8.330
1746585770.27,-0.032,-0.108,-0.014,1.160,0.209,0.217,-46.694,15.011,8.245
1746585770.29,-0.025,-0.083,-0.024,1.052,0.190,0.263,-45.383,15.154,8.114
1746585770.31,0.073,0.011,0.009,1.044,0.027,0.515,-44.119,15.369,8.280
1746585770.33,0.071,0.048,-0.015,0.912,0.161,0.549,-42.860,15.753,8.691
1746585770.35,-0.043,-0.041,-0.054,0.807,0.162,0.488,-41.765,16.193,9.105
1746585770.37,-0.005,0.007,0.024,0.815,0.268,0.432,-40.741,16.678,9.424
1746585770.39,-0.056,0.056,0.061,0.948,0.219,0.308,-39.659,17.084,9.585
1746585770.41,-0.130,-0.025,-0.022,1.012,0.074,0.332,-38.472,17.229,9.585
1746585770.43,0.013,-0.050,0.007,0.901,0.217,0.347,-37.309,17.426,9.636
1746585770.45,0.059,-0.043,-0.025,0.962,0.207,0.365,-36.182,17.732,9.729
1746585770.47,-0.027,0.006,-0.047,0.891,0.298,0.294,-35.035,18.040,9.789
1746585770.49,-0.081,0.003,0.022,0.896,0.308,0.304,-33.985,18.381,9.790
1746585770.51,0.020,-0.014,0.057,0.911,0.303,0.325,-32.879,18.741,9.797
1746585770.53,0.092,-0.088,0.013,0.981,0.321,0.315,-31.737,19.110,9.809
1746585770.55,0.018,-0.073,-0.062,0.982,0.324,0.186,-30.587,19.422,9.673
1746585770.57,0.044,0.055,-0.048,0.919,0.222,0.217,-29.495,19.634,9.493
1746585770.59,0.002,0.124,0.049,0.970,0.074,0.195,-28.415,19.737,9.347
1746585770.61,-0.009,0.068,0.181,1.087,-0.006,0.249,-27.229,19.669,9.143
1746585770.63,0.016,-0.087,-0.070,1.055,0.223,0.168,-25.948,19.702,8.950
1746585770.65,-0.094,-0.042,-0.104,0.927,0.200,0.130,-24.867,19.853,8.691
1746585770.67,0.015,0.092,-0.023,0.916,0.168,0.136,-23.814,19.987,8.464
1746585770.69,-0.025,0.104,0.067,1.014,-0.000,0.121,-22.730,19.974,8.193
1746585770.71,0.010,0.008,0.029,0.937,0.057,0.181,-21.617,19.878,7.957
1746585770.73,0.051,-0.087,-0.123,0.919,0.014,0.097,-20.563,19.869,7.737
1746585770.75,-0.023,0.006,-0.079,0.772,0.027,0.137,-19.604,19.811,7.507
1746585770.77,-0.003,0.057,-0.038,0.853,-0.063,0.084,-18.708,19.752,7.318
1746585770.79,-0.009,0.061,0.034,0.921,-0.123,0.057,-17.726,19.561,7.029
1746585770.81,-0.001,0.029,0.064,0.914,-0.210,0.145,-16.696,19.270,6.772
1746585770.83,0.023,-0.091,-0.032,0.819,-0.214,0.170,-15.696,18.964,6.605
1746585770.85,0.013,-0.111,-0.148,0.821,-0.146,0.186,-14.760,18.737,6.498
1746585770.87,0.017,-0.090,-0.028,0.811,-0.127,0.163,-13.806,18.548,6.382
1746585770.89,-0.066,-0.005,0.089,0.829,-0.019,0.148,-12.871,18.451,6.261
1746585770.91,-0.105,0.043,0.041,0.840,0.007,0.276,-11.889,18.404,6.179
1746585770.93,-0.050,-0.111,-0.060,0.893,-0.186,0.161,-10.866,18.302,6.098
1746585770.95,0.016,-0.192,0.021,0.842,-0.155,0.111,-9.873,18.056,5.915
1746585770.97,-0.050,-0.144,-0.031,0.762,0.023,0.122,-8.963,17.968,5.755
1746585770.99,-0.225,0.069,0.144,0.668,0.366,0.154,-8.122,18.162,5.668
1746585771.01,-0.229,0.082,-0.138,0.759,0.531,0.241,-7.277,18.645,5.644
1746585771.03,-0.019,0.049,-0.091,0.849,0.316,0.105,-6.343,19.126,5.521
1746585771.05,0.088,-0.129,-0.066,0.878,0.235,0.062,-5.386,19.408,5.275
1746585771.07,-0.054,-0.036,-0.041,0.951,0.093,-0.028,-4.389,19.584,4.957
1746585771.09,0.017,-0.019,-0.044,0.904,0.080,-0.006,-3.397,19.645,4.553
1746585771.11,-0.035,0.085,-0.030,0.810,0.123,0.017,-2.477,19.727,4.236
1746585771.13,-0.108,-0.016,-0.161,0.843,0.098,-0.056,-1.590,19.844,3.939
1746585771.15,0.056,-0.120,-0.116,0.853,-0.021,-0.186,-0.727,19.871,3.450
1746585771.17,0.083,-0.079,-0.072,0.804,-0.118,-0.142,0.099,19.778,2.951
1746585771.19,-0.032,-0.062,-0.083,0.742,-0.032,-0.090,0.890,19.680,2.523
1746585771.21,-0.009,-0.057,-0.025,0.600,0.071,0.005,1.601,19.727,2.220
1746585771.23,-0.000,-0.095,-0.116,0.580,-0.041,-0.054,2.224,19.778,1.982
1746585771.25,0.126,-0.109,-0.086,0.510,-0.217,0.013,2.807,19.634,1.726
1746585771.27,0.062,-0.041,-0.044,0.457,-0.265,0.132,3.354,19.350,1.635
1746585771.29,-0.075,-0.034,0.033,0.395,-0.084,0.163,3.874,19.128,1.637
1746585771.31,-0.104,-0.048,0.003,0.415,0.020,0.142,4.363,19.123,1.663
1746585771.33,-0.001,0.016,-0.040,0.413,-0.037,0.149,4.877,19.114,1.647
1746585771.35,0.005,-0.015,-0.043,0.361,-0.046,0.187,5.352,19.047,1.689
1746585771.37,-0.057,0.004,-0.049,0.352,-0.023,0.191,5.810,19.000,1.761
1746585771.39,-0.070,0.016,-0.047,0.384,0.023,0.150,6.268,19.000,1.821
1746585771.41,-0.086,0.001,-0.029,0.408,0.037,0.069,6.735,19.054,1.788
1746585771.43,-0.033,-0.003,-0.094,0.419,-0.034,0.025,7.199,19.084,1.684
1746585771.45,-0.021,0.002,-0.061,0.352,-0.053,0.048,7.625,19.035,1.575
1746585771.47,-0.042,0.003,-0.091,0.338,-0.057,0.016,8.006,18.980,1.485
1746585771.49,-0.075,-0.008,-0.058,0.348,-0.011,-0.048,8.364,18.985,1.338
1746585771.51,-0.010,-0.044,-0.085,0.354,-0.081,-0.103,8.715,18.957,1.110
1746585771.53,0.026,-0.041,-0.053,0.280,-0.152,-0.094,9.024,18.855,0.879
1746585771.55,-0.030,-0.044,-0.120,0.218,-0.178,-0.126,9.263,18.716,0.670
1746585771.57,0.010,-0.120,-0.172,0.113,-0.259,-0.187,9.378,18.487,0.430
1746585771.59,0.092,-0.132,-0.159,-0.031,-0.274,-0.143,9.370,18.212,0.218
1746585771.61,-0.013,-0.128,-0.129,-0.184,-0.194,-0.118,9.207,17.964,0.115
1746585771.63,-0.007,-0.065,-0.152,-0.316,-0.101,-0.120,8.897,17.818,0.065
1746585771.65,0.055,-0.091,-0.248,-0.442,-0.152,-0.115,8.443,17.665,0.063
1746585771.67,0.062,-0.102,-0.180,-0.663,-0.053,-0.096,7.807,17.536,0.138
1746585771.69,0.052,-0.093,-0.266,-0.828,-0.051,-0.071,6.964,17.452,0.299
1746585771.71,0.091,-0.078,-0.187,-1.026,-0.019,0.024,5.952,17.362,0.588
1746585771.73,0.025,-0.065,-0.160,-1.193,0.052,0.057,4.750,17.347,1.026
1746585771.75,0.022,-0.064,-0.160,-1.334,0.121,-0.019,3.401,17.391,1.493
1746585771.77,0.095,-0.093,-0.203,-1.429,-0.017,-0.041,1.888,17.442,1.922
1746585771.79,0.020,-0.041,-0.164,-1.558,0.065,-0.015,0.239,17.464,2.406
1746585771.81,-0.037,-0.037,-0.057,-1.605,0.185,-0.042,-1.537,17.709,2.935
1746585771.83,0.018,-0.089,-0.054,-1.670,0.308,-0.023,-3.330,17.992,3.478
1746585771.85,-0.014,-0.117,-0.050,-1.807,0.291,-0.083,-5.219,18.388,4.052
1746585771.87,0.021,-0.108,-0.052,-1.886,0.291,-0.138,-7.269,18.758,4.602
1746585771.89,-0.028,-0.115,-0.054,-1.895,0.266,-0.194,-9.395,19.158,5.135
1746585771.91,-0.076,-0.088,-0.033,-1.799,0.283,-0.222,-11.451,19.562,5.624
1746585771.93,-0.099,-0.064,-0.033,-1.768,0.160,-0.300,-13.470,19.919,6.038
1746585771.95,-0.052,-0.085,-0.064,-1.715,0.064,-0.372,-15.472,20.133,6.372
1746585771.97,-0.006,-0.127,-0.087,-1.612,-0.085,-0.423,-17.413,20.191,6.614
1746585771.99,0.007,-0.095,-0.061,-1.553,-0.244,-0.454,-19.281,20.048,6.766
1746585772.01,-0.067,-0.017,-0.020,-1.488,-0.297,-0.488,-21.089,19.749,6.856
1746585772.03,-0.168,0.001,0.018,-1.469,-0.186,-0.580,-22.889,19.461,6.852
1746585772.05,-0.136,-0.063,-0.028,-1.451,-0.205,-0.609,-24.678,19.203,6.739
1746585772.07,0.042,-0.053,-0.003,-1.434,-0.184,-0.527,-26.462,18.955,6.648
1746585772.09,0.066,-0.027,-0.024,-1.352,-0.391,-0.487,-28.157,18.619,6.627
1746585772.11,0.038,-0.072,-0.051,-1.356,-0.376,-0.519,-29.789,18.112,6.549
1746585772.13,0.038,-0.126,0.055,-1.426,-0.232,-0.455,-31.480,17.738,6.488
1746585772.15,0.047,-0.133,0.077,-1.464,-0.177,-0.384,-33.187,17.556,6.551
1746585772.17,0.001,-0.092,0.030,-1.573,-0.206,-0.448,-34.982,17.387,6.641
1746585772.19,-0.022,-0.040,0.016,-1.648,-0.123,-0.484,-36.909,17.215,6.685
1746585772.21,-0.059,-0.041,0.021,-1.558,-0.113,-0.490,-38.830,17.103,6.705
1746585772.23,-0.058,-0.066,-0.034,-1.465,-0.194,-0.509,-40.634,16.890,6.648
1746585772.25,0.018,-0.057,-0.026,-1.534,-0.210,-0.545,-42.437,16.583,6.537
1746585772.27,0.042,-0.063,0.007,-1.569,-0.211,-0.584,-44.331,16.230,6.385
1746585772.29,-0.014,-0.038,0.006,-1.512,-0.334,-0.655,-46.214,15.730,6.102
1746585772.31,-0.033,-0.054,0.048,-1.484,-0.370,-0.625,-48.055,15.036,5.709
1746585772.33,0.048,-0.081,0.041,-1.590,-0.259,-0.473,-49.906,14.464,5.461
1746585772.35,0.130,-0.093,0.028,-1.623,-0.166,-0.400,-51.814,14.230,5.438
1746585772.37,0.113,-0.077,-0.006,-1.553,-0.380,-0.449,-53.694,13.902,5.402
1746585772.39,0.051,-0.063,0.015,-1.500,-0.541,-0.532,-55.519,13.158,5.159
1746585772.41,0.019,-0.084,0.030,-1.475,-0.439,-0.516,-57.307,12.239,4.757
1746585772.43,0.017,-0.105,0.064,-1.520,-0.273,-0.419,-59.087,11.566,4.432
1746585772.45,0.006,-0.095,0.054,-1.539,-0.243,-0.351,-60.883,11.141,4.269
1746585772.47,-0.011,-0.088,0.062,-1.540,-0.210,-0.329,-62.689,10.783,4.175
1746585772.49,-0.009,-0.080,0.004,-1.407,-0.159,-0.278,-64.417,10.513,4.090
1746585772.51,0.003,-0.074,-0.007,-1.339,-0.206,-0.118,-65.984,10.416,4.213
1746585772.53,-0.005,-0.061,0.049,-1.381,-0.215,0.066,-67.520,10.753,4.853
1746585772.55,-0.012,-0.058,0.105,-1.368,-0.113,0.284,-69.025,11.838,6.206
1746585772.57,-0.024,-0.027,0.009,-1.396,-0.333,0.421,-70.465,13.646,8.381
1746585772.59,-0.044,-0.032,-0.019,-1.475,-0.574,0.414,-71.927,15.707,11.146
1746585772.60,-0.058,-0.045,0.052,-1.351,-0.377,0.304,-73.378,17.919,14.061
1746585772.62,-0.092,-0.027,0.009,-1.115,-0.166,0.108,-74.627,20.017,16.540
1746585772.64,-0.107,-0.017,0.085,-0.946,-0.079,-0.010,-75.710,21.594,18.314
1746585772.66,-0.082,-0.009,0.142,-0.834,-0.041,0.020,-76.644,23.096,19.926
1746585772.69,-0.076,0.034,0.009,-0.736,-0.111,0.040,-77.443,24.730,21.683
1746585772.70,-0.080,0.016,-0.031,-0.920,-0.044,0.057,-78.254,26.688,23.794
1746585772.72,-0.069,-0.019,-0.020,-1.154,-0.042,0.092,-79.265,29.914,27.116
1746585772.74,-0.065,-0.031,0.040,-1.139,-0.224,0.137,-80.327,34.336,31.748
1746585772.76,-0.058,-0.015,0.097,-0.863,-0.356,0.154,-81.153,39.096,36.936
1746585772.78,-0.061,0.048,0.017,-0.660,-0.009,0.059,-81.704,43.173,41.304
1746585772.80,-0.116,0.005,-0.046,-0.696,0.344,-0.019,-82.231,47.271,45.216
1746585772.82,-0.122,-0.054,-0.063,-0.852,0.312,-0.012,-82.815,52.729,50.326
1746585772.84,-0.054,-0.069,-0.070,-0.903,0.226,-0.009,-83.386,60.010,57.333
1746585772.86,0.021,-0.051,-0.004,-0.829,-0.043,-0.000,-83.832,68.107,65.361
1746585772.88,0.044,-0.013,-0.018,-0.677,-0.216,0.001,-84.092,75.729,73.205
1746585772.90,0.009,0.025,-0.130,-0.468,-0.211,-0.058,-84.259,81.788,79.520
1746585772.92,-0.059,-0.000,-0.194,-0.241,-0.485,-0.007,-84.348,85.310,83.447
1746585772.94,-0.102,-0.008,-0.176,-0.132,-0.546,0.052,-84.334,86.736,85.512
1746585772.96,-0.085,0.000,-0.131,-0.075,-0.361,0.093,-84.260,87.426,86.731
1746585772.98,-0.037,0.033,-0.077,0.033,-0.035,0.169,-84.115,87.551,87.107
1746585773.00,0.005,0.074,0.048,0.158,0.425,0.272,-83.861,86.816,86.132
1746585773.02,-0.028,0.089,0.103,0.145,0.570,0.340,-83.487,85.884,84.584
1746585773.04,-0.148,0.066,0.037,0.021,0.298,0.197,-83.152,85.849,84.022
1746585773.06,-0.249,-0.004,-0.061,-0.075,-0.045,0.010,-83.052,86.318,84.359
1746585773.08,-0.162,-0.022,-0.115,-0.000,-0.063,-0.047,-83.085,86.702,84.844
1746585773.10,-0.018,-0.022,-0.067,0.138,0.187,-0.023,-83.126,86.021,84.100
1746585773.12,0.039,0.005,-0.001,0.148,0.353,0.010,-83.112,84.905,82.633
1746585773.14,0.036,-0.018,0.031,0.062,0.094,-0.003,-83.100,84.151,81.593
1746585773.16,0.029,-0.036,0.028,-0.077,-0.181,0.011,-83.096,84.101,81.606
1746585773.18,0.009,-0.005,-0.041,-0.173,-0.357,0.020,-83.091,85.154,82.990
1746585773.20,-0.034,0.015,-0.064,-0.045,-0.220,0.060,-83.058,85.959,84.163
1746585773.22,-0.093,0.015,-0.031,0.089,0.004,0.082,-82.969,85.613,83.928
1746585773.24,-0.140,0.016,-0.023,0.112,0.060,0.047,-82.877,84.793,83.048
1746585773.26,-0.136,0.019,-0.001,0.129,-0.010,-0.014,-82.845,83.755,81.974
1746585773.28,-0.096,0.041,-0.006,0.162,-0.045,-0.049,-82.862,82.350,80.598
1746585773.30,-0.026,0.036,-0.002,0.202,0.017,-0.052,-82.897,80.619,78.877
1746585773.32,0.007,-0.011,0.040,0.269,0.059,-0.028,-82.903,78.445,76.637
1746585773.34,-0.003,-0.036,0.060,0.325,-0.010,0.001,-82.855,75.746,73.882
1746585773.36,-0.030,-0.029,0.059,0.312,-0.105,0.035,-82.742,72.912,71.084
1746585773.38,-0.040,0.001,0.009,0.282,-0.219,0.048,-82.593,70.381,68.728
1746585773.40,-0.044,0.036,-0.025,0.332,-0.178,0.055,-82.417,67.865,66.437
1746585773.42,-0.048,0.040,-0.024,0.448,0.038,0.059,-82.181,64.990,63.629
1746585773.44,-0.062,0.017,0.042,0.593,0.221,0.067,-81.846,61.566,60.008
1746585773.46,-0.078,0.011,0.068,0.676,0.252,0.062,-81.410,57.810,55.929
1746585773.48,-0.121,0.011,0.072,0.711,0.151,0.027,-80.921,54.007,51.837
1746585773.50,-0.133,0.009,0.034,0.825,0.120,-0.044,-80.399,49.970,47.609
1746585773.52,-0.085,0.004,0.017,1.035,0.487,-0.076,-79.737,45.487,42.749
1746585773.54,-0.035,0.024,0.067,1.116,0.896,-0.075,-78.883,41.435,37.767
1746585773.56,-0.061,0.030,0.048,1.026,0.436,-0.131,-78.025,38.020,33.450
1746585773.58,-0.052,-0.008,0.058,1.071,0.115,-0.140,-77.158,34.489,29.570
1746585773.60,-0.061,-0.028,0.095,1.104,0.275,-0.091,-76.183,31.346,26.131
1746585773.62,-0.080,-0.012,0.039,1.117,0.257,-0.067,-75.125,28.904,23.258
1746585773.64,-0.082,0.021,-0.041,1.107,0.047,-0.077,-74.040,26.682,20.777
1746585773.66,-0.084,0.025,0.016,1.109,-0.137,-0.121,-72.939,24.422,18.477
1746585773.68,-0.123,0.003,0.003,1.082,-0.263,-0.087,-71.853,22.258,16.470
1746585773.70,-0.152,-0.008,-0.053,1.095,-0.013,0.009,-70.707,20.576,14.904
1746585773.72,-0.061,-0.019,0.083,1.214,0.549,0.178,-69.450,19.894,13.863
1746585773.74,-0.061,-0.016,-0.024,1.169,0.355,0.287,-68.028,20.005,13.293
1746585773.76,-0.152,-0.044,-0.131,1.153,-0.020,0.119,-66.736,19.610,12.764
1746585773.78,-0.114,-0.048,-0.155,1.015,0.530,0.037,-65.493,19.035,11.860
1746585773.80,0.143,-0.008,0.103,0.829,0.851,0.238,-64.492,19.459,11.381
1746585773.82,0.251,0.018,0.105,1.007,0.513,0.389,-63.392,20.302,11.402
1746585773.84,0.072,-0.054,-0.007,1.168,0.129,0.283,-62.078,20.543,11.267
1746585773.86,-0.061,-0.121,-0.293,1.243,-0.171,0.180,-60.665,20.001,10.726
1746585773.88,0.011,-0.123,-0.052,0.936,0.064,0.192,-59.433,19.557,10.269
1746585773.90,0.120,-0.136,0.025,0.827,-0.134,0.428,-58.382,19.503,10.242
1746585773.92,0.225,-0.111,0.091,0.853,0.069,0.614,-57.277,19.857,10.743
1746585773.94,0.120,-0.087,-0.043,1.016,-0.101,0.484,-56.065,20.259,11.176
1746585773.96,0.060,-0.064,-0.127,1.078,-0.402,0.420,-54.748,20.037,11.263
1746585773.98,0.094,-0.078,-0.103,1.108,-0.274,0.489,-53.404,19.640,11.359
1746585774.00,0.045,-0.125,-0.017,0.995,-0.164,0.593,-52.056,19.684,11.684
1746585774.02,-0.049,-0.097,0.017,0.985,-0.060,0.495,-50.786,19.819,12.029
1746585774.04,-0.094,-0.036,0.056,1.095,0.111,0.345,-49.525,19.950,12.115
1746585774.06,-0.120,-0.013,-0.074,1.193,-0.121,0.386,-48.151,19.826,11.991
1746585774.08,0.005,-0.034,-0.005,1.115,-0.078,0.531,-46.728,19.785,12.076
1746585774.10,0.076,-0.025,-0.030,1.037,-0.023,0.520,-45.366,19.882,12.294
1746585774.12,0.018,-0.026,-0.003,0.938,0.081,0.411,-44.124,20.028,12.473
1746585774.14,-0.039,0.010,0.007,0.993,0.108,0.268,-42.964,20.130,12.457
1746585774.16,0.009,0.054,0.126,1.101,-0.100,0.264,-41.751,20.003,12.240
1746585774.18,0.013,0.024,-0.022,1.167,-0.193,0.499,-40.363,19.767,12.209
1746585774.20,0.023,0.009,-0.082,0.838,0.036,0.513,-39.063,19.786,12.419
1746585774.22,-0.061,-0.026,-0.015,0.778,0.104,0.400,-38.065,20.061,12.666
1746585774.24,-0.066,-0.003,-0.022,0.942,0.129,0.306,-36.991,20.203,12.698
1746585774.26,-0.011,0.039,0.136,0.998,0.025,0.343,-35.834,20.279,12.646
1746585774.28,-0.016,-0.006,-0.042,1.063,0.013,0.361,-34.567,20.249,12.620
1746585774.30,-0.072,-0.025,-0.098,0.843,0.075,0.398,-33.386,20.312,12.621
1746585774.32,0.009,0.060,-0.046,0.694,0.233,0.387,-32.426,20.594,12.782
1746585774.34,-0.020,0.066,0.007,0.795,0.083,0.311,-31.502,20.823,12.871
1746585774.36,-0.041,-0.028,0.172,1.021,-0.094,0.311,-30.426,20.823,12.809
1746585774.38,-0.042,-0.129,-0.042,1.116,0.054,0.207,-29.137,20.661,12.649
1746585774.40,-0.070,-0.074,-0.087,0.907,0.054,0.189,-27.982,20.616,12.389
1746585774.42,-0.013,0.043,-0.016,0.826,0.037,0.297,-26.969,20.657,12.298
1746585774.44,-0.048,0.098,-0.006,0.896,-0.070,0.323,-25.935,20.618,12.285
1746585774.46,-0.056,0.038,0.105,0.973,-0.241,0.253,-24.816,20.396,12.228
1746585774.48,-0.062,-0.043,0.028,1.024,-0.088,0.138,-23.666,20.129,12.022
1746585774.50,-0.188,0.041,-0.058,0.925,0.003,0.218,-22.536,19.984,11.781
1746585774.52,-0.039,0.130,-0.051,0.860,0.080,0.308,-21.483,20.003,11.735
1746585774.54,-0.029,0.071,0.027,0.897,-0.046,0.203,-20.446,20.010,11.673
1746585774.56,-0.006,-0.089,0.068,0.951,-0.100,0.157,-19.384,19.847,11.473
1746585774.58,-0.034,-0.067,-0.089,0.970,0.031,0.158,-18.275,19.719,11.258
1746585774.60,-0.164,0.042,-0.023,0.985,0.137,0.151,-17.174,19.772,11.043
1746585774.62,-0.076,0.030,0.014,0.970,0.214,0.275,-16.040,19.928,10.899
1746585774.64,0.033,-0.075,-0.057,0.951,0.170,0.230,-14.907,20.135,10.803
1746585774.66,0.102,-0.124,0.020,0.995,-0.073,0.109,-13.818,20.140,10.571
1746585774.68,-0.028,-0.113,0.021,0.975,-0.029,0.153,-12.692,19.988,10.317
1746585774.70,-0.180,0.014,0.022,0.939,0.223,0.242,-11.601,20.034,10.136
1746585774.72,-0.074,0.048,-0.115,1.009,0.251,0.189,-10.470,20.295,9.990
1746585774.74,0.054,-0.009,-0.050,1.046,0.090,0.166,-9.298,20.442,9.770
1746585774.76,0.007,-0.088,-0.046,1.005,0.064,0.132,-8.134,20.488,9.520
1746585774.78,-0.100,0.064,0.018,0.986,-0.002,0.166,-7.011,20.475,9.252
1746585774.80,-0.114,0.029,-0.064,0.940,0.103,0.219,-5.917,20.503,9.099
1746585774.82,-0.091,0.106,-0.090,0.985,0.090,0.103,-4.806,20.673,8.901
1746585774.84,-0.010,-0.039,-0.075,1.026,0.047,0.086,-3.697,20.725,8.606
1746585774.86,0.027,-0.002,-0.024,1.077,-0.167,-0.099,-2.584,20.612,8.170
1746585774.88,0.075,-0.034,0.033,1.001,-0.181,-0.019,-1.485,20.408,7.685
1746585774.90,-0.054,0.044,-0.021,0.976,-0.146,-0.001,-0.429,20.206,7.283
1746585774.92,-0.026,-0.010,-0.062,1.006,-0.043,0.122,0.662,20.145,7.006
1746585774.94,0.023,-0.110,-0.040,0.996,0.015,0.010,1.756,20.118,6.663
1746585774.96,0.058,-0.119,-0.008,0.909,0.134,-0.016,2.783,20.192,6.295
1746585774.98,0.001,-0.017,-0.044,0.837,0.149,0.067,3.739,20.383,5.987
1746585775.00,-0.026,0.093,0.014,0.834,0.099,0.088,4.672,20.561,5.733
1746585775.02,0.058,0.012,-0.026,0.853,0.012,0.100,5.620,20.646,5.485
1746585775.04,0.116,-0.111,-0.036,0.820,0.103,0.118,6.554,20.728,5.263
1746585775.06,0.026,-0.101,-0.035,0.791,0.146,0.119,7.461,20.907,5.062
1746585775.08,0.003,-0.081,0.017,0.711,0.182,0.133,8.315,21.139,4.887
1746585775.10,-0.004,0.024,-0.019,0.714,0.083,0.187,9.139,21.321,4.756
1746585775.12,0.017,-0.011,-0.056,0.671,0.030,0.230,9.976,21.377,4.652
1746585775.14,0.034,-0.111,-0.121,0.617,0.095,0.181,10.711,21.489,4.556
1746585775.16,-0.004,-0.102,-0.086,0.574,0.061,0.083,11.407,21.591,4.394
1746585775.18,-0.013,-0.093,-0.102,0.452,-0.019,0.078,11.987,21.654,4.218
1746585775.20,0.005,-0.018,-0.153,0.396,0.010,0.094,12.468,21.676,4.094
1746585775.22,-0.046,-0.036,-0.143,0.355,0.028,0.042,12.894,21.710,3.968
1746585775.24,0.030,-0.073,-0.168,0.290,-0.010,0.012,13.249,21.744,3.802
1746585775.26,0.028,-0.063,-0.131,0.190,-0.001,0.035,13.519,21.746,3.681
1746585775.28,-0.014,-0.045,-0.151,0.061,0.045,0.025,13.672,21.781,3.616
1746585775.30,-0.017,-0.011,-0.137,-0.074,0.052,0.021,13.670,21.833,3.599
1746585775.32,0.013,-0.046,-0.166,-0.139,0.020,-0.044,13.557,21.870,3.593
1746585775.34,0.030,-0.087,-0.171,-0.219,-0.067,-0.084,13.341,21.848,3.556
1746585775.36,-0.017,-0.070,-0.126,-0.345,-0.097,-0.120,12.997,21.748,3.528
1746585775.38,-0.070,-0.027,-0.168,-0.451,-0.062,-0.205,12.510,21.667,3.503
1746585775.39,-0.016,-0.105,-0.196,-0.566,-0.025,-0.282,11.863,21.637,3.436
1746585775.42,0.059,-0.116,-0.234,-0.703,-0.041,-0.266,11.075,21.587,3.380
1746585775.43,0.031,-0.104,-0.172,-0.882,-0.024,-0.274,10.123,21.544,3.415
1746585775.45,0.125,-0.090,-0.140,-1.079,-0.030,-0.201,8.972,21.492,3.587
1746585775.47,0.087,-0.088,-0.222,-1.176,-0.018,-0.164,7.704,21.404,3.864
1746585775.49,-0.031,-0.045,-0.174,-1.283,0.079,-0.210,6.316,21.400,4.180
1746585775.51,-0.016,-0.067,-0.107,-1.424,0.205,-0.229,4.787,21.538,4.499
1746585775.53,0.077,-0.074,-0.164,-1.482,0.210,-0.182,3.156,21.739,4.910
1746585775.55,0.058,-0.124,-0.090,-1.515,0.190,-0.226,1.473,21.954,5.328
1746585775.57,0.001,-0.123,-0.072,-1.563,0.206,-0.280,-0.263,22.161,5.724
1746585775.59,-0.015,-0.124,-0.099,-1.590,0.178,-0.277,-2.052,22.400,6.101
1746585775.61,0.091,-0.088,0.017,-1.617,0.128,-0.243,-3.856,22.606,6.531
1746585775.63,0.110,-0.121,0.134,-1.719,0.156,-0.250,-5.708,22.782,6.991
1746585775.65,0.059,-0.261,-0.009,-1.772,0.303,-0.168,-7.653,23.124,7.569
1746585775.67,-0.054,-0.222,-0.059,-1.700,0.230,-0.179,-9.557,23.508,8.171
1746585775.69,-0.103,-0.099,-0.071,-1.650,0.316,-0.190,-11.386,23.932,8.769
1746585775.71,-0.100,0.006,-0.006,-1.587,0.262,-0.343,-13.199,24.393,9.266
1746585775.73,-0.079,-0.004,-0.008,-1.549,-0.007,-0.472,-15.022,24.623,9.587
1746585775.75,-0.026,-0.067,-0.104,-1.530,-0.016,-0.504,-16.852,24.629,9.818
1746585775.77,-0.041,-0.064,-0.041,-1.483,0.030,-0.524,-18.657,24.726,10.014
1746585775.79,-0.032,-0.082,-0.004,-1.457,-0.079,-0.583,-20.447,24.744,10.151
1746585775.81,-0.003,-0.072,0.003,-1.423,-0.159,-0.615,-22.232,24.626,10.223
1746585775.83,-0.032,-0.035,-0.006,-1.428,-0.192,-0.649,-24.000,24.435,10.237
1746585775.85,-0.067,-0.000,-0.002,-1.402,-0.184,-0.639,-25.790,24.209,10.230
1746585775.87,-0.056,0.004,-0.052,-1.379,-0.044,-0.603,-27.516,24.073,10.227
1746585775.89,-0.020,-0.053,0.051,-1.438,-0.105,-0.603,-29.274,24.028,10.260
1746585775.91,0.030,-0.121,0.034,-1.415,-0.164,-0.579,-31.034,23.878,10.308
1746585775.93,0.079,-0.113,0.052,-1.503,-0.035,-0.558,-32.805,23.805,10.394
1746585775.95,0.071,-0.084,0.031,-1.601,0.053,-0.518,-34.688,23.929,10.586
1746585775.97,0.042,-0.046,0.003,-1.569,-0.067,-0.490,-36.586,24.094,10.856
1746585775.99,0.012,-0.031,0.019,-1.495,-0.243,-0.569,-38.414,24.046,11.070
1746585776.01,-0.014,-0.052,0.032,-1.483,-0.364,-0.678,-40.266,23.700,11.110
1746585776.03,-0.023,-0.073,-0.002,-1.436,-0.401,-0.670,-42.106,23.240,11.054
1746585776.05,-0.031,-0.072,-0.013,-1.408,-0.339,-0.657,-43.883,22.742,10.955
1746585776.07,-0.035,-0.073,-0.029,-1.448,-0.294,-0.628,-45.678,22.344,10.881
1746585776.09,0.006,-0.066,-0.048,-1.479,-0.310,-0.602,-47.490,21.983,10.860
1746585776.11,0.037,-0.050,0.002,-1.478,-0.339,-0.632,-49.310,21.583,10.821
1746585776.13,-0.003,-0.016,0.089,-1.567,-0.377,-0.663,-51.203,21.109,10.731
1746585776.15,-0.065,-0.013,0.064,-1.548,-0.411,-0.665,-53.151,20.567,10.615
1746585776.17,-0.061,-0.022,-0.031,-1.370,-0.352,-0.590,-54.963,19.981,10.445
1746585776.19,-0.035,-0.043,0.005,-1.380,-0.294,-0.511,-56.634,19.525,10.340
1746585776.21,-0.025,-0.076,-0.011,-1.365,-0.325,-0.513,-58.317,19.149,10.292
1746585776.23,0.000,-0.106,0.021,-1.397,-0.350,-0.464,-59.982,18.692,10.232
1746585776.25,-0.010,-0.114,0.030,-1.491,-0.326,-0.307,-61.686,18.491,10.435
1746585776.27,-0.018,-0.124,0.011,-1.535,-0.313,-0.080,-63.396,18.774,11.173
1746585776.29,-0.027,-0.125,0.019,-1.485,-0.295,0.116,-65.042,19.677,12.561
1746585776.31,-0.045,-0.100,-0.053,-1.363,-0.389,0.183,-66.481,20.946,14.334
1746585776.33,-0.018,-0.090,-0.005,-1.409,-0.617,0.155,-67.877,22.160,16.319
1746585776.35,0.005,-0.075,0.048,-1.430,-0.399,0.076,-69.323,23.483,18.378
1746585776.37,-0.014,-0.050,0.030,-1.480,-0.275,0.013,-70.803,25.092,20.479
1746585776.39,-0.013,-0.021,0.016,-1.560,-0.261,0.081,-72.359,27.205,23.027
1746585776.41,-0.021,-0.010,0.026,-1.454,-0.257,0.183,-73.810,30.126,26.386
1746585776.43,-0.074,0.016,0.022,-1.248,-0.287,0.127,-75.026,33.312,30.016
1746585776.45,-0.091,0.024,0.035,-0.967,-0.212,-0.018,-76.024,35.995,33.097
1746585776.47,-0.097,0.032,0.012,-0.988,-0.004,-0.085,-76.933,38.334,35.639
1746585776.49,-0.104,-0.003,0.005,-1.061,0.182,-0.043,-77.892,41.576,38.844
1746585776.51,-0.085,-0.026,-0.000,-1.018,0.273,0.042,-78.768,45.857,42.940
1746585776.53,-0.059,-0.033,0.005,-0.802,0.223,0.136,-79.382,50.491,47.371
1746585776.55,-0.036,-0.032,0.053,-0.735,0.322,0.196,-79.750,55.178,51.838
1746585776.57,-0.054,-0.047,0.036,-0.637,0.403,0.149,-80.006,60.029,56.320
1746585776.59,-0.086,-0.056,-0.004,-0.497,0.307,0.112,-80.183,64.032,59.973
1746585776.61,-0.093,-0.044,0.027,-0.497,0.132,0.153,-80.270,67.592,63.314
1746585776.63,-0.135,0.018,-0.077,-0.407,0.000,0.085,-80.320,70.891,66.620
1746585776.65,-0.107,0.037,-0.039,-0.229,0.244,0.013,-80.391,73.148,68.768
1746585776.67,-0.072,0.042,-0.051,-0.105,0.314,0.059,-80.407,74.511,69.814
1746585776.69,-0.062,0.036,-0.024,-0.160,0.157,0.133,-80.329,75.839,70.853
1746585776.71,-0.066,0.027,-0.056,-0.124,-0.106,0.085,-80.246,77.027,72.046
1746585776.73,-0.021,0.008,-0.024,-0.088,-0.101,0.107,-80.170,77.641,72.802
1746585776.75,-0.036,0.018,0.046,-0.071,-0.089,0.117,-80.050,78.254,73.522
1746585776.77,-0.100,0.062,-0.041,0.062,-0.279,-0.078,-80.021,78.168,73.628
1746585776.79,-0.105,0.046,-0.162,0.135,-0.293,-0.122,-80.134,76.939,72.762
1746585776.81,-0.027,0.034,-0.074,0.192,0.060,-0.038,-80.173,75.634,71.579
1746585776.83,-0.048,0.024,0.028,0.184,0.196,-0.083,-80.176,74.477,70.211
1746585776.85,-0.065,-0.032,0.050,0.117,0.024,-0.099,-80.240,73.487,69.076
1746585776.87,-0.024,-0.053,0.075,0.051,-0.033,-0.056,-80.301,72.735,68.329
1746585776.89,-0.003,-0.036,0.075,-0.004,-0.101,-0.025,-80.337,72.438,68.098
1746585776.91,-0.007,-0.019,0.020,-0.024,-0.287,-0.026,-80.371,72.269,68.153
1746585776.93,0.005,0.006,-0.031,0.025,-0.409,-0.008,-80.400,71.837,68.130
1746585776.95,0.015,0.017,-0.015,0.101,-0.356,0.045,-80.358,71.053,67.796
1746585776.97,-0.012,0.033,0.003,0.159,-0.143,0.030,-80.266,70.108,67.130
1746585776.99,-0.086,0.012,0.033,0.241,-0.037,0.008,-80.174,68.872,65.959
1746585777.01,-0.153,0.015,0.026,0.321,-0.017,0.033,-80.031,67.160,64.256
1746585777.03,-0.184,0.036,0.026,0.379,0.036,0.012,-79.835,65.150,62.205
1746585777.05,-0.146,0.054,0.030,0.411,0.068,-0.099,-79.681,62.882,59.830
1746585777.07,-0.051,0.035,-0.010,0.530,0.107,-0.165,-79.572,60.001,56.814
1746585777.09,0.018,-0.015,0.022,0.668,0.202,-0.096,-79.342,56.565,53.141
1746585777.11,0.022,-0.033,0.043,0.683,0.274,-0.013,-78.942,53.328,49.558
1746585777.13,-0.025,-0.023,0.009,0.688,0.181,0.019,-78.457,50.584,46.479
1746585777.15,-0.049,-0.006,-0.044,0.816,0.135,-0.014,-77.897,47.712,43.377
1746585777.17,-0.064,-0.007,0.020,1.076,0.210,-0.062,-77.185,44.289,39.672
1746585777.19,-0.090,0.004,-0.020,1.291,0.073,-0.100,-76.232,40.282,35.352
1746585777.21,-0.129,0.041,-0.147,1.283,-0.405,-0.113,-75.141,36.077,31.227
1746585777.23,-0.135,0.040,-0.006,1.190,0.002,-0.073,-74.040,32.572,27.911
1746585777.25,-0.127,0.018,0.094,1.183,0.506,0.013,-72.911,30.409,25.317
1746585777.27,-0.078,-0.007,0.135,1.161,0.629,0.164,-71.691,29.262,23.401
1746585777.29,-0.013,-0.020,0.084,1.098,0.385,0.215,-70.450,28.609,22.068
1746585777.31,0.006,-0.031,0.004,1.121,-0.115,0.202,-69.236,27.744,20.972
1746585777.33,0.029,-0.024,-0.088,1.122,-0.237,0.100,-67.993,26.352,19.766
1746585777.35,0.067,-0.035,0.047,0.882,-0.089,0.160,-66.902,25.244,18.762
1746585777.37,0.081,-0.053,0.051,0.939,-0.131,0.313,-65.892,24.751,18.329
1746585777.39,0.018,-0.037,-0.125,1.155,-0.387,0.325,-64.613,24.114,17.978
1746585777.41,-0.107,-0.032,-0.093,1.106,-0.241,0.092,-63.335,23.119,17.293
1746585777.43,-0.104,-0.039,-0.085,0.940,-0.044,0.141,-62.193,22.207,16.485
1746585777.45,-0.039,-0.050,0.072,0.912,0.189,0.359,-61.147,22.115,16.230
1746585777.47,-0.039,-0.067,0.026,1.036,-0.015,0.473,-59.922,22.328,16.302
1746585777.49,-0.072,-0.026,-0.117,1.113,-0.141,0.307,-58.605,22.083,16.227
1746585777.51,0.000,-0.008,0.012,1.042,0.195,0.228,-57.358,21.837,15.839
1746585777.53,0.052,-0.015,-0.048,1.064,0.000,0.286,-56.131,21.682,15.527
1746585777.55,0.048,0.004,-0.003,0.962,0.018,0.325,-54.914,21.534,15.341
1746585777.57,0.040,-0.010,0.007,0.850,0.038,0.347,-53.821,21.550,15.307
1746585777.59,0.010,-0.015,-0.081,0.919,-0.025,0.322,-52.750,21.534,15.280
1746585777.61,-0.011,-0.031,-0.044,0.869,-0.010,0.295,-51.665,21.466,15.210
1746585777.63,-0.044,-0.044,-0.032,0.834,-0.044,0.269,-50.648,21.354,15.114
1746585777.65,-0.027,-0.038,-0.016,0.806,-0.037,0.295,-49.669,21.264,15.028
1746585777.67,0.010,-0.052,-0.022,0.773,0.093,0.362,-48.692,21.285,15.082
1746585777.69,0.044,-0.046,-0.026,0.806,0.342,0.370,-47.690,21.631,15.169
1746585777.71,0.076,-0.035,0.049,0.685,0.498,0.370,-46.735,22.182,15.275
1746585777.73,0.076,-0.030,0.073,0.753,0.299,0.453,-45.818,22.763,15.442
1746585777.75,0.024,-0.019,-0.030,0.796,0.173,0.524,-44.760,23.191,15.684
1746585777.77,-0.050,-0.012,-0.062,0.688,0.238,0.442,-43.764,23.619,15.948
1746585777.79,-0.111,0.001,-0.072,0.768,0.216,0.213,-42.868,23.895,15.980
1746585777.81,-0.081,0.012,0.046,0.886,0.132,0.105,-41.929,23.894,15.661
1746585777.83,0.029,0.052,0.063,0.901,-0.061,0.251,-40.909,23.692,15.335
1746585777.85,0.066,0.049,0.043,0.915,-0.083,0.364,-39.815,23.557,15.225
1746585777.87,-0.053,0.013,-0.129,0.828,0.088,0.278,-38.742,23.472,15.144
1746585777.89,-0.113,-0.021,-0.079,0.624,0.191,0.230,-37.890,23.615,15.064
1746585777.91,-0.013,0.009,0.008,0.850,-0.047,0.183,-37.046,23.636,14.928
1746585777.93,0.031,0.026,0.088,0.928,-0.102,0.146,-36.008,23.343,14.620
1746585777.95,0.014,0.013,0.079,0.997,-0.365,0.149,-34.977,22.908,14.272
1746585777.97,-0.105,-0.003,-0.171,1.050,-0.307,0.237,-33.754,22.273,13.954
1746585777.99,-0.087,-0.016,-0.056,0.739,0.065,0.247,-32.714,22.086,13.805
1746585778.01,-0.013,-0.029,0.027,0.799,0.025,0.194,-31.838,22.103,13.708
1746585778.03,0.082,-0.062,0.101,0.925,-0.161,0.133,-30.844,21.928,13.474
1746585778.05,0.049,-0.069,0.075,1.052,-0.373,0.201,-29.731,21.464,13.169
1746585778.07,-0.064,-0.036,-0.107,0.904,-0.135,0.378,-28.524,21.029,13.063
1746585778.09,-0.064,0.007,-0.074,0.582,0.273,0.411,-27.604,21.221,13.219
1746585778.11,-0.022,-0.049,0.058,0.749,0.194,0.269,-26.768,21.566,13.330
1746585778.13,0.063,-0.102,0.157,0.891,0.038,0.204,-25.781,21.656,13.204
1746585778.15,0.076,-0.096,-0.003,0.792,-0.019,0.293,-24.786,21.595,13.077
1746585778.17,-0.016,-0.006,-0.091,0.538,0.148,0.430,-23.928,21.709,13.211
1746585778.19,-0.051,0.012,-0.054,0.424,0.146,0.523,-23.214,22.013,13.566
1746585778.21,-0.035,-0.045,-0.004,0.530,0.115,0.459,-22.510,22.316,13.905
1746585778.22,-0.105,-0.045,-0.022,0.667,-0.025,0.363,-21.697,22.440,14.112
1746585778.24,-0.157,-0.054,-0.088,0.849,-0.132,0.226,-20.753,22.307,14.095
1746585778.26,-0.088,-0.007,-0.014,0.845,-0.085,0.113,-19.774,22.131,13.876
1746585778.28,-0.055,0.016,-0.073,0.777,0.026,0.208,-18.858,21.996,13.688
1746585778.30,-0.044,0.059,-0.068,0.780,0.101,0.222,-17.928,22.065,13.603
1746585778.33,-0.083,-0.012,0.070,0.732,0.003,0.106,-17.071,22.070,13.423
1746585778.34,-0.055,-0.058,-0.043,0.847,-0.016,0.090,-16.192,22.006,13.194
1746585778.36,-0.037,0.015,-0.055,0.879,-0.114,-0.011,-15.247,21.813,12.828
1746585778.38,0.013,-0.001,-0.008,0.876,-0.141,0.054,-14.327,21.593,12.473
1746585778.40,-0.056,0.004,-0.016,0.865,-0.057,0.109,-13.358,21.384,12.188
1746585778.42,-0.050,-0.050,-0.066,0.943,0.030,0.047,-12.364,21.307,11.897
1746585778.44,-0.032,-0.045,0.019,0.988,-0.018,-0.029,-11.332,21.266,11.509
1746585778.46,0.025,-0.008,-0.050,0.937,-0.004,0.035,-10.304,21.159,11.095
1746585778.48,-0.049,0.052,-0.078,0.945,-0.035,0.045,-9.283,21.072,10.749
1746585778.50,-0.011,0.014,-0.077,0.859,0.030,0.099,-8.287,21.019,10.438
1746585778.52,0.031,-0.014,-0.060,0.828,-0.206,0.102,-7.354,20.842,10.181
1746585778.54,-0.056,-0.021,-0.014,0.738,-0.227,0.100,-6.470,20.532,9.983
1746585778.56,-0.033,-0.003,-0.075,0.732,-0.019,0.147,-5.643,20.406,9.803
1746585778.58,-0.028,-0.039,-0.052,0.668,-0.047,0.088,-4.858,20.332,9.642
1746585778.60,0.002,-0.001,-0.060,0.697,-0.043,0.083,-4.078,20.283,9.461
1746585778.62,0.021,0.024,-0.048,0.673,-0.082,0.128,-3.310,20.205,9.303
1746585778.64,-0.025,0.004,-0.007,0.615,-0.066,0.126,-2.561,20.110,9.192
1746585778.66,-0.004,0.015,-0.035,0.641,-0.054,0.092,-1.856,20.047,9.068
1746585778.68,0.003,-0.009,-0.005,0.637,-0.065,0.154,-1.109,19.963,8.957
1746585778.70,0.050,-0.038,-0.021,0.670,-0.004,0.205,-0.352,19.916,8.903
1746585778.72,-0.043,0.010,0.003,0.728,-0.038,0.088,0.459,19.904,8.772
1746585778.74,-0.035,-0.076,0.053,0.701,-0.075,0.057,1.256,19.857,8.572
1746585778.76,0.031,-0.018,-0.018,0.667,-0.167,0.082,2.024,19.709,8.378
1746585778.78,0.029,-0.072,-0.034,0.576,-0.130,0.112,2.730,19.546,8.242
1746585778.80,-0.018,-0.057,-0.037,0.580,-0.033,0.117,3.382,19.457,8.152
1746585778.82,-0.039,-0.040,-0.006,0.623,0.023,0.097,4.072,19.463,8.033
1746585778.84,-0.002,0.005,0.014,0.598,0.049,0.157,4.781,19.506,7.930
1746585778.86,0.013,0.030,-0.037,0.560,0.114,0.189,5.478,19.600,7.909
1746585778.88,-0.023,-0.023,-0.055,0.545,0.158,0.212,6.149,19.729,7.933
1746585778.90,-0.028,-0.063,-0.050,0.555,0.202,0.166,6.819,19.931,7.930
1746585778.92,0.001,-0.044,-0.026,0.568,0.133,0.135,7.473,20.140,7.868
1746585778.94,-0.015,0.056,-0.022,0.569,0.072,0.112,8.141,20.268,7.774
1746585778.96,-0.006,0.042,-0.096,0.552,0.038,0.072,8.772,20.352,7.635
1746585778.98,0.015,0.002,-0.115,0.493,0.039,0.036,9.362,20.417,7.483
1746585779.00,0.015,-0.016,-0.122,0.434,0.010,0.058,9.881,20.477,7.330
1746585779.02,-0.040,-0.017,-0.078,0.309,0.099,0.007,10.290,20.551,7.188
1746585779.04,0.015,-0.004,-0.182,0.258,0.114,-0.024,10.590,20.693,7.052
1746585779.06,0.025,-0.006,-0.202,0.164,0.105,-0.039,10.804,20.844,6.914
1746585779.08,-0.009,-0.016,-0.230,0.032,0.087,-0.090,10.891,20.970,6.776
1746585779.10,0.047,-0.023,-0.215,-0.154,0.087,-0.097,10.791,21.087,6.683
1746585779.12,0.019,-0.059,-0.258,-0.319,0.079,-0.145,10.484,21.177,6.630
1746585779.14,0.040,-0.058,-0.277,-0.473,0.113,-0.160,9.999,21.273,6.608
1746585779.16,0.003,-0.005,-0.307,-0.624,0.048,-0.234,9.334,21.395,6.646
1746585779.18,0.027,-0.045,-0.256,-0.762,0.055,-0.298,8.484,21.461,6.648
1746585779.20,0.021,-0.064,-0.239,-0.924,0.081,-0.332,7.469,21.529,6.659
1746585779.22,0.092,-0.097,-0.231,-1.116,0.059,-0.335,6.233,21.669,6.758
1746585779.24,0.072,-0.124,-0.190,-1.273,0.096,-0.359,4.820,21.751,6.891
1746585779.26,0.060,-0.117,-0.136,-1.392,0.134,-0.362,3.250,21.861,7.083
1746585779.28,-0.014,-0.142,-0.132,-1.506,0.235,-0.420,1.557,22.086,7.282
1746585779.30,0.055,-0.148,-0.115,-1.696,0.230,-0.422,-0.325,22.351,7.524
1746585779.32,0.055,-0.142,-0.160,-1.678,0.062,-0.474,-2.316,22.531,7.799
1746585779.34,-0.040,-0.111,0.010,-1.748,0.095,-0.495,-4.328,22.620,8.020
1746585779.36,-0.062,-0.121,-0.046,-1.778,0.211,-0.391,-6.389,22.803,8.332
1746585779.38,0.018,-0.135,0.033,-1.850,0.398,-0.331,-8.455,23.236,8.769
1746585779.40,-0.004,-0.146,0.011,-1.801,0.436,-0.362,-10.555,23.779,9.266
1746585779.42,-0.153,-0.025,0.020,-1.722,0.393,-0.511,-12.571,24.337,9.631
1746585779.44,-0.062,0.055,0.001,-1.767,0.474,-0.525,-14.636,24.897,9.915
1746585779.46,0.064,0.080,0.054,-1.664,0.235,-0.437,-16.656,25.446,10.284
1746585779.48,0.015,0.038,0.048,-1.373,-0.148,-0.545,-18.453,25.545,10.562
1746585779.50,-0.104,-0.123,0.018,-1.225,-0.268,-0.688,-20.087,25.295,10.540
1746585779.52,-0.127,-0.265,-0.030,-1.212,-0.078,-0.695,-21.676,25.018,10.395
1746585779.54,-0.063,-0.227,0.002,-1.268,0.116,-0.671,-23.288,25.022,10.280
1746585779.56,0.019,-0.171,0.020,-1.165,-0.036,-0.636,-24.872,25.036,10.190
1746585779.58,0.052,-0.128,0.093,-1.059,-0.254,-0.661,-26.330,24.827,10.042
1746585779.60,0.048,-0.134,0.034,-1.084,-0.394,-0.663,-27.742,24.324,9.822
1746585779.62,0.043,-0.148,-0.008,-1.257,-0.065,-0.584,-29.258,23.993,9.700
1746585779.64,0.037,-0.141,-0.007,-1.373,-0.039,-0.440,-30.880,24.002,9.794
1746585779.66,0.029,-0.091,-0.011,-1.239,-0.093,-0.425,-32.444,24.040,10.001
1746585779.68,0.028,-0.050,-0.034,-1.187,-0.216,-0.547,-33.927,23.921,10.068
1746585779.70,0.051,-0.063,-0.069,-1.177,-0.400,-0.616,-35.435,23.509,9.977
1746585779.72,0.009,-0.068,-0.013,-1.212,-0.418,-0.580,-36.953,22.935,9.851
1746585779.74,-0.042,-0.081,0.017,-1.254,-0.220,-0.468,-38.491,22.578,9.841
1746585779.76,-0.047,-0.055,-0.063,-1.292,-0.032,-0.417,-40.012,22.510,9.969
1746585779.78,-0.048,-0.024,-0.013,-1.363,0.072,-0.484,-41.603,22.650,10.111
1746585779.80,-0.052,-0.034,-0.012,-1.382,-0.030,-0.520,-43.284,22.746,10.211
1746585779.82,0.009,-0.065,-0.020,-1.355,-0.062,-0.469,-44.943,22.780,10.323
1746585779.84,0.061,-0.095,0.000,-1.358,-0.213,-0.447,-46.565,22.747,10.488
1746585779.86,0.087,-0.105,-0.027,-1.377,-0.359,-0.443,-48.210,22.551,10.688
1746585779.88,0.104,-0.083,-0.027,-1.434,-0.302,-0.476,-49.878,22.303,10.878
1746585779.90,0.061,-0.065,0.029,-1.606,-0.213,-0.469,-51.690,22.200,11.114
1746585779.92,-0.000,-0.052,0.059,-1.713,-0.203,-0.426,-53.648,22.296,11.531
1746585779.94,-0.066,-0.026,0.026,-1.597,-0.301,-0.467,-55.606,22.386,11.983
1746585779.96,-0.091,-0.005,-0.063,-1.346,-0.383,-0.536,-57.368,22.133,12.164
1746585779.98,-0.082,-0.026,-0.011,-1.343,-0.212,-0.563,-59.010,21.737,12.115
1746585780.00,-0.045,-0.070,0.058,-1.427,-0.108,-0.422,-60.694,21.645,12.199
1746585780.02,0.016,-0.099,0.093,-1.570,-0.218,-0.091,-62.387,22.121,12.941
1746585780.04,0.030,-0.092,0.060,-1.641,-0.298,0.201,-64.072,23.405,14.692
1746585780.06,-0.005,-0.074,-0.067,-1.496,-0.446,0.273,-65.584,25.085,17.052
1746585780.08,-0.050,-0.061,0.040,-1.551,-0.353,0.186,-67.011,26.879,19.525
1746585780.10,-0.052,-0.039,0.036,-1.578,-0.329,0.077,-68.546,28.900,22.110
1746585780.12,-0.025,-0.027,0.008,-1.462,-0.314,0.065,-70.006,30.965,24.716
1746585780.14,0.004,-0.036,0.055,-1.514,-0.272,0.122,-71.384,33.451,27.708
1746585780.16,0.007,-0.029,0.034,-1.379,-0.260,0.162,-72.659,36.548,31.270
1746585780.18,-0.004,-0.006,-0.016,-1.193,-0.209,0.101,-73.712,39.647,34.800
1746585780.20,-0.051,-0.004,0.010,-1.076,-0.249,-0.016,-74.654,42.538,38.060
1746585780.22,-0.129,-0.015,0.074,-0.965,-0.185,-0.068,-75.536,45.131,41.023
1746585780.24,-0.180,0.013,0.008,-0.856,-0.006,-0.053,-76.307,47.835,43.930
1746585780.26,-0.139,0.028,-0.024,-0.697,0.273,-0.010,-76.908,50.640,46.667
1746585780.28,-0.047,0.017,0.079,-0.681,0.560,0.037,-77.374,53.898,49.498
1746585780.30,-0.011,-0.012,0.090,-0.588,0.545,0.038,-77.740,57.398,52.419
1746585780.32,-0.051,-0.020,-0.019,-0.587,0.444,-0.005,-78.067,60.651,55.175
1746585780.34,-0.052,-0.042,-0.042,-0.627,0.388,-0.022,-78.401,63.971,58.078
1746585780.36,-0.031,-0.038,-0.055,-0.715,0.292,-0.005,-78.733,67.851,61.632
1746585780.38,0.009,-0.026,-0.029,-0.681,0.179,0.032,-78.996,71.927,65.518
1746585780.40,0.024,-0.017,-0.020,-0.623,0.100,0.080,-79.139,75.899,69.396
1746585780.42,-0.016,-0.016,-0.053,-0.560,0.031,0.107,-79.180,79.493,72.991
1746585780.44,-0.057,-0.024,-0.054,-0.542,0.107,0.163,-79.126,82.919,76.412
1746585780.46,-0.075,-0.028,-0.003,-0.526,0.298,0.242,-78.950,86.384,79.709
1746585780.48,-0.109,0.001,-0.017,-0.505,0.312,0.255,-78.678,89.788,82.799
1746585780.50,-0.144,0.031,-0.052,-0.448,0.268,0.184,-78.409,92.785,85.537
1746585780.52,-0.125,0.054,-0.019,-0.328,0.393,0.098,-78.228,95.251,87.672
1746585780.54,-0.088,0.056,-0.019,-0.219,0.373,0.119,-78.081,97.083,89.079
1746585780.56,-0.082,0.075,-0.039,-0.254,0.142,0.128,-77.894,98.514,90.213
1746585780.58,-0.104,0.089,-0.113,-0.238,-0.305,0.001,-77.771,99.694,91.522
1746585780.60,-0.075,0.055,-0.087,-0.140,-0.388,-0.046,-77.770,100.266,92.561
1746585780.62,-0.039,0.018,-0.008,-0.022,-0.175,-0.016,-77.789,100.380,93.014
1746585780.64,-0.024,0.017,0.011,0.046,0.052,-0.004,-77.802,100.236,92.932
1746585780.66,-0.034,0.003,0.019,0.101,0.087,0.040,-77.800,99.925,92.516
1746585780.68,-0.063,0.016,0.013,0.118,0.031,0.061,-77.757,99.346,91.852
1746585780.70,-0.078,0.034,-0.002,0.077,-0.054,0.037,-77.723,98.766,91.276
1746585780.72,-0.066,0.023,0.007,0.079,-0.016,0.041,-77.698,98.335,90.892
1746585780.74,-0.068,0.006,0.043,0.151,0.059,0.109,-77.640,97.757,90.255
1746585780.76,-0.087,0.008,0.070,0.186,0.049,0.163,-77.526,96.871,89.286
1746585780.78,-0.096,0.042,0.025,0.136,0.040,0.080,-77.454,96.069,88.403
1746585780.80,-0.083,0.041,-0.060,0.121,-0.088,-0.018,-77.471,95.443,87.785
1746585780.82,-0.045,0.008,-0.057,0.190,-0.113,-0.010,-77.524,94.577,87.016
1746585780.84,-0.037,-0.005,-0.030,0.279,-0.138,0.045,-77.532,93.257,85.821
1746585780.86,-0.040,-0.003,-0.015,0.346,-0.060,0.070,-77.488,91.528,84.175
1746585780.88,-0.053,0.001,0.009,0.368,0.102,0.084,-77.417,89.712,82.287
1746585780.90,-0.075,0.001,0.001,0.412,0.134,0.104,-77.301,87.881,80.257
1746585780.92,-0.095,0.028,-0.015,0.474,0.015,0.083,-77.165,85.783,78.001
1746585780.94,-0.092,0.072,-0.080,0.546,-0.149,0.010,-77.053,83.169,75.411
1746585780.96,-0.075,0.038,-0.062,0.592,-0.103,-0.063,-76.995,80.198,72.528
1746585780.98,-0.060,-0.029,-0.001,0.677,-0.022,-0.066,-76.925,76.991,69.305
1746585781.00,-0.042,-0.049,0.044,0.739,-0.019,-0.047,-76.785,73.554,65.798
1746585781.02,-0.028,-0.034,0.054,0.828,-0.042,-0.018,-76.536,69.871,62.041
1746585781.04,0.006,0.032,-0.069,0.799,-0.194,-0.075,-76.229,66.082,58.269
1746585781.05,0.009,0.016,-0.120,0.776,-0.250,-0.110,-75.946,62.356,54.721
1746585781.08,-0.019,-0.030,0.007,0.806,0.070,-0.081,-75.599,58.911,51.293
1746585781.09,-0.050,-0.053,0.079,0.863,0.208,-0.014,-75.139,55.942,48.027
1746585781.11,-0.036,-0.048,0.024,1.003,-0.123,0.003,-74.518,52.832,44.711
1746585781.14,-0.012,-0.021,-0.074,0.912,-0.354,-0.030,-73.820,49.427,41.493
1746585781.15,-0.008,0.003,-0.026,0.927,-0.260,-0.036,-73.167,46.386,38.721
1746585781.17,-0.068,0.031,-0.024,1.093,0.017,-0.074,-72.391,43.473,35.819
1746585781.19,-0.080,0.020,0.053,1.105,0.169,-0.021,-71.496,40.822,32.898
1746585781.21,-0.035,0.024,0.016,0.993,0.002,0.095,-70.538,38.827,30.654
1746585781.23,0.007,0.032,-0.036,0.925,-0.085,0.080,-69.614,37.117,28.936
1746585781.25,0.006,0.007,0.069,0.925,0.053,0.044,-68.727,35.623,27.349
1746585781.27,-0.025,-0.022,0.009,0.993,-0.006,0.042,-67.815,34.215,25.783
1746585781.29,0.003,-0.033,-0.028,1.133,-0.164,0.105,-66.745,32.641,24.190
1746585781.31,0.058,-0.019,-0.006,1.055,-0.225,0.180,-65.575,31.211,22.874
1746585781.33,-0.002,-0.019,0.023,0.870,-0.235,0.108,-64.562,30.109,21.946
1746585781.35,-0.024,-0.065,-0.016,0.756,-0.120,0.238,-63.649,29.160,21.156
1746585781.37,0.111,-0.112,0.181,0.615,0.098,0.557,-62.791,29.292,21.278
1746585781.39,0.148,-0.063,-0.011,1.045,-0.024,0.635,-61.613,29.660,21.606
1746585781.41,-0.050,0.060,-0.125,0.929,-0.635,0.260,-60.317,29.132,21.385
1746585781.43,-0.178,0.013,-0.139,0.814,-0.372,0.054,-59.401,27.813,20.678
1746585781.45,-0.031,-0.120,0.022,0.856,0.099,0.349,-58.458,27.323,20.205
1746585781.47,0.084,-0.088,0.040,1.026,-0.094,0.491,-57.301,27.311,20.152
1746585781.49,0.059,-0.006,-0.003,1.083,-0.166,0.406,-55.933,26.980,19.949
1746585781.51,-0.109,-0.011,-0.157,0.819,-0.291,0.335,-54.787,26.525,19.700
1746585781.53,-0.010,-0.115,-0.112,0.631,-0.063,0.421,-53.858,26.355,19.741
1746585781.55,0.138,-0.106,0.011,0.577,-0.370,0.392,-53.053,26.342,19.980
1746585781.57,0.110,-0.018,0.008,0.977,-0.441,0.267,-52.112,25.766,19.898
1746585781.59,-0.072,0.018,0.032,0.976,-0.113,0.189,-50.945,25.119,19.493
1746585781.61,-0.193,-0.045,-0.105,0.841,-0.047,0.324,-49.884,24.797,19.180
1746585781.63,-0.040,-0.008,0.029,0.662,0.211,0.397,-48.944,24.959,19.226
1746585781.65,0.051,0.113,0.061,0.592,-0.021,0.438,-48.094,25.214,19.417
1746585781.67,0.056,0.181,0.050,0.712,0.031,0.367,-47.243,25.337,19.592
1746585781.69,-0.048,0.141,0.003,0.835,-0.108,0.237,-46.290,25.244,19.483
1746585781.71,-0.121,0.012,-0.067,0.893,-0.179,0.266,-45.269,24.864,19.242
1746585781.73,-0.082,-0.066,-0.089,0.782,0.044,0.277,-44.241,24.663,19.075
1746585781.75,-0.047,-0.070,0.015,0.644,-0.072,0.217,-43.406,24.599,18.968
1746585781.77,0.001,0.011,0.037,0.806,-0.042,0.183,-42.573,24.379,18.811
1746585781.79,-0.011,0.055,0.076,1.015,0.020,0.079,-41.542,24.122,18.390
1746585781.81,-0.045,-0.047,-0.050,0.959,0.088,0.279,-40.423,23.920,17.987
1746585781.83,-0.004,-0.166,-0.069,0.735,0.090,0.405,-39.370,24.023,17.984
1746585781.85,0.046,-0.136,-0.067,0.704,-0.112,0.269,-38.483,24.047,18.029
1746585781.87,-0.011,-0.022,0.084,0.818,-0.119,0.233,-37.585,23.828,17.896
1746585781.89,-0.007,-0.017,0.110,1.010,0.018,0.278,-36.515,23.657,17.697
1746585781.91,-0.014,-0.001,-0.085,0.937,0.012,0.374,-35.310,23.582,17.547
1746585781.93,-0.040,0.046,-0.058,0.662,0.131,0.407,-34.303,23.714,17.598
1746585781.95,-0.056,0.043,-0.002,0.651,0.105,0.343,-33.468,23.930,17.732
1746585781.97,-0.012,0.023,0.002,0.816,0.025,0.300,-32.548,23.969,17.706
1746585781.99,0.063,-0.044,0.095,0.906,0.066,0.249,-31.527,23.975,17.590
1746585782.01,0.037,-0.079,-0.019,1.012,-0.049,0.276,-30.388,23.864,17.371
1746585782.03,-0.021,-0.002,-0.087,0.825,0.158,0.193,-29.296,23.812,17.166
1746585782.05,-0.046,0.017,-0.022,0.734,0.104,0.245,-28.424,23.918,16.997
1746585782.07,-0.025,0.042,0.024,0.831,-0.002,0.261,-27.483,23.935,16.912
1746585782.09,0.070,0.022,0.102,0.927,-0.117,0.222,-26.462,23.830,16.734
1746585782.11,0.016,0.015,-0.037,0.955,-0.186,0.203,-25.360,23.510,16.484
1746585782.13,-0.060,0.046,-0.097,0.771,-0.083,0.165,-24.376,23.284,16.266
1746585782.15,-0.060,0.062,0.039,0.600,-0.027,0.204,-23.571,23.194,16.139
1746585782.17,-0.035,-0.020,0.130,0.385,0.083,0.282,-22.875,23.305,16.164
1746585782.19,-0.052,-0.114,-0.066,0.828,0.018,0.301,-22.111,23.292,16.188
1746585782.21,-0.011,-0.087,-0.004,0.694,0.121,0.172,-21.235,23.354,16.104
1746585782.23,0.009,0.009,-0.036,0.815,0.077,0.180,-20.351,23.394,15.914
1746585782.25,-0.025,0.035,0.001,0.849,-0.038,0.162,-19.415,23.366,15.719
1746585782.27,0.035,0.013,0.052,0.928,-0.155,0.112,-18.404,23.163,15.447
1746585782.29,0.045,-0.040,0.084,0.959,-0.200,0.096,-17.371,22.806,15.103
1746585782.31,-0.064,-0.063,-0.057,0.957,-0.044,0.188,-16.305,22.603,14.825
1746585782.33,-0.134,0.034,-0.069,0.895,0.111,0.250,-15.221,22.581,14.657
1746585782.35,-0.027,0.065,-0.029,0.930,0.021,0.139,-14.175,22.648,14.473
1746585782.37,-0.000,-0.025,0.035,0.947,-0.182,0.044,-13.146,22.478,14.142
1746585782.39,0.019,-0.092,0.015,0.929,-0.275,0.091,-12.105,22.121,13.775
1746585782.41,-0.056,-0.050,-0.057,0.964,-0.152,0.096,-11.067,21.822,13.473
1746585782.43,-0.109,0.013,-0.022,0.933,-0.057,0.189,-10.016,21.642,13.227
1746585782.45,-0.005,0.003,-0.049,0.940,-0.025,0.214,-8.928,21.586,13.045
1746585782.47,0.027,-0.042,0.004,0.944,-0.037,0.228,-7.810,21.530,12.902
1746585782.49,0.051,-0.036,-0.029,0.965,-0.087,0.288,-6.700,21.453,12.779
1746585782.51,-0.022,0.033,-0.023,0.970,-0.138,0.211,-5.567,21.296,12.641
1746585782.53,0.015,0.019,-0.029,0.952,-0.254,0.196,-4.457,21.075,12.442
1746585782.55,0.025,0.016,-0.038,0.922,-0.298,0.211,-3.385,20.717,12.280
1746585782.57,-0.024,0.042,-0.018,0.948,-0.209,0.194,-2.320,20.386,12.106
1746585782.59,-0.129,0.052,0.034,0.992,0.063,0.258,-1.180,20.301,11.979
1746585782.61,-0.168,0.044,-0.036,0.997,0.175,0.129,-0.032,20.474,11.788
1746585782.63,0.005,-0.027,-0.060,0.920,0.001,0.116,1.032,20.583,11.516
1746585782.65,0.088,-0.027,-0.067,0.870,-0.204,0.181,2.063,20.465,11.318
1746585782.67,-0.062,-0.027,-0.066,0.892,-0.019,0.174,3.074,20.325,11.180
1746585782.69,-0.196,0.019,0.019,0.841,0.215,0.126,4.072,20.443,11.001
1746585782.71,-0.040,-0.017,-0.129,0.889,0.290,0.070,5.032,20.783,10.761
1746585782.73,0.112,-0.045,-0.071,0.833,0.204,0.047,5.979,21.085,10.461
1746585782.75,0.018,-0.027,-0.061,0.837,0.095,0.095,6.915,21.257,10.187
1746585782.77,-0.093,-0.014,-0.001,0.784,0.189,0.082,7.811,21.448,9.920
1746585782.79,-0.037,-0.046,-0.085,0.738,0.227,0.073,8.654,21.733,9.655
1746585782.81,0.055,-0.044,-0.141,0.716,0.064,0.043,9.459,21.948,9.378
1746585782.83,0.145,-0.102,-0.120,0.587,-0.066,0.106,10.165,21.972,9.134
1746585782.85,0.067,-0.053,-0.053,0.531,-0.062,0.126,10.809,21.901,8.984
1746585782.87,-0.083,-0.068,-0.010,0.539,0.019,0.122,11.431,21.896,8.848
1746585782.89,-0.017,-0.002,-0.019,0.555,-0.021,0.067,12.059,21.939,8.672
1746585782.91,0.090,-0.054,-0.072,0.410,-0.130,0.112,12.595,21.873,8.502
1746585782.93,0.055,-0.044,-0.130,0.369,-0.293,0.153,13.078,21.624,8.433
1746585782.95,-0.003,-0.093,-0.050,0.234,-0.126,0.212,13.466,21.340,8.461
1746585782.97,-0.135,-0.031,-0.099,0.264,0.055,0.145,13.815,21.286,8.524
1746585782.99,-0.097,-0.019,-0.068,0.217,0.039,0.048,14.112,21.340,8.470
1746585783.01,-0.008,-0.044,-0.092,0.077,0.050,-0.007,14.276,21.409,8.344
1746585783.03,-0.012,-0.041,-0.235,0.069,0.038,-0.068,14.342,21.469,8.239
1746585783.05,-0.018,-0.102,-0.215,-0.063,-0.029,-0.141,14.299,21.508,8.082
1746585783.07,0.023,-0.116,-0.160,-0.251,0.043,-0.191,14.072,21.532,7.941
1746585783.09,0.003,-0.103,-0.247,-0.341,0.045,-0.301,13.650,21.625,7.771
1746585783.11,0.036,-0.124,-0.215,-0.531,0.091,-0.317,13.063,21.733,7.584
1746585783.13,0.085,-0.149,-0.255,-0.718,0.153,-0.320,12.267,21.890,7.494
1746585783.15,0.091,-0.159,-0.222,-0.902,0.121,-0.356,11.275,22.061,7.465
1746585783.17,0.122,-0.159,-0.158,-1.094,0.173,-0.332,10.069,22.209,7.528
1746585783.19,0.078,-0.135,-0.122,-1.220,0.195,-0.321,8.707,22.393,7.694
1746585783.21,0.051,-0.055,-0.080,-1.340,0.279,-0.290,7.208,22.643,7.936
1746585783.23,0.002,0.036,-0.133,-1.420,0.336,-0.263,5.648,22.938,8.258
1746585783.25,0.032,0.042,-0.106,-1.482,0.328,-0.248,3.991,23.292,8.655
1746585783.27,0.045,0.007,-0.051,-1.534,0.243,-0.305,2.299,23.591,9.053
1746585783.29,0.013,-0.018,-0.080,-1.551,0.281,-0.340,0.531,23.895,9.423
1746585783.31,-0.050,0.022,-0.082,-1.533,0.407,-0.376,-1.231,24.272,9.766
1746585783.33,-0.073,0.017,-0.059,-1.571,0.471,-0.445,-3.046,24.793,10.075
1746585783.35,0.017,0.009,0.018,-1.548,0.352,-0.511,-4.892,25.305,10.339
1746585783.37,0.006,-0.101,-0.024,-1.486,0.142,-0.547,-6.714,25.583,10.544
1746585783.39,-0.028,-0.155,-0.064,-1.505,0.196,-0.585,-8.535,25.774,10.687
1746585783.41,-0.045,-0.070,-0.043,-1.490,0.189,-0.575,-10.366,26.030,10.848
1746585783.43,-0.036,-0.058,0.016,-1.421,0.092,-0.619,-12.164,26.204,10.971
1746585783.45,-0.047,-0.148,-0.030,-1.350,0.093,-0.616,-13.890,26.310,11.031
1746585783.47,-0.052,-0.141,-0.036,-1.496,0.323,-0.596,-15.635,26.562,11.127
1746585783.49,-0.043,-0.067,-0.000,-1.397,0.282,-0.584,-17.430,26.981,11.294
1746585783.51,-0.018,-0.036,0.031,-1.340,0.184,-0.661,-19.139,27.275,11.378
1746585783.53,-0.047,-0.037,-0.016,-1.271,0.070,-0.653,-20.808,27.412,11.377
1746585783.55,-0.082,-0.034,0.052,-1.367,0.208,-0.524,-22.453,27.603,11.477
1746585783.57,-0.039,-0.042,0.019,-1.302,0.197,-0.492,-24.070,27.924,11.715
1746585783.59,0.005,-0.077,-0.068,-1.247,0.312,-0.699,-25.669,28.267,11.820
1746585783.61,-0.005,-0.080,-0.018,-1.302,0.104,-0.819,-27.375,28.490,11.724
1746585783.63,-0.017,-0.102,-0.078,-1.303,-0.055,-0.752,-29.103,28.417,11.621
1746585783.65,0.065,-0.137,0.056,-1.283,0.070,-0.679,-30.822,28.476,11.631
1746585783.67,0.052,-0.178,-0.096,-0.960,-0.182,-0.752,-32.320,28.323,11.517
1746585783.69,-0.027,-0.203,-0.049,-0.929,-0.170,-0.834,-33.682,27.933,11.138
1746585783.71,-0.027,-0.201,-0.080,-1.090,-0.105,-0.724,-35.105,27.550,10.817
1746585783.73,0.034,-0.144,0.074,-1.458,0.150,-0.566,-36.741,27.624,10.845
1746585783.75,0.036,-0.087,-0.024,-1.509,-0.057,-0.464,-38.530,27.921,11.210
1746585783.77,0.030,-0.051,-0.009,-1.433,-0.011,-0.521,-40.282,28.084,11.615
1746585783.79,0.067,-0.065,0.044,-1.384,0.115,-0.637,-41.999,28.327,11.825
1746585783.81,0.081,-0.081,-0.024,-1.404,-0.040,-0.532,-43.722,28.519,12.038
1746585783.83,0.078,-0.075,-0.029,-1.440,0.064,-0.393,-45.391,28.811,12.487
1746585783.85,0.030,-0.061,0.002,-1.509,0.017,-0.397,-47.086,29.352,13.127
1746585783.87,0.003,-0.049,-0.025,-1.470,-0.228,-0.481,-48.807,29.674,13.727
1746585783.89,0.021,-0.069,0.012,-1.515,-0.274,-0.561,-50.579,29.748,14.229
1746585783.91,0.049,-0.081,0.020,-1.566,-0.193,-0.585,-52.435,29.867,14.714
1746585783.93,0.065,-0.067,0.001,-1.529,-0.216,-0.533,-54.289,30.088,15.266
1746585783.94,0.030,-0.055,-0.026,-1.497,-0.441,-0.493,-56.074,30.257,15.910
1746585783.96,-0.005,-0.065,-0.058,-1.460,-0.329,-0.585,-57.831,30.274,16.505
1746585783.98,-0.045,-0.088,0.019,-1.516,-0.183,-0.616,-59.651,30.413,16.982
1746585784.00,-0.027,-0.101,0.086,-1.573,-0.284,-0.387,-61.471,30.837,17.767
1746585784.02,-0.008,-0.107,0.122,-1.586,-0.322,-0.066,-63.149,31.883,19.339
1746585784.04,-0.007,-0.087,0.044,-1.494,-0.383,0.123,-64.607,33.510,21.583
1746585784.06,-0.006,-0.068,-0.032,-1.457,-0.524,0.120,-65.906,35.318,24.153
1746585784.08,-0.036,-0.051,-0.012,-1.569,-0.574,0.026,-67.237,37.179,26.874
1746585784.10,-0.075,-0.070,0.098,-1.734,-0.643,-0.024,-68.724,39.364,29.980
1746585784.12,-0.091,-0.055,0.085,-1.627,-0.725,-0.032,-70.226,41.924,33.553
1746585784.14,-0.138,0.033,0.059,-1.405,-0.584,-0.111,-71.539,44.385,36.984
1746585784.16,-0.150,0.091,0.043,-1.209,-0.208,-0.163,-72.701,46.862,40.068
1746585784.18,-0.102,0.091,0.045,-1.051,0.023,-0.093,-73.675,49.633,43.040
1746585784.20,-0.069,0.056,0.056,-0.930,-0.038,-0.059,-74.445,52.537,46.064
1746585784.22,-0.059,0.012,0.071,-0.855,0.027,-0.069,-75.102,55.366,49.021
1746585784.24,-0.033,-0.022,0.037,-0.873,0.260,-0.066,-75.700,58.507,52.102
1746585784.26,-0.015,-0.056,0.017,-0.878,0.376,-0.031,-76.255,62.310,55.617
1746585784.28,-0.033,-0.051,-0.030,-0.827,0.280,0.043,-76.667,66.312,59.357
1746585784.30,-0.060,-0.019,-0.119,-0.772,0.285,0.036,-76.954,70.319,63.146
1746585784.32,-0.036,-0.035,-0.063,-0.763,0.262,0.029,-77.189,74.288,66.894
1746585784.34,-0.006,-0.058,-0.016,-0.645,0.146,0.071,-77.332,78.097,70.547
1746585784.36,0.004,-0.043,-0.021,-0.534,-0.018,0.146,-77.332,81.192,73.648
1746585784.38,-0.019,-0.006,-0.039,-0.422,-0.065,0.178,-77.219,83.629,76.205
1746585784.40,-0.069,0.018,-0.095,-0.289,-0.257,0.176,-77.051,85.356,78.148
1746585784.42,-0.112,0.035,-0.125,-0.181,-0.383,0.111,-76.905,86.119,79.330
1746585784.44,-0.088,0.045,-0.075,-0.162,-0.304,0.075,-76.817,86.563,80.195
1746585784.46,-0.038,0.041,-0.034,-0.062,-0.298,0.081,-76.737,86.903,80.882
1746585784.48,-0.018,0.022,0.020,0.185,-0.280,0.099,-76.633,86.243,80.558
1746585784.50,-0.062,0.024,0.043,0.181,-0.231,0.133,-76.480,85.023,79.597
1746585784.52,-0.110,0.045,0.076,0.017,-0.311,0.075,-76.346,84.289,79.151
1746585784.54,-0.112,0.056,0.110,-0.106,-0.299,0.043,-76.293,84.207,79.437
1746585784.56,-0.097,0.062,0.061,-0.078,-0.404,0.062,-76.240,84.333,79.956
1746585784.58,-0.138,0.051,-0.038,0.066,-0.497,-0.004,-76.203,83.862,80.027
1746585784.60,-0.143,0.013,0.027,0.226,-0.288,-0.023,-76.211,82.665,79.276
1746585784.62,-0.141,0.030,0.077,0.150,-0.050,0.007,-76.178,81.532,78.295
1746585784.64,-0.136,0.048,0.035,0.131,-0.071,-0.067,-76.187,80.913,77.704
1746585784.66,-0.051,0.016,0.010,0.277,0.060,-0.061,-76.233,79.872,76.682
1746585784.68,-0.009,-0.003,0.093,0.363,0.313,0.001,-76.190,78.557,75.089
1746585784.70,-0.035,0.016,0.082,0.272,0.189,0.001,-76.107,77.397,73.557
1746585784.72,-0.068,0.015,-0.027,0.173,-0.203,-0.020,-76.062,76.401,72.543
1746585784.74,-0.029,0.000,-0.052,0.139,-0.173,-0.028,-76.053,75.442,71.833
1746585784.76,-0.012,-0.011,-0.014,0.266,0.134,0.003,-76.014,74.553,70.928
1746585784.78,-0.043,-0.006,-0.044,0.442,0.143,0.039,-75.872,73.195,69.330
1746585784.80,-0.089,0.022,-0.071,0.487,-0.067,0.009,-75.675,71.242,67.269
1746585784.82,-0.068,0.026,-0.038,0.497,-0.030,-0.028,-75.500,69.102,65.151
1746585784.84,-0.043,-0.020,0.052,0.596,0.218,0.002,-75.289,66.990,62.852
1746585784.86,-0.048,-0.013,0.010,0.707,0.213,0.060,-74.951,64.758,60.263
1746585784.88,-0.095,0.048,-0.060,0.733,0.049,0.022,-74.526,62.262,57.512
1746585784.90,-0.119,0.083,-0.091,0.689,-0.034,-0.112,-74.174,59.650,54.816
1746585784.92,-0.091,0.039,-0.039,0.776,0.234,-0.228,-73.911,56.903,51.867
1746585784.94,-0.056,-0.041,0.072,0.878,0.294,-0.228,-73.603,54.084,48.548
1746585784.96,-0.023,-0.058,0.043,0.893,-0.152,-0.147,-73.146,50.986,45.211
1746585784.98,0.033,-0.035,-0.010,0.832,-0.151,-0.069,-72.614,48.077,42.433
1746585785.00,0.029,-0.017,0.020,0.971,0.194,-0.007,-71.944,45.703,39.886
1746585785.02,-0.006,0.012,0.022,1.083,0.263,-0.020,-71.119,43.520,37.273
1746585785.04,-0.028,0.028,-0.059,1.196,-0.036,-0.028,-70.163,41.057,34.517
1746585785.06,-0.060,0.033,-0.042,1.060,-0.232,-0.018,-69.177,38.577,32.077
1746585785.08,-0.082,0.029,-0.011,0.995,-0.005,-0.012,-68.261,36.517,30.056
1746585785.10,-0.041,-0.027,0.097,0.931,0.324,0.069,-67.364,35.235,28.434
1746585785.12,0.037,-0.073,-0.006,1.150,0.127,0.148,-66.335,34.204,27.011
1746585785.14,0.084,-0.060,-0.029,1.325,0.015,0.193,-65.021,32.863,25.471
1746585785.16,0.053,-0.017,-0.071,1.074,-0.308,0.239,-63.708,31.616,24.215
1746585785.18,0.041,-0.055,-0.053,0.900,-0.222,0.254,-62.626,30.569,23.506
1746585785.20,0.064,-0.138,0.127,0.867,0.204,0.370,-61.577,30.204,23.034
1746585785.22,0.036,-0.149,-0.032,0.953,-0.498,0.512,-60.449,30.019,22.925
1746585785.24,0.005,-0.060,-0.120,1.114,-0.751,0.399,-59.117,28.966,22.673
1746585785.26,-0.001,0.064,-0.008,1.032,-0.281,0.125,-57.895,27.847,22.043
1746585785.28,0.001,0.064,0.053,0.880,-0.078,0.200,-56.854,27.086,21.341
1746585785.30,-0.007,0.025,0.016,0.720,-0.328,0.497,-55.873,26.803,21.267
1746585785.32,-0.015,0.023,-0.006,0.836,-0.426,0.438,-54.835,26.548,21.473
1746585785.34,-0.080,0.042,0.044,0.976,-0.275,0.146,-53.755,25.875,21.198
1746585785.36,-0.103,0.007,0.010,1.065,-0.045,0.047,-52.657,25.142,20.496
1746585785.38,-0.131,-0.042,-0.012,0.939,-0.070,0.233,-51.546,24.612,19.899
1746585785.40,-0.012,-0.052,0.008,0.917,-0.053,0.400,-50.443,24.433,19.769
1746585785.42,0.084,-0.012,0.031,1.017,0.004,0.313,-49.272,24.377,19.667
1746585785.44,0.011,0.049,-0.018,1.130,-0.134,0.176,-48.027,23.961,19.275
1746585785.46,-0.093,0.022,-0.065,1.034,0.013,0.221,-46.791,23.545,18.801
1746585785.48,-0.021,-0.059,0.021,0.841,0.086,0.379,-45.682,23.532,18.670
1746585785.50,0.046,-0.050,0.016,0.842,-0.020,0.389,-44.634,23.577,18.700
1746585785.52,-0.004,-0.017,0.011,0.946,0.071,0.373,-43.533,23.605,18.704
1746585785.54,-0.087,0.013,-0.090,0.957,0.192,0.300,-42.350,23.640,18.567
1746585785.56,-0.024,-0.000,-0.004,0.876,0.232,0.299,-41.268,23.822,18.424
1746585785.58,0.019,-0.030,0.043,0.850,0.182,0.390,-40.209,24.014,18.361
1746585785.60,-0.015,-0.019,-0.038,0.837,0.014,0.445,-39.143,24.171,18.441
1746585785.62,-0.045,-0.040,-0.034,0.939,0.092,0.294,-38.046,24.210,18.401
1746585785.64,0.011,-0.041,0.039,1.084,0.107,0.279,-36.879,24.170,18.160
1746585785.66,0.060,-0.007,-0.002,0.937,0.020,0.431,-35.614,24.134,18.000
1746585785.68,0.035,-0.018,0.017,0.681,0.063,0.491,-34.585,24.315,18.160
1746585785.70,-0.033,-0.010,-0.074,0.774,-0.036,0.347,-33.627,24.381,18.283
1746585785.72,-0.005,-0.042,0.041,0.898,-0.002,0.165,-32.643,24.276,18.136
1746585785.74,-0.094,-0.056,-0.068,1.009,-0.120,0.188,-31.545,24.002,17.793
1746585785.76,-0.118,0.025,-0.035,0.820,0.064,0.279,-30.478,23.866,17.585
1746585785.78,-0.036,0.137,-0.004,0.819,0.095,0.298,-29.508,23.936,17.524
1746585785.80,-0.001,0.039,0.164,0.984,0.028,0.160,-28.487,23.927,17.332
1746585785.82,-0.025,-0.159,0.053,1.283,-0.047,0.054,-27.223,23.669,16.870
1746585785.84,-0.096,-0.065,-0.034,1.187,0.087,-0.081,-25.922,23.392,16.184
1746585785.86,-0.056,0.124,-0.015,1.065,0.182,0.038,-24.759,23.318,15.598
1746585785.88,-0.006,0.173,0.028,1.002,0.079,0.067,-23.648,23.285,15.156
1746585785.90,-0.023,0.038,0.003,1.025,0.025,0.075,-22.560,23.176,14.744
1746585785.92,-0.052,-0.097,-0.087,1.026,0.030,0.035,-21.439,23.049,14.324
1746585785.94,-0.041,-0.085,0.052,1.095,-0.085,-0.033,-20.339,22.853,13.818
1746585785.96,-0.028,-0.135,-0.001,1.152,-0.207,-0.035,-19.151,22.471,13.245
1746585785.98,0.046,-0.064,-0.048,1.042,-0.177,0.039,-17.989,22.099,12.726
1746585786.00,0.019,0.027,-0.072,0.895,-0.163,0.202,-16.914,21.813,12.426
1746585786.02,0.023,-0.001,0.045,0.865,-0.129,0.221,-15.909,21.618,12.286
1746585786.04,0.068,-0.097,0.023,0.902,-0.199,0.248,-14.854,21.369,12.166
1746585786.06,0.024,-0.153,0.073,0.843,-0.153,0.291,-13.823,21.132,12.064
1746585786.08,-0.055,-0.200,-0.130,0.812,-0.000,0.469,-12.791,21.031,12.152
1746585786.10,-0.050,0.044,-0.123,0.784,0.114,0.516,-11.728,21.169,12.348
1746585786.12,0.032,-0.008,0.033,0.732,-0.045,0.486,-10.719,21.295,12.596
1746585786.14,0.006,-0.111,0.129,0.725,-0.009,0.409,-9.760,21.265,12.778
1746585786.16,-0.087,-0.057,-0.037,0.807,0.069,0.461,-8.757,21.344,12.934
1746585786.18,-0.197,0.172,-0.039,0.824,0.228,0.395,-7.694,21.530,13.038
1746585786.20,-0.040,0.168,-0.003,0.799,0.158,0.403,-6.668,21.799,13.125
1746585786.22,0.025,0.093,-0.040,0.866,-0.025,0.288,-5.627,21.879,13.156
1746585786.24,-0.040,0.015,-0.060,0.965,-0.140,0.152,-4.584,21.731,12.987
1746585786.26,-0.088,-0.041,-0.026,1.028,-0.122,0.129,-3.452,21.550,12.709
1746585786.28,-0.044,0.012,0.016,1.079,0.002,0.096,-2.300,21.482,12.389
1746585786.30,-0.028,0.138,0.022,1.099,0.029,0.040,-1.096,21.478,12.010
1746585786.32,0.032,0.089,-0.028,1.171,-0.131,-0.007,0.095,21.440,11.538
1746585786.34,0.021,-0.086,-0.029,1.177,-0.219,-0.052,1.348,21.227,11.003
1746585786.36,-0.042,-0.170,0.049,1.075,-0.036,0.016,2.520,21.065,10.520
1746585786.38,-0.096,-0.069,-0.071,1.111,0.190,0.033,3.697,21.211,10.104
1746585786.40,-0.027,0.044,-0.016,1.062,0.146,-0.010,4.867,21.458,9.665
1746585786.42,0.076,-0.018,-0.070,1.012,-0.084,-0.051,5.961,21.532,9.185
1746585786.44,0.160,-0.123,-0.052,0.853,-0.135,0.124,6.965,21.431,8.816
1746585786.46,0.009,-0.002,-0.090,0.827,-0.041,0.251,7.938,21.317,8.675
1746585786.48,-0.104,0.076,-0.044,0.822,0.206,0.307,8.925,21.413,8.650
1746585786.50,-0.075,0.003,-0.042,0.751,0.314,0.255,9.875,21.750,8.629
1746585786.52,0.115,-0.083,-0.124,0.660,0.076,0.198,10.733,22.002,8.523
1746585786.54,0.177,-0.124,-0.198,0.501,-0.129,0.212,11.445,21.966,8.452
1746585786.56,0.062,-0.048,-0.209,0.414,-0.061,0.291,12.025,21.806,8.527
1746585786.58,-0.104,0.035,-0.178,0.384,0.066,0.182,12.539,21.803,8.586
1746585786.60,-0.020,-0.078,-0.133,0.287,0.128,0.055,12.963,21.931,8.530
1746585786.62,0.126,-0.115,-0.220,0.110,0.024,0.024,13.185,22.024,8.465
1746585786.64,0.105,-0.129,-0.259,-0.086,-0.021,-0.003,13.208,22.021,8.458
1746585786.66,0.036,-0.122,-0.215,-0.251,0.034,-0.047,13.022,22.004,8.474
1746585786.68,0.014,-0.118,-0.192,-0.458,0.147,-0.129,12.608,22.080,8.522
1746585786.70,0.118,-0.112,-0.321,-0.588,0.170,-0.185,11.983,22.254,8.562
1746585786.72,0.076,-0.121,-0.233,-0.814,0.171,-0.206,11.161,22.411,8.632
1746585786.74,0.059,-0.108,-0.237,-1.044,0.353,-0.156,10.106,22.668,8.863
1746585786.76,0.046,-0.132,-0.219,-1.204,0.544,-0.241,8.829,23.151,9.154
1746585786.77,0.135,-0.125,-0.266,-1.350,0.388,-0.355,7.362,23.657,9.439
1746585786.79,0.114,-0.100,-0.142,-1.544,0.283,-0.439,5.658,24.006,9.665
1746585786.82,0.106,-0.120,-0.207,-1.793,0.286,-0.338,3.723,24.289,10.052
1746585786.83,0.158,-0.028,-0.213,-1.956,0.157,-0.326,1.633,24.548,10.611
1746585786.85,0.132,-0.072,-0.009,-2.070,-0.095,-0.415,-0.641,24.573,11.176
1746585786.87,0.040,-0.188,0.035,-2.040,-0.119,-0.378,-2.985,24.450,11.739
1746585786.89,0.020,-0.199,-0.105,-2.045,-0.059,-0.289,-5.261,24.399,12.357
1746585786.91,-0.051,-0.059,-0.003,-2.022,-0.287,-0.313,-7.530,24.296,13.032
1746585786.93,-0.155,-0.065,0.020,-1.848,-0.166,-0.431,-9.724,24.076,13.559
1746585786.95,-0.241,-0.102,-0.068,-1.732,0.002,-0.509,-11.784,24.062,13.897
1746585786.97,-0.242,-0.054,-0.040,-1.713,0.182,-0.600,-13.844,24.224,14.130
1746585786.99,-0.113,-0.021,0.008,-1.689,0.173,-0.673,-15.915,24.477,14.277
1746585787.01,0.016,-0.075,0.037,-1.607,0.220,-0.689,-17.943,24.718,14.349
1746585787.03,0.028,-0.124,0.038,-1.621,0.111,-0.662,-19.935,24.945,14.418
1746585787.05,0.020,-0.137,0.012,-1.635,0.197,-0.592,-21.919,25.155,14.566
1746585787.07,-0.059,-0.051,0.067,-1.688,0.281,-0.602,-23.948,25.545,14.796
1746585787.09,-0.120,0.023,-0.063,-1.585,0.275,-0.633,-25.923,25.916,14.980
1746585787.11,-0.075,0.021,-0.024,-1.619,0.212,-0.650,-27.883,26.287,15.143
1746585787.13,0.032,-0.031,0.070,-1.553,0.078,-0.692,-29.868,26.534,15.297
1746585787.15,0.021,-0.071,0.063,-1.413,-0.006,-0.797,-31.748,26.544,15.283
1746585787.17,-0.012,-0.099,0.009,-1.419,-0.091,-0.760,-33.594,26.436,15.172
1746585787.19,-0.039,-0.094,-0.099,-1.351,-0.059,-0.682,-35.371,26.301,15.136
1746585787.21,-0.035,-0.104,-0.037,-1.527,0.303,-0.643,-37.167,26.462,15.194
1746585787.23,0.039,-0.173,0.065,-1.600,0.352,-0.578,-39.095,27.033,15.431
1746585787.25,0.088,-0.171,0.060,-1.546,0.112,-0.473,-40.966,27.552,15.809
1746585787.27,0.087,-0.111,-0.019,-1.439,-0.176,-0.523,-42.730,27.776,16.225
1746585787.29,0.052,-0.054,-0.052,-1.644,-0.053,-0.626,-44.555,27.776,16.507
1746585787.31,0.001,-0.072,0.125,-1.956,0.205,-0.587,-46.724,28.276,17.023
1746585787.33,-0.034,-0.117,0.038,-1.779,0.009,-0.518,-48.931,28.975,17.750
1746585787.35,-0.008,-0.107,-0.030,-1.487,-0.258,-0.516,-50.824,29.272,18.357
1746585787.37,0.023,-0.056,-0.063,-1.512,-0.410,-0.587,-52.593,29.233,18.787
1746585787.39,0.033,-0.062,0.029,-1.763,-0.329,-0.550,-54.556,29.232,19.350
1746585787.41,-0.020,-0.085,0.103,-1.780,-0.341,-0.393,-56.607,29.672,20.299
1746585787.43,-0.032,-0.060,-0.013,-1.617,-0.501,-0.277,-58.484,30.188,21.513
1746585787.45,-0.013,-0.050,-0.049,-1.493,-0.344,-0.242,-60.138,30.767,22.763
1746585787.47,-0.013,-0.133,0.081,-1.634,-0.293,-0.146,-61.768,31.706,24.227
1746585787.49,-0.038,-0.178,0.085,-1.809,-0.588,-0.048,-63.499,33.140,26.366
1746585787.51,-0.083,-0.145,-0.099,-1.674,-0.883,-0.049,-65.193,34.480,28.836
1746585787.53,-0.084,-0.150,0.038,-1.753,-0.590,0.052,-66.772,36.095,31.559
1746585787.55,-0.064,-0.120,0.076,-1.702,-0.255,0.170,-68.289,38.825,35.023
1746585787.57,-0.060,-0.042,0.067,-1.393,-0.158,0.139,-69.516,41.973,38.626
1746585787.59,-0.032,0.058,0.029,-1.174,-0.163,0.088,-70.479,44.729,41.764
1746585787.61,0.006,0.044,0.137,-1.281,-0.056,0.158,-71.347,47.804,45.142
1746585787.63,-0.017,0.065,-0.018,-1.371,0.012,0.189,-72.160,51.638,49.215
1746585787.65,-0.075,0.041,-0.033,-1.458,0.207,0.110,-72.981,56.311,53.983
1746585787.67,-0.099,0.003,-0.016,-1.147,0.169,0.040,-73.709,61.062,58.675
1746585787.69,-0.098,-0.013,0.023,-0.695,-0.093,0.036,-74.146,64.311,62.034
1746585787.71,-0.125,0.030,0.040,-0.745,0.332,0.144,-74.380,67.052,64.809
1746585787.73,-0.174,0.021,-0.015,-0.830,0.655,0.203,-74.512,71.065,68.327
1746585787.75,-0.162,0.001,-0.045,-0.691,0.553,0.124,-74.584,74.986,71.677
1746585787.77,-0.092,0.022,-0.036,-0.651,0.641,0.007,-74.687,78.375,74.514
1746585787.79,-0.019,-0.004,0.030,-0.503,0.499,-0.086,-74.849,81.505,77.017
1746585787.81,0.025,0.011,-0.027,-0.331,0.104,-0.066,-75.012,83.469,78.719
1746585787.83,0.023,0.044,-0.055,-0.374,0.090,0.140,-75.014,84.963,80.192
1746585787.85,-0.059,0.040,-0.093,-0.387,0.191,0.226,-74.815,86.900,82.017
1746585787.87,-0.078,-0.020,-0.038,-0.233,0.324,0.138,-74.617,88.507,83.395
1746585787.89,-0.030,-0.035,0.036,-0.084,0.395,0.028,-74.531,89.618,84.080
1746585787.91,0.016,-0.050,0.057,0.001,-0.001,0.067,-74.488,89.973,84.191
1746585787.93,-0.002,0.049,-0.051,-0.306,-0.279,0.131,-74.364,90.286,84.707
1746585787.95,-0.090,0.088,-0.104,-0.532,-0.237,0.052,-74.243,91.805,86.632
1746585787.97,-0.082,0.009,-0.043,-0.213,0.034,-0.015,-74.212,93.349,88.331
1746585787.99,-0.010,-0.034,0.066,0.130,-0.029,0.048,-74.204,93.436,88.397
1746585788.01,0.002,0.027,0.031,0.005,-0.015,0.123,-74.103,92.968,87.940
1746585788.03,-0.090,0.079,-0.192,-0.077,-0.207,0.055,-73.987,93.133,88.239
1746585788.05,-0.101,0.026,-0.105,0.247,0.049,-0.004,-73.973,92.706,87.945
1746585788.07,-0.025,-0.013,0.110,0.499,0.319,0.021,-73.989,91.372,86.297
1746585788.09,-0.009,0.029,0.065,0.293,0.282,0.026,-73.952,90.033,84.533
1746585788.11,-0.022,0.037,-0.026,0.129,0.048,-0.038,-73.967,89.497,83.782
1746585788.13,0.013,-0.034,0.071,0.253,0.046,-0.020,-73.995,88.792,83.007
1746585788.15,0.015,-0.063,0.137,0.239,-0.041,0.044,-73.974,87.750,81.913
1746585788.17,0.014,-0.005,0.124,-0.019,0.004,0.047,-73.905,87.241,81.408
1746585788.19,-0.047,0.036,-0.007,-0.098,-0.249,-0.038,-73.901,87.524,81.818
1746585788.21,-0.080,0.008,0.005,0.165,-0.347,-0.080,-73.983,86.989,81.671
1746585788.23,-0.064,-0.013,0.120,0.329,-0.085,-0.027,-74.024,85.701,80.593
1746585788.25,-0.069,0.003,0.102,0.359,-0.026,0.021,-73.990,84.270,79.129
1746585788.27,-0.120,0.070,-0.045,0.253,-0.424,-0.052,-73.950,82.814,77.863
1746585788.29,-0.140,0.059,0.019,0.272,-0.421,-0.205,-74.066,81.226,76.786
1746585788.31,-0.093,-0.018,0.131,0.476,0.031,-0.187,-74.225,79.383,75.102
1746585788.33,-0.082,-0.024,0.098,0.626,0.154,-0.118,-74.267,77.198,72.669
1746585788.35,-0.084,0.013,-0.043,0.658,-0.090,-0.097,-74.200,74.579,69.911
1746585788.37,-0.059,0.009,-0.042,0.653,-0.099,-0.111,-74.099,71.797,67.164
1746585788.39,-0.035,-0.013,-0.003,0.782,0.172,-0.096,-73.944,69.033,64.258
1746585788.41,-0.036,-0.003,-0.034,1.033,0.333,-0.059,-73.630,65.926,60.688
1746585788.43,-0.066,0.032,-0.098,1.031,0.120,-0.025,-73.145,62.494,56.811
1746585788.45,-0.107,0.076,-0.076,0.983,-0.252,-0.065,-72.639,59.160,53.410
1746585788.47,-0.111,0.061,0.038,1.180,-0.168,-0.125,-72.061,55.395,49.764
1746585788.49,-0.093,0.007,-0.005,1.348,0.037,-0.131,-71.334,51.546,45.772
1746585788.51,-0.081,-0.025,-0.088,1.313,0.045,-0.058,-70.411,48.001,41.955
1746585788.53,-0.079,0.002,-0.056,1.148,0.120,-0.030,-69.483,45.205,38.899
1746585788.55,-0.030,0.002,0.007,1.110,0.220,-0.010,-68.571,43.020,36.334
1746585788.57,-0.014,0.014,0.068,1.042,0.262,0.055,-67.652,41.325,34.183
1746585788.59,0.031,0.003,0.019,1.102,0.079,0.102,-66.663,39.800,32.319
1746585788.61,0.054,-0.031,-0.015,1.172,-0.135,0.103,-65.578,38.145,30.527
1746585788.63,0.002,-0.037,-0.095,1.161,-0.107,0.068,-64.447,36.395,28.788
1746585788.65,-0.043,-0.051,-0.077,1.071,0.128,0.052,-63.366,34.969,27.193
1746585788.67,-0.032,-0.065,0.020,0.885,-0.002,0.160,-62.389,34.031,25.999
1746585788.69,0.040,-0.080,0.057,1.011,-0.216,0.314,-61.368,33.228,25.257
1746585788.71,0.050,-0.072,-0.077,1.258,-0.692,0.345,-60.030,32.066,24.458
1746585788.73,-0.035,-0.028,-0.119,1.124,-0.580,0.221,-58.693,30.466,23.615
1746585788.75,-0.008,-0.063,0.069,1.042,0.231,0.204,-57.517,29.671,22.810
1746585788.77,0.089,-0.097,0.084,0.896,-0.142,0.489,-56.373,29.444,22.424
1746585788.79,0.203,-0.056,0.045,1.121,-0.198,0.672,-55.056,29.260,22.507
1746585788.81,0.110,0.020,0.054,1.077,-0.435,0.480,-53.571,28.925,22.472
1746585788.83,-0.091,0.013,-0.023,1.071,-0.315,0.279,-52.349,28.124,22.087
1746585788.85,-0.015,-0.132,-0.111,1.128,-0.245,0.521,-51.004,27.576,21.761
1746585788.87,0.023,-0.151,-0.007,0.874,-0.285,0.585,-49.682,27.344,21.831
1746585788.89,-0.054,-0.015,0.017,0.905,-0.217,0.418,-48.557,27.126,21.959
1746585788.91,-0.104,0.110,0.111,1.162,-0.116,0.232,-47.315,26.668,21.596
1746585788.93,-0.129,0.074,-0.020,1.291,-0.092,0.335,-45.933,26.199,21.085
1746585788.95,0.025,-0.008,-0.073,1.015,0.253,0.543,-44.477,26.119,20.876
1746585788.97,0.068,-0.012,0.044,0.894,-0.153,0.490,-43.273,26.353,21.001
1746585788.99,-0.064,0.065,0.089,1.084,-0.288,0.360,-42.047,25.975,20.930
1746585789.01,-0.094,0.048,0.085,1.296,-0.031,0.271,-40.679,25.566,20.546
1746585789.03,-0.128,-0.052,-0.217,1.337,0.292,0.378,-39.112,25.346,20.141
1746585789.05,-0.058,-0.050,0.073,1.043,0.356,0.385,-37.713,25.668,19.882
1746585789.07,0.106,0.034,0.017,1.011,-0.127,0.462,-36.466,25.699,19.830
1746585789.09,0.055,0.119,0.100,1.021,-0.269,0.404,-35.201,25.453,19.757
1746585789.11,-0.018,-0.045,0.044,1.298,-0.109,0.410,-33.838,25.142,19.608
1746585789.13,-0.176,-0.151,-0.204,1.318,0.210,0.210,-32.245,25.001,19.198
1746585789.15,-0.111,-0.009,0.053,0.935,0.223,0.217,-31.030,25.076,18.811
1746585789.17,0.089,0.243,-0.008,0.979,0.107,0.353,-29.907,25.150,18.626
1746585789.19,0.009,0.191,0.099,0.924,-0.048,0.296,-28.759,25.139,18.503
1746585789.21,0.008,-0.082,-0.022,1.148,-0.159,0.096,-27.605,24.822,18.186
1746585789.23,-0.069,-0.132,-0.030,1.099,0.074,-0.091,-26.417,24.533,17.544
1746585789.25,-0.077,-0.063,0.038,1.091,0.172,0.175,-25.270,24.415,16.992
1746585789.27,-0.021,0.016,-0.013,1.035,0.216,0.255,-24.063,24.544,16.729
1746585789.29,0.048,-0.035,-0.012,1.024,0.028,0.134,-22.894,24.588,16.409
1746585789.31,0.072,-0.087,0.009,0.923,-0.096,0.092,-21.828,24.365,16.051
1746585789.33,-0.026,-0.046,-0.034,0.921,0.094,0.054,-20.843,24.211,15.640
1746585789.35,-0.026,0.060,0.037,0.866,0.017,0.348,-19.823,24.186,15.397
1746585789.37,0.040,0.069,0.065,0.962,0.105,0.297,-18.718,24.245,15.360
1746585789.39,-0.049,-0.117,0.059,1.036,-0.077,0.217,-17.547,24.203,15.123
1746585789.41,0.027,-0.230,-0.067,1.043,-0.044,0.137,-16.368,24.037,14.814
1746585789.43,-0.051,-0.086,-0.045,0.976,-0.116,0.132,-15.267,23.848,14.465
1746585789.45,-0.036,0.044,0.067,0.946,-0.018,0.306,-14.170,23.715,14.248
1746585789.47,-0.028,-0.003,0.005,0.983,-0.056,0.262,-13.020,23.642,14.102
1746585789.49,0.026,-0.128,0.016,0.982,-0.092,0.238,-11.882,23.550,13.903
1746585789.51,-0.005,-0.124,-0.079,1.013,-0.160,0.264,-10.717,23.325,13.705
1746585789.53,-0.027,-0.053,-0.067,0.994,-0.175,0.263,-9.540,23.139,13.540
1746585789.55,-0.057,0.014,0.058,1.014,-0.114,0.256,-8.367,22.927,13.352
1746585789.56,-0.088,0.112,0.080,1.034,-0.080,0.269,-7.181,22.809,13.163
1746585789.59,-0.116,0.011,-0.020,1.030,-0.141,0.184,-5.990,22.652,12.937
1746585789.60,0.041,-0.063,-0.060,0.965,-0.264,0.318,-4.824,22.407,12.750
1746585789.62,-0.035,-0.014,-0.042,0.999,-0.052,0.444,-3.637,22.201,12.749
1746585789.64,-0.191,0.121,0.016,1.131,0.200,0.318,-2.340,22.298,12.711
1746585789.66,-0.101,0.085,0.009,1.168,-0.007,0.265,-0.982,22.398,12.519
1746585789.68,0.186,-0.001,0.017,1.138,-0.197,0.330,0.366,22.301,12.334
1746585789.70,0.086,0.004,-0.024,1.194,-0.198,0.320,1.726,22.046,12.157
1746585789.72,-0.154,-0.040,0.024,1.235,0.148,0.341,3.163,22.012,11.998
1746585789.74,-0.122,-0.003,-0.007,1.240,0.376,0.306,4.619,22.353,11.793
1746585789.76,0.106,0.061,-0.064,1.183,0.177,0.299,6.040,22.728,11.555
1746585789.78,0.124,0.017,-0.102,1.088,-0.031,0.348,7.377,22.820,11.355
1746585789.80,0.018,-0.018,-0.159,1.079,-0.097,0.289,8.655,22.737,11.202
1746585789.82,-0.001,-0.014,-0.097,1.012,-0.067,0.182,9.859,22.669,10.924
1746585789.84,0.008,-0.036,-0.083,0.929,-0.067,0.188,10.971,22.631,10.664
1746585789.86,0.035,0.007,-0.117,0.826,-0.039,0.174,11.971,22.617,10.435
1746585789.88,-0.013,-0.083,-0.164,0.750,0.016,0.147,12.880,22.630,10.220
1746585789.90,-0.005,-0.129,-0.232,0.602,0.031,0.097,13.640,22.716,10.014
1746585789.92,0.051,-0.103,-0.206,0.460,-0.026,0.049,14.235,22.757,9.805
1746585789.94,0.015,-0.052,-0.173,0.280,-0.036,0.009,14.635,22.740,9.615
1746585789.96,-0.004,-0.054,-0.224,0.114,0.143,-0.063,14.827,22.826,9.462
1746585789.98,-0.001,-0.154,-0.348,-0.041,0.201,-0.150,14.828,23.051,9.277
1746585790.00,0.108,-0.257,-0.248,-0.302,0.269,-0.193,14.583,23.371,9.126
1746585790.02,0.065,-0.228,-0.252,-0.593,0.283,-0.165,14.029,23.680,9.098
1746585790.04,0.091,-0.154,-0.375,-0.819,0.292,-0.203,13.216,23.989,9.222
1746585790.06,0.099,-0.140,-0.336,-1.028,0.226,-0.372,12.120,24.259,9.334
1746585790.08,0.137,-0.091,-0.247,-1.235,0.226,-0.438,10.732,24.486,9.426
1746585790.10,0.085,-0.040,-0.226,-1.372,0.270,-0.502,9.166,24.745,9.561
1746585790.12,0.078,-0.053,-0.188,-1.473,0.187,-0.602,7.420,25.020,9.665
1746585790.14,0.103,-0.071,-0.127,-1.556,0.178,-0.629,5.557,25.215,9.771
1746585790.16,0.054,-0.044,-0.115,-1.707,0.143,-0.588,3.569,25.383,9.941
1746585790.18,0.036,-0.030,-0.063,-1.741,0.222,-0.549,1.512,25.582,10.214
1746585790.20,0.083,-0.086,-0.037,-1.797,0.049,-0.561,-0.591,25.729,10.513
1746585790.22,0.062,-0.136,-0.035,-1.829,-0.026,-0.497,-2.728,25.754,10.870
1746585790.24,-0.054,-0.108,-0.023,-1.819,0.110,-0.459,-4.842,25.800,11.282
1746585790.26,-0.098,-0.029,0.052,-1.747,0.125,-0.498,-6.915,26.008,11.698
1746585790.28,-0.103,-0.098,0.019,-1.646,0.047,-0.601,-8.934,26.168,11.979
1746585790.30,-0.084,-0.144,-0.075,-1.585,0.135,-0.618,-10.893,26.258,12.167
1746585790.32,-0.082,-0.062,-0.001,-1.588,0.230,-0.663,-12.840,26.538,12.330
1746585790.34,-0.039,-0.078,-0.009,-1.563,0.198,-0.730,-14.813,26.799,12.428
1746585790.36,0.058,-0.108,0.026,-1.569,0.067,-0.701,-16.778,26.992,12.507
1746585790.38,0.049,-0.111,0.018,-1.556,-0.336,-0.692,-18.723,26.877,12.616
1746585790.40,-0.032,-0.129,0.042,-1.481,-0.231,-0.704,-20.640,26.517,12.689
1746585790.42,-0.092,-0.171,0.025,-1.371,0.012,-0.697,-22.447,26.422,12.698
1746585790.44,-0.097,-0.168,0.062,-1.386,-0.046,-0.741,-24.206,26.404,12.652
1746585790.46,-0.056,-0.168,0.055,-1.399,0.015,-0.684,-26.006,26.354,12.618
1746585790.48,0.060,-0.095,0.009,-1.380,0.046,-0.565,-27.732,26.440,12.688
1746585790.50,0.142,-0.025,0.056,-1.457,-0.052,-0.508,-29.465,26.556,12.907
1746585790.52,0.106,-0.024,-0.038,-1.347,-0.343,-0.512,-31.150,26.434,13.125
1746585790.54,0.071,-0.067,0.042,-1.451,-0.202,-0.510,-32.831,26.210,13.337
1746585790.56,-0.029,-0.094,-0.044,-1.530,-0.137,-0.544,-34.627,26.150,13.601
1746585790.58,-0.130,-0.068,-0.059,-1.576,0.005,-0.584,-36.511,26.248,13.848
1746585790.60,-0.079,-0.039,-0.047,-1.545,-0.256,-0.572,-38.404,26.265,14.092
1746585790.62,0.000,-0.011,0.052,-1.539,-0.400,-0.547,-40.269,26.031,14.360
1746585790.64,0.005,-0.035,0.083,-1.437,-0.113,-0.602,-42.096,25.864,14.589
1746585790.66,-0.061,-0.082,-0.084,-1.250,0.194,-0.684,-43.769,25.889,14.571
1746585790.68,-0.103,-0.095,0.017,-1.471,0.354,-0.687,-45.492,26.199,14.514
1746585790.70,-0.109,-0.081,0.056,-1.678,0.190,-0.586,-47.452,26.672,14.746
1746585790.72,-0.077,-0.041,0.050,-1.605,0.314,-0.553,-49.424,27.249,15.172
1746585790.74,-0.007,-0.029,0.032,-1.460,0.458,-0.621,-51.271,27.977,15.509
1746585790.76,0.075,-0.045,0.094,-1.551,0.191,-0.619,-53.119,28.598,15.802
1746585790.78,0.134,-0.053,0.091,-1.592,0.281,-0.521,-55.010,29.208,16.312
1746585790.80,0.131,-0.059,0.037,-1.592,0.513,-0.448,-56.869,30.333,17.077
1746585790.82,0.066,-0.100,-0.015,-1.479,0.333,-0.363,-58.622,31.665,18.030
1746585790.84,0.048,-0.125,-0.032,-1.522,0.130,-0.233,-60.230,32.927,19.228
1746585790.86,0.002,-0.144,0.006,-1.611,0.170,-0.136,-61.842,34.591,20.950
1746585790.88,-0.056,-0.170,-0.005,-1.585,0.039,-0.076,-63.396,36.615,23.052
1746585790.90,-0.058,-0.149,-0.031,-1.573,-0.355,-0.040,-64.855,38.577,25.436
1746585790.92,-0.050,-0.115,-0.007,-1.537,-0.562,-0.048,-66.260,40.461,28.103
1746585790.94,-0.024,-0.069,-0.031,-1.564,-0.506,-0.094,-67.637,42.424,30.924
1746585790.96,-0.037,-0.057,0.009,-1.508,-0.362,-0.109,-68.984,44.748,33.967
1746585790.98,-0.053,-0.013,0.008,-1.314,-0.368,-0.150,-70.231,47.266,37.060
1746585791.00,-0.024,0.065,-0.093,-1.195,-0.574,-0.138,-71.296,49.374,39.869
1746585791.02,0.025,0.030,-0.002,-1.283,-0.507,0.012,-72.249,51.892,43.209
1746585791.04,0.008,0.003,0.046,-1.251,-0.296,0.065,-73.068,55.320,47.272
1746585791.06,-0.058,0.043,-0.049,-1.169,-0.298,0.003,-73.781,58.974,51.425
1746585791.08,-0.130,0.009,-0.062,-1.002,-0.288,-0.057,-74.428,62.424,55.364
1746585791.10,-0.153,-0.056,0.005,-0.819,-0.058,0.024,-74.912,65.526,58.809
1746585791.12,-0.165,-0.038,-0.040,-0.649,0.156,0.142,-75.143,68.608,61.924
1746585791.14,-0.152,0.019,-0.069,-0.549,0.190,0.167,-75.203,71.507,64.694
1746585791.16,-0.083,0.020,-0.025,-0.393,0.065,0.109,-75.209,73.755,66.873
1746585791.18,-0.029,0.058,-0.014,-0.325,0.108,0.059,-75.226,75.404,68.485
1746585791.20,-0.013,0.034,0.005,-0.256,0.150,0.036,-75.258,76.843,69.817
1746585791.22,0.012,-0.010,0.039,-0.175,0.218,0.073,-75.259,77.976,70.774
1746585791.24,0.000,-0.040,0.050,-0.205,0.184,0.155,-75.177,79.082,71.677
1746585791.26,-0.032,-0.014,0.054,-0.261,0.063,0.207,-75.008,80.363,72.836
1746585791.28,-0.079,0.047,0.021,-0.293,-0.176,0.118,-74.863,81.586,74.175
1746585791.30,-0.073,0.050,0.062,-0.287,-0.175,0.048,-74.828,82.607,75.466
1746585791.32,-0.038,-0.002,0.123,-0.271,-0.212,0.104,-74.783,83.626,76.721
1746585791.34,-0.073,0.022,-0.002,-0.258,-0.499,0.094,-74.688,84.325,77.865
1746585791.36,-0.123,0.075,-0.077,-0.289,-0.557,-0.034,-74.685,84.852,79.080
1746585791.38,-0.118,0.075,-0.018,-0.177,-0.194,-0.076,-74.781,85.409,80.128
1746585791.40,-0.068,0.041,0.022,-0.007,0.150,-0.080,-74.880,85.725,80.457
1746585791.42,-0.025,0.014,0.017,0.040,0.202,-0.047,-74.953,85.852,80.357
1746585791.44,-0.019,-0.004,-0.007,0.081,0.164,0.006,-74.967,85.808,80.097
1746585791.46,-0.020,-0.013,0.017,0.131,0.195,0.051,-74.924,85.560,79.642
1746585791.48,-0.033,0.002,0.041,0.089,0.187,0.092,-74.829,85.309,79.142
1746585791.50,-0.059,0.028,0.032,-0.048,0.061,0.078,-74.722,85.398,79.078
1746585791.52,-0.073,0.026,-0.023,-0.093,-0.124,0.001,-74.691,85.702,79.437
1746585791.54,-0.046,-0.024,-0.029,0.023,-0.168,0.011,-74.708,85.720,79.638
1746585791.56,-0.034,-0.007,0.008,0.071,-0.130,0.067,-74.674,85.360,79.446
1746585791.58,-0.052,0.039,0.036,-0.005,-0.036,0.068,-74.623,85.230,79.403
1746585791.60,-0.080,0.047,-0.014,0.080,-0.051,0.023,-74.608,85.089,79.302
1746585791.62,-0.097,0.041,-0.004,0.219,-0.005,0.000,-74.605,84.365,78.597
1746585791.64,-0.101,0.032,0.024,0.290,0.013,0.005,-74.584,83.308,77.484
1746585791.66,-0.128,0.032,-0.009,0.340,-0.074,-0.021,-74.566,82.044,76.200
1746585791.68,-0.131,0.033,-0.039,0.419,-0.055,-0.056,-74.568,80.396,74.585
1746585791.70,-0.106,0.017,-0.039,0.535,0.008,-0.060,-74.558,78.389,72.522
1746585791.72,-0.064,0.006,-0.086,0.629,-0.110,-0.044,-74.463,75.936,70.026
1746585791.74,-0.028,-0.008,-0.080,0.657,-0.147,-0.061,-74.324,73.170,67.327
1746585791.76,0.009,-0.042,0.043,0.680,-0.054,-0.056,-74.154,70.418,64.580
1746585791.78,-0.004,-0.052,0.132,0.665,-0.140,-0.031,-73.923,67.720,61.875
1746585791.80,-0.027,-0.011,0.086,0.640,-0.392,-0.030,-73.660,65.052,59.395
1746585791.82,-0.046,0.009,-0.030,0.653,-0.619,-0.044,-73.373,62.182,57.033
1746585791.84,-0.071,0.015,-0.009,0.848,-0.446,-0.072,-73.011,58.979,54.339
1746585791.86,-0.120,0.052,-0.017,0.895,-0.334,-0.082,-72.536,55.625,51.276
1746585791.88,-0.173,0.057,0.025,0.892,-0.244,-0.142,-72.042,52.501,48.356
1746585791.90,-0.167,0.057,-0.018,1.036,-0.053,-0.166,-71.501,49.403,45.284
1746585791.92,-0.102,0.064,0.028,1.257,0.178,-0.158,-70.759,46.289,41.892
1746585791.94,-0.026,0.063,0.007,1.410,0.093,-0.112,-69.779,43.124,38.341
1746585791.96,-0.014,0.021,-0.097,1.188,-0.103,-0.009,-68.699,40.297,35.355
1746585791.98,-0.038,-0.072,0.068,1.052,0.146,0.007,-67.727,38.362,33.247
1746585792.00,-0.044,-0.131,-0.006,1.145,0.139,0.071,-66.729,36.787,31.336
1746585792.02,0.113,-0.138,0.020,1.351,0.224,0.270,-65.484,35.492,29.692
1746585792.04,0.248,-0.082,-0.110,1.520,0.086,0.395,-63.861,34.285,28.158
1746585792.06,0.119,-0.050,0.035,1.119,-0.338,0.193,-62.415,33.179,27.009
1746585792.08,0.001,-0.104,-0.090,0.977,-0.499,0.141,-61.340,31.658,25.917
1746585792.10,0.143,-0.129,0.090,0.958,-0.390,0.432,-60.233,30.652,25.319
1746585792.12,0.200,-0.025,0.189,1.253,-0.476,0.460,-58.910,29.932,25.049
1746585792.14,0.085,0.086,0.034,1.593,-0.518,0.164,-57.268,28.590,24.107
1746585792.16,-0.216,0.038,-0.108,1.174,-0.627,0.092,-55.775,26.887,22.862
1746585792.18,-0.147,-0.147,-0.124,0.839,-0.195,0.422,-54.654,26.005,22.484
1746585792.20,-0.026,-0.116,0.101,0.793,-0.202,0.453,-53.608,25.986,22.616
1746585792.22,0.089,0.083,0.151,1.137,-0.037,0.359,-52.421,25.699,22.503
1746585792.24,-0.067,0.167,0.048,1.164,0.205,0.327,-51.019,25.501,22.124
1746585792.26,-0.133,0.066,-0.110,1.041,-0.005,0.359,-49.746,25.425,21.821
1746585792.28,-0.004,-0.003,-0.116,1.026,-0.080,0.340,-48.494,25.210,21.608
1746585792.30,0.066,-0.005,0.096,0.978,-0.070,0.301,-47.314,24.938,21.383
1746585792.32,-0.004,0.023,0.183,1.207,0.127,0.264,-46.072,24.742,21.052
1746585792.34,-0.131,-0.017,-0.075,1.246,0.150,0.356,-44.605,24.619,20.639
1746585792.36,-0.048,-0.091,-0.142,0.917,0.187,0.438,-43.296,24.700,20.518
1746585792.38,0.017,-0.081,-0.045,0.959,-0.108,0.431,-42.144,24.805,20.552
1746585792.39,-0.054,-0.060,0.014,1.079,-0.260,0.341,-40.891,24.476,20.423
1746585792.41,-0.002,-0.128,0.125,1.128,-0.199,0.292,-39.616,24.080,20.177
1746585792.43,0.092,-0.101,-0.049,1.307,-0.180,0.379,-38.166,23.605,19.873
1746585792.45,0.042,0.006,-0.045,1.108,0.029,0.405,-36.701,23.459,19.696
1746585792.47,0.018,0.071,0.050,0.901,0.060,0.441,-35.477,23.555,19.666
1746585792.49,-0.018,0.115,0.018,0.912,-0.099,0.527,-34.312,23.585,19.810
1746585792.51,-0.024,0.141,0.181,0.982,-0.024,0.429,-33.100,23.590,19.901
1746585792.53,-0.014,0.014,0.153,1.306,0.008,0.363,-31.756,23.503,19.783
1746585792.55,-0.084,-0.102,-0.200,1.323,0.146,0.341,-30.143,23.407,19.504
1746585792.57,-0.043,0.001,-0.010,0.901,0.212,0.295,-28.873,23.525,19.289
1746585792.59,-0.009,0.129,0.102,1.043,0.096,0.303,-27.747,23.681,19.186
1746585792.61,-0.116,0.089,-0.031,1.209,-0.023,0.249,-26.441,23.590,18.893
1746585792.63,-0.056,-0.102,0.025,1.214,-0.031,0.162,-25.061,23.398,18.537
1746585792.65,-0.060,-0.109,-0.053,1.160,-0.056,0.055,-23.762,23.180,18.075
1746585792.67,-0.050,0.050,-0.003,1.112,-0.061,0.043,-22.555,22.900,17.559
1746585792.69,0.007,0.054,0.011,1.074,-0.066,0.235,-21.341,22.680,17.196
1746585792.71,0.022,-0.055,0.005,1.066,0.048,0.238,-20.105,22.606,16.996
1746585792.73,0.066,-0.100,0.046,1.099,0.003,0.125,-18.907,22.564,16.658
1746585792.75,0.064,-0.216,0.055,1.094,0.027,0.196,-17.673,22.468,16.345
1746585792.77,0.017,-0.124,-0.038,1.112,0.095,0.219,-16.420,22.447,16.058
1746585792.79,0.018,0.052,0.031,1.007,0.025,0.361,-15.160,22.471,15.892
1746585792.81,0.039,0.048,0.048,0.951,0.053,0.415,-13.978,22.481,15.871
1746585792.83,-0.063,-0.034,0.013,0.858,0.061,0.486,-12.812,22.570,15.964
1746585792.85,-0.072,-0.035,-0.071,0.899,0.131,0.391,-11.720,22.700,16.051
1746585792.87,-0.026,0.043,-0.027,1.009,-0.043,0.326,-10.552,22.762,15.991
1746585792.89,0.025,-0.011,-0.093,1.069,-0.186,0.278,-9.320,22.578,15.837
1746585792.91,-0.013,-0.068,-0.046,1.085,-0.251,0.205,-8.060,22.309,15.622
1746585792.93,-0.012,0.066,0.131,1.026,-0.325,0.217,-6.878,21.938,15.361
1746585792.95,-0.121,0.169,0.068,1.107,-0.054,0.318,-5.631,21.669,15.218
1746585792.97,-0.191,-0.025,-0.102,1.181,0.056,0.186,-4.303,21.720,15.013
1746585792.99,0.075,-0.039,-0.140,1.210,-0.225,0.053,-2.983,21.620,14.617
1746585793.01,0.155,-0.060,-0.095,1.181,-0.422,0.132,-1.680,21.216,14.219
1746585793.03,-0.076,0.050,0.111,1.060,-0.271,0.193,-0.405,20.795,13.929
1746585793.05,-0.112,0.238,0.002,1.104,-0.067,0.132,0.799,20.637,13.669
1746585793.07,-0.147,-0.028,-0.003,1.035,-0.013,0.030,1.984,20.555,13.314
1746585793.09,0.228,-0.209,-0.202,1.072,-0.192,0.040,3.121,20.471,12.912
1746585793.11,0.017,-0.111,-0.041,1.015,0.029,0.028,4.259,20.352,12.564
1746585793.13,-0.065,-0.061,-0.061,1.010,0.110,0.082,5.372,20.461,12.220
1746585793.15,0.062,-0.002,-0.006,0.884,0.178,0.132,6.423,20.661,11.939
1746585793.17,0.107,0.008,-0.083,0.848,0.099,0.161,7.404,20.851,11.742
1746585793.19,0.070,-0.001,-0.095,0.800,-0.028,0.156,8.337,20.905,11.547
1746585793.21,0.124,0.066,-0.070,0.756,-0.137,0.266,9.255,20.803,11.440
1746585793.23,-0.033,0.030,0.024,0.712,-0.005,0.297,10.152,20.708,11.400
1746585793.25,-0.031,-0.106,-0.096,0.745,0.083,0.268,11.050,20.787,11.398
1746585793.27,-0.013,-0.091,-0.031,0.651,-0.007,0.174,11.886,20.824,11.289
1746585793.29,0.093,-0.067,-0.073,0.580,-0.105,0.202,12.628,20.765,11.188
1746585793.31,-0.018,-0.001,-0.142,0.558,-0.075,0.210,13.313,20.640,11.152
1746585793.33,-0.065,-0.005,-0.129,0.539,-0.032,0.101,13.965,20.609,11.044
1746585793.35,-0.007,-0.065,-0.109,0.465,-0.051,0.055,14.540,20.601,10.879
1746585793.37,0.032,-0.166,-0.068,0.300,-0.020,-0.012,14.951,20.599,10.703
1746585793.39,0.126,-0.125,-0.235,0.165,-0.016,-0.009,15.188,20.584,10.543
1746585793.41,-0.047,-0.032,-0.246,-0.015,0.134,0.010,15.266,20.638,10.488
1746585793.43,-0.053,-0.062,-0.235,-0.150,0.177,-0.081,15.176,20.837,10.465
1746585793.45,0.101,-0.187,-0.284,-0.362,0.170,-0.143,14.862,21.065,10.416
1746585793.47,0.059,-0.161,-0.342,-0.624,0.130,-0.202,14.263,21.214,10.413
1746585793.49,0.044,-0.084,-0.366,-0.817,0.171,-0.248,13.405,21.356,10.465
1746585793.51,0.003,-0.103,-0.277,-0.980,0.279,-0.350,12.323,21.597,10.524
1746585793.53,0.065,-0.129,-0.224,-1.163,0.322,-0.398,11.018,21.946,10.582
1746585793.55,0.105,-0.114,-0.209,-1.359,0.300,-0.421,9.506,22.274,10.674
1746585793.57,0.096,-0.120,-0.187,-1.472,0.313,-0.458,7.820,22.606,10.846
1746585793.59,0.015,-0.099,-0.088,-1.584,0.327,-0.530,5.980,22.946,11.022
1746585793.61,0.007,-0.130,-0.132,-1.694,0.402,-0.511,4.028,23.331,11.219
1746585793.63,0.086,-0.077,-0.081,-1.831,0.412,-0.341,1.979,23.780,11.632
1746585793.65,0.084,-0.029,-0.007,-1.883,0.358,-0.384,-0.132,24.202,12.128
1746585793.67,0.012,-0.104,-0.007,-1.860,0.292,-0.481,-2.280,24.583,12.557
1746585793.69,-0.054,-0.159,-0.078,-1.865,0.316,-0.424,-4.431,24.957,13.047
1746585793.71,-0.029,-0.082,-0.078,-1.953,0.291,-0.435,-6.601,25.364,13.536
1746585793.73,-0.035,-0.033,0.025,-1.810,0.296,-0.516,-8.790,25.745,14.002
1746585793.75,-0.120,-0.145,-0.006,-1.670,0.237,-0.759,-10.906,26.112,14.211
1746585793.77,-0.144,-0.228,-0.125,-1.659,0.228,-0.771,-12.973,26.359,14.248
1746585793.79,-0.184,-0.112,-0.066,-1.736,0.163,-0.853,-15.127,26.629,14.304
1746585793.81,-0.166,0.012,-0.010,-1.637,-0.028,-1.012,-17.331,26.684,14.215
1746585793.83,-0.122,0.096,-0.030,-1.512,-0.292,-0.996,-19.452,26.401,13.956
1746585793.85,-0.025,0.081,0.036,-1.730,-0.039,-0.806,-21.546,26.115,13.826
1746585793.87,0.061,-0.077,0.065,-1.726,0.295,-0.611,-23.700,26.373,14.007
1746585793.89,0.009,-0.167,0.027,-1.850,0.370,-0.571,-25.808,26.906,14.357
1746585793.91,-0.003,-0.187,0.109,-1.669,0.268,-0.610,-27.936,27.455,14.732
1746585793.93,-0.059,-0.134,-0.014,-1.650,0.181,-0.610,-29.879,27.796,14.993
1746585793.95,0.010,-0.107,0.018,-1.811,0.302,-0.543,-31.967,28.315,15.417
1746585793.97,0.027,-0.107,0.090,-1.689,0.049,-0.525,-34.021,28.803,15.925
1746585793.99,-0.024,-0.108,0.000,-1.470,0.060,-0.579,-35.897,29.077,16.325
1746585794.01,-0.042,-0.130,0.036,-1.503,0.051,-0.647,-37.704,29.295,16.573
1746585794.03,0.044,-0.169,-0.003,-1.667,0.086,-0.504,-39.614,29.605,16.950
1746585794.05,0.126,-0.176,0.080,-1.786,0.262,-0.244,-41.549,30.331,17.785
1746585794.07,0.080,-0.142,0.012,-1.520,0.088,-0.308,-43.324,31.259,18.773
1746585794.09,0.073,-0.137,0.006,-1.427,-0.118,-0.460,-44.976,31.666,19.454
1746585794.11,0.117,-0.123,-0.016,-1.445,-0.128,-0.462,-46.647,31.968,20.024
1746585794.13,0.077,-0.094,-0.020,-1.595,-0.370,-0.372,-48.372,32.227,20.782
1746585794.15,0.036,-0.098,0.068,-1.675,-0.456,-0.205,-50.141,32.616,21.904
1746585794.17,0.036,-0.083,0.042,-1.519,-0.381,-0.129,-51.782,33.146,23.258
1746585794.19,0.045,-0.056,0.030,-1.377,0.003,-0.260,-53.256,33.878,24.454
1746585794.21,0.031,-0.047,-0.052,-1.445,-0.077,-0.471,-54.814,34.637,25.388
1746585794.23,-0.014,-0.071,-0.006,-1.623,-0.400,-0.468,-56.567,35.143,26.338
1746585794.25,-0.025,-0.087,0.079,-1.671,-0.430,-0.227,-58.355,35.855,27.773
1746585794.27,-0.025,-0.046,0.023,-1.560,-0.324,0.010,-59.911,37.108,29.734
1746585794.29,-0.054,-0.006,-0.012,-1.435,-0.229,0.072,-61.219,38.748,31.976
1746585794.31,-0.068,-0.029,0.030,-1.468,-0.185,-0.043,-62.466,40.513,34.240
1746585794.33,-0.050,-0.050,-0.023,-1.519,-0.349,-0.252,-63.858,42.217,36.473
1746585794.35,-0.024,-0.045,-0.056,-1.628,-0.484,-0.402,-65.441,43.677,38.652
1746585794.37,-0.023,-0.126,0.083,-1.539,-0.351,-0.251,-67.014,45.460,41.122
1746585794.39,-0.013,-0.111,0.168,-1.500,-0.239,0.021,-68.298,47.971,44.204
1746585794.41,-0.001,0.061,0.008,-1.359,0.017,0.127,-69.280,51.233,47.860
1746585794.43,-0.027,0.102,0.037,-1.309,0.388,0.089,-70.089,54.953,51.551
1746585794.45,-0.006,0.043,0.149,-1.282,0.282,0.033,-70.838,58.996,55.395
1746585794.47,0.013,0.036,0.166,-1.181,0.055,-0.003,-71.515,62.839,59.256
1746585794.49,-0.076,-0.007,0.094,-1.125,0.019,0.007,-72.074,66.382,62.983
1746585794.51,-0.169,-0.066,-0.034,-1.215,0.308,0.015,-72.547,70.514,67.122
1746585794.53,-0.238,-0.043,-0.207,-1.095,0.509,-0.018,-72.953,75.109,71.438
1746585794.55,-0.108,-0.039,0.010,-0.764,0.632,0.052,-73.178,79.196,75.014
1746585794.57,-0.045,-0.014,0.039,-0.529,0.483,0.115,-73.193,82.258,77.534
1746585794.59,-0.078,0.026,-0.055,-0.433,0.498,0.099,-73.131,84.605,79.428
1746585794.61,-0.065,0.034,-0.058,-0.374,0.689,0.105,-73.055,86.839,81.047
1746585794.63,-0.017,0.012,-0.024,-0.225,0.535,0.112,-72.944,88.722,82.248
1746585794.65,0.003,0.006,-0.012,-0.143,0.202,0.101,-72.823,89.776,82.918
1746585794.67,0.019,0.013,-0.015,-0.234,-0.036,0.112,-72.707,90.522,83.603
1746585794.69,-0.001,0.013,-0.018,-0.301,-0.252,0.170,-72.543,91.350,84.644
1746585794.71,-0.044,0.019,0.051,-0.337,-0.234,0.229,-72.304,92.140,85.805
1746585794.73,-0.088,0.060,0.106,-0.424,-0.001,0.227,-72.017,93.309,87.165
1746585794.75,-0.195,0.077,-0.012,-0.384,-0.058,0.135,-71.767,94.755,88.697
1746585794.77,-0.221,0.106,-0.042,-0.045,-0.183,0.010,-71.669,95.362,89.488
1746585794.79,-0.186,0.143,-0.064,0.187,-0.060,-0.040,-71.697,94.877,89.168
1746585794.81,-0.124,0.105,-0.064,0.323,0.415,-0.051,-71.775,94.215,88.264
1746585794.83,-0.052,0.041,-0.037,0.477,0.658,-0.061,-71.869,93.464,86.790
1746585794.85,0.002,-0.039,0.018,0.481,0.664,-0.073,-71.979,92.537,85.012
1746585794.87,0.051,-0.100,0.066,0.476,0.526,-0.023,-72.061,91.536,83.229
1746585794.89,0.091,-0.072,0.007,0.301,0.259,0.053,-72.050,90.574,81.735
1746585794.91,0.066,0.004,-0.076,0.104,-0.036,0.080,-71.969,90.014,81.033
1746585794.93,0.004,0.030,-0.055,0.138,-0.042,0.027,-71.905,89.564,80.643
1746585794.95,-0.032,-0.003,0.003,0.236,0.023,0.021,-71.884,88.894,79.924
1746585794.97,-0.051,0.003,0.029,0.207,-0.046,0.028,-71.842,88.099,79.093
1746585794.99,-0.078,0.034,-0.031,0.189,-0.145,-0.024,-71.832,87.316,78.398
1746585795.01,-0.054,0.022,-0.023,0.301,-0.011,-0.032,-71.855,86.396,77.533
1746585795.03,-0.022,-0.015,0.020,0.474,0.061,0.014,-71.837,85.085,76.108
1746585795.05,-0.041,-0.010,0.022,0.486,0.006,0.053,-71.732,83.420,74.307
1746585795.07,-0.102,0.010,0.042,0.397,-0.105,-0.010,-71.638,81.869,72.741
1746585795.09,-0.111,-0.012,0.128,0.407,-0.067,-0.067,-71.620,80.407,71.311
1746585795.11,-0.089,0.002,0.087,0.505,-0.132,-0.051,-71.597,78.727,69.652
1746585795.13,-0.106,0.045,0.035,0.563,-0.196,-0.055,-71.516,76.700,67.708
1746585795.15,-0.135,0.063,-0.016,0.625,-0.358,-0.116,-71.440,74.351,65.567
1746585795.17,-0.115,0.082,-0.019,0.622,-0.277,-0.162,-71.382,71.758,63.253
1746585795.19,-0.096,0.047,0.096,0.569,-0.011,-0.191,-71.348,69.504,61.044
1746585795.21,-0.097,0.015,0.119,0.569,-0.007,-0.186,-71.316,67.520,58.924
1746585795.23,-0.084,0.001,0.043,0.656,-0.197,-0.171,-71.222,65.281,56.690
1746585795.25,-0.073,0.011,0.014,0.741,-0.308,-0.185,-71.051,62.638,54.197
1746585795.27,-0.084,0.032,0.025,0.825,-0.346,-0.212,-70.825,59.664,51.464
1746585795.28,-0.081,0.042,-0.046,0.986,-0.451,-0.168,-70.465,56.387,48.459
1746585795.30,-0.083,0.045,-0.096,1.107,-0.164,-0.119,-69.902,53.009,45.313
1746585795.33,-0.118,0.038,0.031,1.244,0.360,-0.137,-69.195,50.119,42.058
1746585795.34,-0.113,-0.005,-0.133,1.340,0.374,-0.026,-68.276,47.413,38.747
1746585795.36,-0.022,-0.021,0.060,1.257,0.828,-0.036,-67.272,45.506,35.890
1746585795.38,0.101,-0.032,-0.021,1.238,0.284,-0.048,-66.301,43.762,33.224
1746585795.40,0.196,-0.066,0.002,1.054,0.018,0.046,-65.337,41.828,31.012
1746585795.42,0.186,-0.136,-0.054,0.980,-0.044,0.197,-64.388,40.472,29.519
1746585795.44,0.110,-0.115,-0.057,1.084,-0.024,0.195,-63.325,39.245,28.188
1746585795.46,0.110,-0.066,0.002,1.032,-0.264,0.239,-62.231,38.023,26.949
1746585795.48,0.034,-0.025,-0.106,1.056,-0.808,0.213,-61.117,36.481,25.887
1746585795.50,-0.080,-0.048,-0.183,0.940,-0.882,0.104,-60.091,34.500,24.852
1746585795.52,-0.034,-0.098,-0.096,1.018,-0.132,0.030,-59.102,32.954,23.701
1746585795.54,0.056,-0.099,0.078,0.755,-0.387,0.262,-58.193,32.061,22.906
1746585795.56,0.121,-0.038,0.007,1.162,-0.408,0.366,-57.081,31.210,22.513
1746585795.58,-0.009,0.019,-0.006,1.059,-0.456,0.188,-55.751,30.089,21.729
1746585795.60,-0.000,-0.072,-0.074,0.788,-0.550,0.318,-54.757,29.083,21.290
1746585795.62,0.097,-0.104,-0.019,0.818,-0.129,0.405,-53.734,28.620,21.150
1746585795.64,0.079,-0.037,0.070,0.790,-0.135,0.384,-52.721,28.417,21.102
1746585795.66,0.010,0.056,0.114,0.877,0.058,0.366,-51.691,28.283,20.983
1746585795.68,-0.137,0.076,0.008,0.851,-0.222,0.342,-50.619,28.080,20.787
1746585795.70,-0.150,0.041,-0.058,0.842,-0.285,0.371,-49.571,27.646,20.663
1746585795.72,-0.082,-0.001,-0.063,0.843,-0.004,0.372,-48.513,27.353,20.540
1746585795.74,0.016,-0.044,0.034,0.931,0.046,0.406,-47.428,27.374,20.447
1746585795.76,0.042,0.017,-0.037,0.907,-0.238,0.381,-46.247,27.125,20.315
1746585795.78,-0.010,0.048,-0.008,0.845,-0.227,0.267,-45.215,26.757,20.148
1746585795.80,-0.107,-0.038,-0.005,0.981,-0.074,0.215,-44.168,26.377,19.829
1746585795.82,-0.096,-0.107,-0.018,1.095,-0.003,0.279,-42.968,26.058,19.457
1746585795.84,0.076,-0.045,0.053,1.074,0.043,0.311,-41.703,25.870,19.129
1746585795.86,0.137,0.060,0.015,0.881,-0.114,0.367,-40.505,25.684,18.923
1746585795.88,0.031,0.055,0.023,0.790,-0.002,0.436,-39.478,25.614,18.968
1746585795.90,-0.046,-0.005,-0.053,0.894,0.054,0.329,-38.416,25.656,18.941
1746585795.92,-0.035,-0.077,-0.002,0.899,-0.029,0.343,-37.328,25.594,18.798
1746585795.94,0.046,0.012,0.004,0.890,-0.278,0.348,-36.220,25.364,18.705
1746585795.96,0.057,0.107,0.059,0.814,-0.345,0.364,-35.175,24.945,18.636
1746585795.98,-0.063,0.044,-0.019,0.832,-0.120,0.306,-34.162,24.640,18.597
1746585796.00,-0.239,-0.097,-0.051,0.952,0.003,0.210,-33.122,24.530,18.415
1746585796.02,-0.188,-0.120,-0.071,1.024,-0.158,0.187,-31.978,24.225,18.105
1746585796.04,0.076,0.055,0.022,0.959,-0.331,0.198,-30.857,23.796,17.767
1746585796.06,0.165,0.093,0.091,0.830,-0.141,0.342,-29.786,23.410,17.629
1746585796.08,0.047,-0.038,0.019,0.752,0.199,0.264,-28.822,23.432,17.618
1746585796.10,-0.122,-0.085,-0.072,0.889,0.243,0.133,-27.875,23.620,17.395
1746585796.12,-0.148,-0.036,-0.003,0.817,0.035,0.188,-26.908,23.670,17.129
1746585796.14,0.084,0.004,0.080,0.922,-0.151,0.241,-25.910,23.545,16.949
1746585796.16,0.000,-0.026,0.068,1.004,-0.218,0.261,-24.781,23.234,16.768
1746585796.18,-0.067,-0.064,-0.004,0.971,-0.006,0.210,-23.631,22.956,16.554
1746585796.20,-0.149,-0.072,-0.079,0.962,0.205,0.211,-22.507,23.015,16.312
1746585796.22,-0.070,-0.020,0.012,0.929,0.163,0.154,-21.447,23.156,16.071
1746585796.24,0.107,0.020,0.085,1.039,-0.122,0.115,-20.360,23.052,15.756
1746585796.26,-0.001,-0.015,0.103,1.114,-0.162,0.053,-19.183,22.725,15.332
1746585796.28,-0.028,-0.002,0.005,1.033,0.020,0.252,-17.977,22.525,14.981
1746585796.30,-0.003,-0.011,-0.052,0.897,0.130,0.341,-16.822,22.630,14.908
1746585796.32,0.051,-0.033,-0.019,0.852,0.041,0.229,-15.793,22.695,14.790
1746585796.34,0.077,-0.066,0.066,0.858,-0.089,0.333,-14.772,22.652,14.703
1746585796.36,-0.077,-0.028,0.064,0.900,-0.018,0.437,-13.668,22.570,14.732
1746585796.38,-0.151,-0.007,0.015,0.947,0.140,0.447,-12.502,22.656,14.803
1746585796.40,-0.055,0.070,-0.100,1.018,0.092,0.333,-11.281,22.795,14.789
1746585796.42,0.171,-0.015,0.033,1.000,-0.232,0.313,-10.066,22.727,14.677
1746585796.44,0.087,-0.090,-0.081,1.087,-0.441,0.252,-8.863,22.279,14.508
1746585796.46,-0.097,-0.012,0.039,1.066,-0.362,0.277,-7.597,21.791,14.321
1746585796.48,-0.122,0.115,0.036,1.038,-0.122,0.321,-6.342,21.507,14.205
1746585796.50,-0.087,0.131,-0.018,1.061,0.012,0.200,-5.125,21.466,14.061
1746585796.52,0.101,-0.037,-0.089,1.074,-0.315,0.156,-3.925,21.291,13.780
1746585796.54,0.138,0.017,-0.098,1.129,-0.488,0.164,-2.684,20.771,13.502
1746585796.56,-0.153,-0.036,0.054,1.046,-0.326,0.160,-1.449,20.252,13.231
1746585796.58,-0.100,0.019,-0.061,1.039,0.088,0.245,-0.250,20.146,13.040
1746585796.60,-0.041,0.142,-0.078,1.003,0.183,0.204,0.941,20.327,12.884
1746585796.62,0.073,0.085,-0.092,0.945,-0.031,0.174,2.059,20.420,12.696
1746585796.64,0.099,0.039,-0.130,0.919,-0.146,0.258,3.132,20.323,12.557
1746585796.66,-0.021,-0.006,-0.096,0.903,-0.040,0.259,4.215,20.188,12.484
1746585796.68,-0.085,0.044,-0.051,0.830,0.118,0.243,5.250,20.232,12.402
1746585796.70,-0.082,0.004,-0.076,0.880,0.196,0.188,6.250,20.453,12.316
1746585796.72,-0.021,0.023,-0.042,0.893,0.053,0.109,7.255,20.618,12.079
1746585796.74,0.030,-0.003,-0.105,0.913,-0.135,0.096,8.257,20.613,11.812
1746585796.76,-0.029,-0.001,-0.076,0.875,-0.113,0.092,9.252,20.488,11.516
1746585796.78,-0.058,-0.036,-0.022,0.781,0.109,0.096,10.169,20.508,11.243
1746585796.80,-0.014,0.003,-0.112,0.824,0.182,0.072,11.062,20.723,10.987
1746585796.82,-0.002,-0.030,0.017,0.702,0.161,-0.043,11.885,20.984,10.642
1746585796.84,0.187,-0.134,-0.136,0.585,0.080,-0.043,12.560,21.198,10.279
1746585796.86,0.087,-0.148,-0.244,0.354,0.108,0.003,13.045,21.326,10.028
1746585796.88,-0.018,-0.093,-0.302,0.205,0.173,-0.006,13.347,21.505,9.886
1746585796.90,-0.020,-0.187,-0.209,-0.036,0.215,-0.139,13.401,21.766,9.720
1746585796.92,0.122,-0.179,-0.332,-0.227,0.075,-0.166,13.202,21.973,9.577
1746585796.94,0.091,-0.167,-0.310,-0.484,0.062,-0.175,12.745,22.051,9.521
1746585796.96,0.017,-0.116,-0.305,-0.662,0.141,-0.266,12.048,22.155,9.516
1746585796.98,0.017,-0.131,-0.223,-0.839,0.228,-0.320,11.124,22.374,9.512
1746585797.00,0.097,-0.096,-0.275,-1.043,0.210,-0.323,9.998,22.609,9.570
1746585797.02,0.126,-0.103,-0.263,-1.201,0.195,-0.343,8.666,22.812,9.728
1746585797.04,0.068,-0.100,-0.154,-1.347,0.207,-0.410,7.147,23.006,9.906
1746585797.06,0.076,-0.081,-0.116,-1.497,0.300,-0.344,5.485,23.263,10.158
1746585797.08,0.135,-0.091,-0.154,-1.674,0.414,-0.219,3.705,23.633,10.617
1746585797.10,0.153,-0.083,-0.013,-1.842,0.196,-0.280,1.754,23.976,11.205
1746585797.12,0.119,-0.135,-0.041,-1.825,0.066,-0.385,-0.326,24.122,11.748
1746585797.14,0.047,-0.110,0.009,-1.778,0.033,-0.394,-2.393,24.158,12.170
1746585797.16,0.006,0.001,0.034,-1.719,0.067,-0.360,-4.392,24.235,12.605
1746585797.18,-0.120,0.015,0.035,-1.587,0.042,-0.455,-6.300,24.363,12.971
1746585797.20,-0.160,-0.061,0.037,-1.499,0.252,-0.647,-8.183,24.535,13.137
1746585797.22,-0.148,-0.173,-0.123,-1.494,0.278,-0.717,-10.047,24.837,13.123
1746585797.24,-0.071,-0.118,-0.031,-1.493,0.400,-0.728,-11.950,25.232,13.102
1746585797.26,-0.026,-0.071,0.090,-1.398,0.345,-0.788,-13.807,25.653,13.031
1746585797.28,0.031,-0.133,0.042,-1.418,0.417,-0.781,-15.649,26.041,12.902
1746585797.30,0.044,-0.195,-0.041,-1.553,0.392,-0.644,-17.523,26.518,12.918
