Time,AccX,AccY,AccZ,GyroX,GyroY,GyroZ,Pitch,Roll,Yaw
1746585912.14,-0.013,0.001,-0.070,-0.337,-0.110,-0.013,16.573,-0.091,21.819
1746585912.14,-0.019,0.013,0.026,-0.556,-0.117,0.003,16.073,-0.203,21.803
1746585912.15,-0.009,0.021,0.059,-0.656,-0.108,0.022,15.367,-0.338,21.819
1746585912.17,0.007,-0.002,0.018,-0.526,-0.158,0.021,14.672,-0.488,21.843
1746585912.19,0.010,-0.001,-0.045,-0.192,-0.145,0.086,14.253,-0.677,21.891
1746585912.21,-0.032,-0.021,-0.105,-0.014,-0.237,0.077,14.162,-0.882,21.991
1746585912.23,-0.044,0.008,-0.102,-0.091,-0.326,0.094,14.114,-1.314,22.085
1746585912.25,-0.030,0.035,0.124,-0.407,-0.482,0.116,13.805,-1.723,22.180
1746585912.27,0.005,-0.045,0.107,-0.172,-0.240,0.190,13.450,-2.293,22.350
1746585912.29,0.029,-0.067,0.222,-0.158,0.409,0.271,13.276,-2.291,22.615
1746585912.31,0.006,-0.172,0.212,-0.297,1.342,0.378,13.006,-1.464,22.993
1746585912.33,-0.030,-0.007,0.175,-0.487,1.076,0.280,12.543,-0.049,23.398
1746585912.35,-0.081,0.116,-0.043,-0.434,1.140,0.100,11.996,1.046,23.613
1746585912.37,-0.057,0.030,0.217,-0.216,2.306,0.099,11.623,2.888,23.720
1746585912.39,-0.040,-0.075,0.364,-0.109,2.108,0.254,11.466,5.759,23.938
1746585912.41,-0.097,-0.013,-0.322,-0.202,0.530,0.321,11.341,7.073,24.307
1746585912.43,-0.108,0.103,-0.196,-0.412,0.734,0.297,11.040,7.579,24.714
1746585912.45,-0.105,0.136,0.146,-0.619,1.242,0.298,10.495,8.706,25.138
1746585912.47,-0.142,0.211,-0.058,-0.624,0.933,0.152,9.814,9.862,25.529
1746585912.49,-0.134,0.194,-0.114,-0.472,0.966,0.162,9.224,10.914,25.797
1746585912.51,-0.022,-0.044,-0.013,-0.565,0.882,0.286,8.683,11.820,26.147
1746585912.53,0.003,-0.135,0.102,-0.388,1.626,0.091,8.197,13.214,26.490
1746585912.55,-0.081,0.049,-0.009,-0.033,0.705,-0.009,7.844,15.024,26.595
1746585912.57,-0.135,-0.020,-0.035,-0.023,0.065,-0.088,7.998,15.104,26.515
1746585912.59,-0.126,0.217,0.134,-0.855,0.252,-0.352,7.464,15.191,26.344
1746585912.61,-0.174,0.094,0.439,-1.692,0.535,0.401,6.036,15.733,26.865
1746585912.63,-0.384,0.098,0.270,-1.947,0.042,0.741,4.160,15.992,28.043
1746585912.65,-0.207,0.099,0.167,-1.570,-0.674,1.361,2.504,15.501,29.761
1746585912.67,-0.087,0.176,0.101,-2.322,-1.707,1.818,0.988,13.996,32.078
1746585912.69,-0.283,0.388,0.480,-2.639,-1.364,1.373,-1.419,12.177,34.564
1746585912.71,-0.237,0.432,0.299,-2.765,-0.143,1.081,-4.154,11.360,36.520
1746585912.73,-0.114,0.326,0.442,-3.384,1.017,0.737,-7.324,12.072,38.269
1746585912.75,-0.315,0.303,0.348,-3.970,1.483,0.073,-11.382,13.789,39.682
1746585912.77,-0.216,0.270,-0.047,-3.502,1.089,-0.110,-15.617,15.568,40.743
1746585912.79,0.044,0.262,-0.366,-2.620,0.324,0.388,-18.917,16.676,41.870
1746585912.81,0.240,0.385,-0.183,-2.614,0.371,1.072,-21.367,17.623,43.693
1746585912.83,0.129,0.322,0.196,-3.581,1.286,0.676,-24.380,19.374,45.992
1746585912.85,0.091,0.398,0.176,-4.133,2.412,0.240,-28.351,22.552,48.294
1746585912.87,0.076,0.188,-0.069,-4.168,2.276,-0.038,-32.702,26.589,50.789
1746585912.89,0.085,0.201,-0.345,-3.806,1.639,0.079,-36.732,30.301,53.388
1746585912.91,0.144,0.080,-0.351,-3.004,1.791,0.003,-40.005,33.956,56.177
1746585912.93,0.138,0.193,-0.381,-2.576,2.151,-0.179,-42.571,37.646,58.466
1746585912.95,0.268,0.038,-0.187,-2.677,2.589,-0.357,-45.093,42.005,60.823
1746585912.97,0.292,-0.012,-0.305,-2.330,2.714,-0.419,-47.485,46.822,63.257
1746585912.99,0.363,-0.016,-0.436,-1.874,2.512,-0.233,-49.326,51.565,65.620
1746585913.01,0.374,-0.071,-0.418,-1.596,2.563,-0.134,-50.646,56.175,67.898
1746585913.03,0.412,-0.029,-0.348,-1.556,2.931,0.050,-51.648,61.113,70.236
1746585913.05,0.677,0.012,-0.259,-1.695,2.994,0.503,-52.186,66.838,73.158
1746585913.07,0.749,-0.083,-0.271,-1.633,2.628,1.094,-51.980,72.783,76.574
1746585913.09,0.624,-0.189,-0.311,-1.632,2.226,1.504,-50.975,78.283,80.084
1746585913.11,0.391,-0.228,-0.349,-1.464,1.988,1.559,-49.512,83.135,83.283
1746585913.13,0.202,-0.295,-0.363,-1.261,1.631,1.428,-47.932,87.161,85.848
1746585913.15,0.114,-0.400,-0.387,-1.027,1.364,1.300,-46.418,90.298,87.848
1746585913.17,0.058,-0.370,-0.462,-0.581,1.198,1.062,-45.028,92.667,89.120
1746585913.19,-0.023,-0.393,-0.432,-0.007,1.029,0.573,-44.028,94.258,89.588
1746585913.21,-0.303,-0.105,-0.589,0.860,0.828,0.082,-43.758,94.794,88.847
1746585913.23,-0.215,-0.108,-0.572,1.526,0.697,0.040,-43.816,94.338,86.938
1746585913.25,-0.162,-0.052,-0.525,1.727,1.023,-0.109,-43.956,93.448,84.291
1746585913.27,-0.131,-0.077,-0.360,1.564,1.233,-0.233,-44.302,92.952,81.661
1746585913.29,0.030,0.023,-0.189,1.318,1.062,-0.190,-44.632,92.681,79.369
1746585913.31,0.117,0.106,0.084,0.871,0.651,-0.131,-44.855,92.424,77.543
1746585913.33,0.163,0.142,0.336,0.280,-0.077,0.021,-44.932,92.113,76.655
1746585913.35,0.168,0.055,0.301,0.185,-0.553,0.140,-44.825,91.504,76.301
1746585913.37,0.016,-0.126,0.135,0.263,-0.705,0.179,-44.640,90.486,75.934
1746585913.39,-0.091,-0.145,0.184,0.087,-0.809,-0.325,-44.576,89.518,75.705
1746585913.41,-0.325,0.314,0.114,0.476,-1.634,-0.947,-45.367,87.800,75.291
1746585913.43,-0.173,0.032,-0.075,0.806,-1.947,-1.248,-46.562,84.840,74.055
1746585913.45,-0.187,-0.035,-0.203,0.525,-1.818,-1.416,-48.028,81.584,72.641
1746585913.47,-0.119,0.012,-0.113,0.263,-1.552,-1.445,-49.556,78.810,71.555
1746585913.49,-0.013,0.040,0.045,0.260,-0.938,-1.254,-51.052,76.607,70.648
1746585913.51,0.150,0.254,0.205,0.286,0.144,-1.225,-52.288,75.296,69.532
1746585913.53,0.176,0.431,0.182,0.133,0.581,-1.304,-53.586,75.014,68.551
1746585913.55,0.068,0.332,-0.063,0.260,0.518,-1.400,-55.055,74.859,67.506
1746585913.56,0.080,0.218,-0.181,-0.087,0.966,-1.060,-56.409,74.667,66.466
1746585913.58,-0.113,0.010,-0.092,-0.616,1.163,-0.897,-57.565,76.231,66.788
1746585913.60,-0.140,-0.051,-0.060,-0.535,0.655,-0.889,-58.720,78.043,67.622
1746585913.62,-0.099,-0.087,-0.041,-0.554,0.578,-1.106,-59.914,79.241,68.330
1746585913.64,-0.096,-0.185,-0.027,-1.045,0.635,-1.612,-61.571,81.079,69.550
1746585913.66,0.023,-0.258,-0.054,-1.766,0.400,-2.110,-63.922,84.197,72.454
1746585913.68,0.069,-0.363,0.068,-2.400,0.770,-2.266,-66.564,89.677,77.739
1746585913.70,-0.023,-0.474,0.137,-2.647,1.867,-2.436,-69.004,98.839,86.109
1746585913.72,-0.148,-0.567,0.013,-2.446,1.229,-2.436,-71.008,110.545,96.437
1746585913.74,-0.193,-0.611,-0.147,-2.001,-0.676,-2.069,-72.220,121.295,107.367
1746585913.76,-0.187,-0.644,-0.167,-1.364,-2.675,-1.739,-72.890,128.331,116.770
1746585913.78,-0.050,-0.287,-0.082,-1.458,-4.160,-1.276,-73.284,131.889,124.675
1746585913.80,0.189,0.905,0.245,-2.507,-3.663,-0.618,-72.540,134.933,132.840
1746585913.82,0.393,2.481,0.414,-1.256,0.263,-0.009,-70.921,138.755,138.865
1746585913.84,-0.128,1.226,-0.061,0.533,0.967,-0.479,-70.898,140.853,140.046
1746585913.86,-0.092,0.074,-0.023,0.804,0.280,-0.479,-71.925,141.320,139.780
1746585913.88,-0.008,-0.444,-0.061,0.019,-1.481,-0.931,-72.808,141.575,140.695
1746585913.90,0.051,-0.673,-0.048,-0.061,-1.271,-0.616,-73.345,142.440,143.365
1746585913.92,0.060,-0.297,0.105,-0.348,-0.996,-0.501,-73.518,143.130,145.392
1746585913.94,0.097,0.131,0.131,-0.337,-0.578,-0.725,-73.595,145.052,148.313
1746585913.96,0.209,0.055,0.027,-0.120,-0.429,-0.625,-73.826,147.288,151.228
1746585913.98,0.084,0.074,0.028,-0.011,-0.194,-0.525,-74.106,148.909,153.310
1746585914.00,-0.061,0.048,0.043,0.090,-0.058,-0.699,-74.493,150.824,155.392
1746585914.02,0.020,-0.048,0.006,0.152,-0.140,-0.645,-75.003,153.079,157.846
1746585914.04,0.046,-0.024,0.037,0.090,-0.317,-0.522,-75.394,154.805,159.935
1746585914.06,0.009,-0.005,0.027,0.385,0.126,-0.434,-75.847,156.196,161.525
1746585914.08,-0.084,0.022,-0.014,0.515,0.395,-0.351,-76.528,157.284,162.287
1746585914.10,-0.155,0.036,-0.123,0.342,0.346,-0.279,-77.132,158.412,163.003
1746585914.12,-0.175,-0.006,-0.137,0.172,0.256,-0.303,-77.505,159.596,163.857
1746585914.14,-0.094,0.020,-0.074,0.127,0.116,-0.303,-77.784,161.107,165.193
1746585914.16,-0.065,0.015,-0.004,0.007,-0.009,-0.202,-77.962,162.337,166.377
1746585914.18,-0.057,0.015,-0.015,-0.118,-0.156,-0.046,-77.932,163.018,167.182
1746585914.20,-0.017,-0.028,-0.037,-0.112,-0.033,0.360,-77.744,162.341,166.644
1746585914.22,-0.043,-0.026,0.002,0.156,0.639,0.593,-77.555,160.116,164.064
1746585914.24,-0.011,0.024,0.045,0.467,1.485,0.544,-77.665,157.941,160.567
1746585914.26,0.072,0.039,0.049,0.557,1.843,0.434,-78.000,156.413,157.018
1746585914.28,0.115,0.019,0.047,0.566,1.855,0.285,-78.414,155.487,153.890
1746585914.30,0.148,-0.010,-0.002,0.602,1.609,0.089,-78.932,155.148,151.503
1746585914.32,0.216,-0.035,-0.090,0.535,1.042,-0.041,-79.528,155.116,149.900
1746585914.34,0.248,-0.025,-0.083,0.302,0.225,-0.128,-80.010,155.173,149.211
1746585914.36,0.226,0.003,-0.011,0.114,-0.358,-0.280,-80.316,155.756,149.941
1746585914.38,0.187,-0.017,0.091,0.044,-0.382,-0.207,-80.511,156.751,151.412
1746585914.40,0.124,-0.016,0.152,0.069,-0.161,-0.033,-80.618,156.998,151.995
1746585914.42,0.031,0.002,0.176,0.083,0.201,0.050,-80.693,156.723,151.692
1746585914.44,-0.058,0.057,0.094,0.219,0.388,0.062,-80.801,156.306,150.902
1746585914.46,-0.140,0.100,-0.088,0.609,0.251,-0.059,-81.218,155.404,149.597
1746585914.48,-0.175,0.095,-0.144,0.845,0.122,-0.243,-82.069,154.175,148.158
1746585914.50,-0.137,0.065,-0.056,0.899,0.187,-0.339,-83.113,153.355,147.159
1746585914.52,-0.086,0.026,-0.025,1.028,0.323,-0.290,-84.253,152.099,145.606
1746585914.54,-0.060,0.019,-0.005,1.179,0.551,-0.139,-85.471,147.956,140.959
1746585914.56,-0.066,0.044,0.015,1.345,0.842,-0.052,-86.680,137.117,129.296
1746585914.58,-0.094,0.073,-0.005,1.567,0.964,-0.008,-87.659,110.356,101.446
1746585914.60,-0.122,0.093,-0.069,1.822,0.796,-0.003,-87.553,63.848,53.869
1746585914.62,-0.133,0.123,-0.166,2.061,0.470,-0.067,-86.062,33.802,23.060
1746585914.64,-0.067,0.143,-0.250,2.041,0.244,-0.203,-83.988,20.226,9.048
1746585914.66,0.036,0.126,-0.214,1.644,0.356,-0.303,-82.047,13.135,1.584
1746585914.68,0.181,0.052,-0.147,1.189,0.488,-0.039,-80.497,10.190,-1.912
1746585914.70,0.252,-0.085,-0.067,0.794,0.117,0.068,-79.380,9.775,-2.720
1746585914.72,0.223,-0.269,0.028,0.356,0.161,-0.126,-78.736,9.158,-3.440
1746585914.74,0.068,-0.306,0.224,0.112,0.042,-0.202,-78.540,8.241,-4.582
1746585914.76,-0.154,-0.285,0.212,0.021,-0.517,-0.263,-78.490,6.561,-6.008
1746585914.78,-0.272,-0.264,0.219,-0.244,-0.849,-0.224,-78.623,4.432,-7.348
1746585914.80,-0.201,-0.234,0.153,-0.573,-0.715,-0.272,-79.116,2.214,-8.680
1746585914.82,-0.136,-0.180,0.092,-0.705,-0.598,-0.288,-79.874,-0.194,-10.379
1746585914.84,-0.139,-0.163,0.007,-0.641,-0.550,-0.256,-80.648,-2.808,-12.370
1746585914.86,-0.153,-0.156,-0.086,-0.487,-0.512,-0.123,-81.269,-5.134,-14.105
1746585914.88,-0.164,-0.112,-0.125,-0.428,-0.409,0.029,-81.780,-6.298,-14.751
1746585914.90,-0.172,0.002,-0.146,-0.412,-0.261,0.014,-82.263,-6.808,-14.860
1746585914.92,-0.197,0.095,-0.113,-0.233,-0.031,-0.045,-82.645,-7.534,-15.435
1746585914.94,-0.235,0.118,-0.186,0.039,0.209,-0.039,-82.739,-7.974,-15.968
1746585914.96,-0.219,0.131,-0.226,0.025,0.414,0.063,-82.664,-7.470,-15.839
1746585914.98,-0.103,0.211,-0.213,-0.317,0.249,0.122,-82.843,-6.294,-15.070
1746585915.00,0.084,0.316,-0.214,-0.164,-0.277,0.067,-83.185,-5.660,-14.429
1746585915.02,0.213,0.248,-0.116,0.127,-0.345,0.020,-83.176,-5.740,-14.080
1746585915.04,0.168,-0.050,0.161,-0.074,-0.253,0.143,-83.122,-5.296,-13.316
1746585915.06,0.048,-0.273,0.229,-0.220,-0.055,0.073,-83.332,-4.350,-12.152
1746585915.08,-0.042,-0.270,0.119,-0.074,-0.107,0.036,-83.514,-4.148,-11.922
1746585915.10,-0.024,-0.063,-0.089,-0.025,-0.387,-0.004,-83.561,-4.214,-11.672
1746585915.12,0.073,0.155,-0.099,0.004,-0.384,-0.009,-83.576,-4.892,-11.888
1746585915.14,0.133,0.167,-0.018,0.022,-0.280,0.112,-83.563,-4.834,-11.462
1746585915.16,0.131,0.019,-0.019,0.019,-0.283,0.229,-83.559,-3.306,-9.596
1746585915.18,0.070,-0.061,0.002,0.124,-0.210,0.151,-83.506,-1.487,-7.483
1746585915.20,0.012,-0.007,0.035,0.345,-0.188,-0.002,-83.234,-0.928,-6.702
1746585915.22,-0.001,0.078,-0.005,0.413,-0.267,0.037,-82.781,-1.159,-6.658
1746585915.24,0.046,0.053,0.026,0.307,0.050,0.087,-82.367,-0.625,-5.975
1746585915.26,0.109,-0.022,0.101,0.281,0.206,0.087,-82.043,0.287,-5.238
1746585915.28,0.089,-0.050,0.109,0.288,0.218,0.087,-81.715,1.197,-4.568
1746585915.30,0.011,-0.002,0.081,0.281,0.294,0.068,-81.380,2.071,-3.978
1746585915.32,-0.017,0.020,0.016,0.223,0.335,0.041,-81.090,2.701,-3.691
1746585915.34,0.036,-0.013,0.055,0.146,0.457,0.115,-80.886,3.621,-3.226
1746585915.36,0.097,-0.043,0.002,0.331,0.291,0.123,-80.629,4.773,-2.503
1746585915.38,0.104,-0.032,-0.127,0.579,0.179,0.209,-80.080,5.852,-1.681
1746585915.40,0.055,0.056,-0.132,0.565,-0.066,0.170,-79.387,6.812,-0.783
1746585915.42,-0.081,0.081,-0.053,0.544,-0.006,-0.048,-78.752,6.779,-0.723
1746585915.44,-0.083,-0.004,0.001,0.540,-0.035,-0.156,-78.165,5.796,-1.727
1746585915.46,-0.093,-0.060,0.001,0.675,0.016,-0.143,-77.493,4.653,-2.895
1746585915.48,-0.090,-0.027,-0.053,0.752,-0.098,-0.001,-76.696,3.991,-3.521
1746585915.50,-0.078,0.016,-0.045,0.879,-0.028,0.038,-75.754,3.779,-3.646
1746585915.52,-0.088,0.011,-0.023,0.754,0.252,-0.000,-74.823,3.733,-3.805
1746585915.54,-0.052,-0.055,0.050,0.623,0.355,0.077,-74.019,4.062,-3.871
1746585915.56,0.050,-0.045,0.076,0.718,0.149,0.164,-73.298,4.651,-3.549
1746585915.58,0.079,0.083,0.071,1.008,-0.051,0.142,-72.276,5.054,-3.214
1746585915.60,-0.054,0.162,0.054,0.978,-0.478,-0.090,-71.137,4.511,-3.416
1746585915.62,-0.186,0.058,0.072,0.979,0.315,-0.104,-70.016,3.773,-4.091
1746585915.64,-0.161,-0.082,0.062,0.778,0.341,0.146,-69.023,4.023,-4.256
1746585915.66,-0.051,-0.064,0.140,0.972,0.752,0.289,-68.043,5.125,-3.717
1746585915.68,0.005,0.036,0.045,1.129,0.445,0.243,-66.780,6.341,-3.231
1746585915.70,0.086,0.082,-0.027,1.137,0.069,0.191,-65.478,6.825,-2.995
1746585915.72,0.004,0.008,0.043,1.132,-0.014,0.250,-64.146,6.957,-2.814
1746585915.74,0.018,-0.083,0.080,0.973,0.323,0.383,-62.904,7.581,-2.338
1746585915.76,0.024,-0.105,0.030,1.005,0.177,0.363,-61.761,8.414,-1.716
1746585915.78,0.066,0.033,0.054,1.195,0.189,0.243,-60.448,8.944,-1.420
1746585915.80,-0.067,0.085,0.029,1.257,-0.316,0.031,-59.038,8.738,-1.512
1746585915.82,-0.176,-0.037,-0.020,1.213,-0.130,0.160,-57.608,8.212,-1.795
1746585915.84,-0.053,-0.152,0.041,1.046,0.001,0.360,-56.308,8.388,-1.536
1746585915.86,0.053,-0.054,0.063,1.152,0.063,0.234,-55.024,8.667,-1.117
1746585915.88,0.023,0.044,0.108,1.353,0.241,0.121,-53.585,8.820,-1.176
1746585915.90,-0.049,0.008,-0.094,1.312,-0.026,0.199,-52.020,8.757,-1.253
1746585915.92,-0.061,-0.165,-0.102,1.041,-0.043,0.482,-50.628,8.996,-0.838
1746585915.94,0.033,-0.113,0.033,1.024,-0.082,0.521,-49.417,9.391,-0.010
1746585915.96,-0.029,-0.118,0.018,1.299,-0.087,0.365,-48.004,9.600,0.611
1746585915.98,-0.036,-0.075,0.065,1.421,0.019,0.341,-46.417,9.711,0.942
1746585916.00,0.028,-0.106,-0.144,1.338,0.085,0.441,-44.749,9.933,1.362
1746585916.02,0.071,-0.005,-0.069,1.039,0.054,0.521,-43.322,10.318,1.952
1746585916.04,-0.028,0.038,0.010,1.056,-0.249,0.419,-42.062,10.537,2.482
1746585916.06,0.046,0.000,0.068,1.174,-0.316,0.389,-40.752,10.372,2.917
1746585916.08,0.025,-0.103,-0.023,1.285,-0.180,0.353,-39.273,10.229,3.290
1746585916.10,-0.081,-0.045,-0.063,1.111,0.005,0.342,-37.853,10.251,3.626
1746585916.12,-0.042,0.046,0.025,1.124,-0.032,0.245,-36.551,10.381,3.916
1746585916.14,-0.007,0.042,0.025,1.188,-0.279,0.163,-35.213,10.154,4.021
1746585916.16,0.070,-0.012,0.038,1.236,-0.247,0.158,-33.810,9.811,4.099
1746585916.18,0.006,0.024,-0.005,1.148,-0.225,0.066,-32.431,9.478,4.103
1746585916.20,-0.039,0.036,0.041,1.057,-0.008,0.076,-31.188,9.254,4.081
1746585916.22,-0.048,0.025,-0.005,1.061,0.001,0.030,-29.979,9.204,4.046
1746585916.24,0.017,0.006,-0.018,1.058,-0.073,-0.024,-28.782,9.042,3.937
1746585916.26,0.128,-0.012,0.041,0.983,-0.223,0.065,-27.623,8.767,3.861
1746585916.28,0.049,-0.040,0.036,0.849,-0.070,0.115,-26.580,8.556,3.901
1746585916.30,-0.055,-0.146,-0.040,0.819,0.066,0.061,-25.620,8.561,3.961
1746585916.32,-0.006,-0.153,-0.027,0.785,0.117,0.071,-24.713,8.628,3.987
1746585916.34,0.094,-0.123,0.063,0.872,0.047,0.021,-23.780,8.692,3.987
1746585916.36,0.082,-0.150,0.081,0.945,-0.079,-0.040,-22.749,8.602,3.885
1746585916.38,0.066,-0.095,0.024,0.968,-0.178,-0.023,-21.663,8.332,3.747
1746585916.40,0.019,-0.032,0.004,0.852,0.048,0.132,-20.642,8.275,3.747
1746585916.42,-0.069,0.015,-0.026,0.846,0.169,0.141,-19.672,8.386,3.848
1746585916.44,0.011,-0.029,-0.004,0.877,0.103,0.122,-18.662,8.520,3.902
1746585916.46,0.117,0.005,0.072,0.881,-0.027,0.168,-17.666,8.674,4.074
1746585916.47,-0.004,-0.048,0.041,0.813,0.222,0.272,-16.676,8.742,4.223
1746585916.49,-0.017,0.095,-0.098,0.818,0.188,0.268,-15.708,9.050,4.477
1746585916.51,-0.097,0.034,0.009,0.795,0.457,0.264,-14.743,9.433,4.671
1746585916.53,0.028,0.087,-0.014,0.838,0.269,0.237,-13.793,9.942,4.867
1746585916.55,0.038,-0.035,-0.008,0.813,0.208,0.275,-12.804,10.226,5.021
1746585916.57,0.025,0.034,-0.044,0.834,0.266,0.373,-11.838,10.565,5.279
1746585916.59,-0.129,0.051,-0.083,0.867,0.338,0.274,-10.811,10.950,5.533
1746585916.61,0.008,-0.045,-0.091,0.866,0.109,0.163,-9.774,11.231,5.583
1746585916.63,0.138,-0.006,0.030,0.811,-0.122,0.349,-8.828,11.392,5.752
1746585916.65,-0.083,-0.102,-0.069,0.863,-0.040,0.273,-7.815,11.288,5.936
1746585916.67,-0.130,0.040,0.016,0.828,0.239,0.186,-6.818,11.394,6.028
1746585916.69,-0.116,0.041,-0.101,0.866,0.339,0.166,-5.835,11.754,6.058
1746585916.71,-0.008,0.015,-0.088,0.885,0.185,0.095,-4.824,12.070,6.006
1746585916.73,0.046,-0.035,-0.008,0.834,-0.014,0.054,-3.830,12.147,5.869
1746585916.75,0.012,0.022,0.041,0.728,0.022,0.118,-2.939,12.128,5.784
1746585916.77,-0.038,0.046,-0.050,0.692,0.238,0.128,-2.126,12.260,5.728
1746585916.79,-0.060,0.037,-0.074,0.763,0.411,0.100,-1.288,12.647,5.677
1746585916.81,-0.075,0.029,0.039,0.763,0.391,0.129,-0.412,13.118,5.589
1746585916.83,0.006,-0.016,0.017,0.767,0.288,0.169,0.490,13.513,5.531
1746585916.85,-0.032,-0.009,0.045,0.721,0.253,0.115,1.361,13.827,5.486
1746585916.87,-0.044,0.029,-0.081,0.776,0.270,0.117,2.212,14.108,5.389
1746585916.89,-0.053,-0.014,-0.101,0.839,0.307,0.006,3.131,14.449,5.206
1746585916.91,-0.028,-0.046,0.001,0.868,0.249,-0.039,4.059,14.791,4.895
1746585916.93,0.008,-0.051,-0.017,0.889,0.175,-0.035,5.019,15.050,4.558
1746585916.95,-0.017,-0.033,-0.001,0.839,0.174,-0.046,5.962,15.282,4.231
1746585916.97,-0.033,-0.044,-0.021,0.865,0.208,-0.101,6.876,15.533,3.863
1746585916.99,0.009,-0.052,-0.053,0.887,0.186,-0.141,7.807,15.808,3.418
1746585917.01,0.076,-0.089,-0.058,0.767,0.238,-0.059,8.687,16.092,3.001
1746585917.03,0.024,-0.068,-0.063,0.642,0.392,0.056,9.456,16.482,2.729
1746585917.05,-0.025,-0.011,-0.091,0.569,0.582,0.134,10.147,17.058,2.612
1746585917.07,-0.063,0.010,-0.058,0.550,0.545,0.097,10.794,17.735,2.493
1746585917.09,0.136,-0.065,-0.118,0.476,0.383,0.163,11.403,18.274,2.413
1746585917.11,0.110,-0.102,-0.121,0.330,0.301,0.247,11.916,18.640,2.450
1746585917.13,0.009,-0.049,-0.073,0.245,0.300,0.240,12.316,18.939,2.567
1746585917.15,-0.040,-0.006,-0.082,0.233,0.242,0.159,12.641,19.229,2.649
1746585917.17,0.018,-0.046,-0.094,0.231,0.147,0.074,12.939,19.435,2.634
1746585917.19,0.051,-0.046,-0.142,0.161,0.020,0.021,13.170,19.531,2.545
1746585917.21,0.067,-0.057,-0.152,0.076,-0.029,0.038,13.312,19.523,2.484
1746585917.23,0.050,-0.066,-0.170,-0.003,-0.027,0.021,13.365,19.474,2.467
1746585917.25,-0.000,-0.067,-0.104,-0.135,-0.033,-0.053,13.281,19.450,2.434
1746585917.27,0.065,-0.079,-0.166,-0.248,-0.095,-0.095,13.045,19.379,2.382
1746585917.29,0.094,-0.105,-0.213,-0.329,-0.147,-0.112,12.700,19.244,2.354
1746585917.31,0.064,-0.097,-0.192,-0.433,-0.191,-0.149,12.235,19.044,2.342
1746585917.33,0.081,-0.107,-0.159,-0.593,-0.218,-0.203,11.616,18.813,2.317
1746585917.35,0.141,-0.132,-0.150,-0.775,-0.279,-0.181,10.806,18.521,2.342
1746585917.37,0.146,-0.146,-0.153,-0.931,-0.288,-0.129,9.828,18.167,2.473
1746585917.39,0.114,-0.095,-0.163,-1.059,-0.229,-0.030,8.712,17.833,2.738
1746585917.41,0.026,-0.052,-0.158,-1.156,-0.193,0.041,7.513,17.532,3.125
1746585917.43,-0.027,0.016,-0.128,-1.180,-0.102,0.007,6.250,17.298,3.562
1746585917.45,-0.019,0.004,-0.060,-1.215,-0.175,-0.090,4.936,17.128,3.911
1746585917.47,-0.038,-0.015,-0.050,-1.235,-0.169,-0.227,3.538,16.911,4.153
1746585917.49,-0.019,-0.041,-0.084,-1.212,-0.142,-0.345,2.104,16.739,4.242
1746585917.51,-0.040,-0.038,-0.134,-1.169,-0.212,-0.463,0.678,16.544,4.194
1746585917.53,-0.003,-0.033,-0.061,-1.284,-0.180,-0.462,-0.812,16.310,4.079
1746585917.55,0.034,-0.060,-0.052,-1.307,-0.125,-0.415,-2.376,16.139,4.040
1746585917.57,0.022,-0.041,-0.092,-1.351,-0.096,-0.373,-3.961,16.007,4.053
1746585917.59,0.003,-0.049,-0.077,-1.409,-0.028,-0.355,-5.586,15.949,4.125
1746585917.61,0.012,-0.073,-0.046,-1.487,-0.044,-0.306,-7.283,15.912,4.257
1746585917.63,-0.019,-0.042,-0.074,-1.507,-0.030,-0.276,-9.026,15.901,4.459
1746585917.65,-0.028,0.002,-0.076,-1.519,-0.016,-0.326,-10.779,15.900,4.661
1746585917.67,-0.041,-0.011,-0.063,-1.518,-0.045,-0.395,-12.556,15.875,4.783
1746585917.69,-0.022,-0.042,-0.001,-1.464,-0.031,-0.418,-14.338,15.836,4.856
1746585917.71,-0.005,-0.076,-0.025,-1.421,-0.145,-0.439,-16.040,15.738,4.894
1746585917.73,0.043,-0.115,-0.051,-1.531,-0.229,-0.376,-17.798,15.493,4.970
1746585917.75,0.074,-0.151,-0.044,-1.449,-0.159,-0.383,-19.552,15.314,5.108
1746585917.77,-0.061,-0.150,-0.016,-1.463,-0.159,-0.482,-21.287,15.089,5.135
1746585917.79,-0.028,-0.139,0.029,-1.479,-0.009,-0.350,-23.028,14.978,5.180
1746585917.81,0.091,-0.095,-0.017,-1.527,-0.066,-0.291,-24.787,15.009,5.390
1746585917.83,0.088,-0.072,0.007,-1.414,-0.247,-0.398,-26.516,14.868,5.555
1746585917.85,-0.001,-0.116,0.054,-1.210,-0.386,-0.538,-28.101,14.415,5.497
1746585917.87,-0.031,-0.156,0.062,-1.068,-0.362,-0.552,-29.512,13.818,5.259
1746585917.89,-0.014,-0.150,-0.045,-1.027,-0.428,-0.541,-30.810,13.188,4.995
1746585917.91,0.032,-0.110,-0.070,-1.162,-0.348,-0.485,-32.149,12.535,4.758
1746585917.93,0.077,-0.092,0.062,-1.270,-0.249,-0.483,-33.625,12.064,4.547
1746585917.95,0.033,-0.101,0.090,-1.168,-0.284,-0.571,-35.140,11.566,4.304
1746585917.97,0.018,-0.106,-0.046,-1.042,-0.395,-0.616,-36.490,10.852,3.767
1746585917.99,0.079,-0.069,-0.041,-1.271,-0.311,-0.552,-37.890,10.116,3.287
1746585918.01,0.070,-0.074,0.030,-1.495,-0.304,-0.457,-39.564,9.547,3.035
1746585918.03,0.011,-0.096,-0.081,-1.408,-0.330,-0.483,-41.293,8.967,2.756
1746585918.05,0.001,-0.080,-0.088,-1.514,-0.378,-0.509,-43.001,8.266,2.323
1746585918.07,0.039,-0.074,0.049,-1.747,-0.333,-0.535,-44.935,7.548,1.919
1746585918.09,0.032,-0.078,0.076,-1.702,-0.426,-0.606,-47.007,6.723,1.360
1746585918.11,-0.016,-0.069,-0.004,-1.498,-0.605,-0.720,-48.895,5.510,0.520
1746585918.13,-0.016,-0.049,-0.022,-1.405,-0.625,-0.753,-50.601,3.949,-0.443
1746585918.15,0.014,-0.059,0.039,-1.462,-0.635,-0.700,-52.280,2.298,-1.507
1746585918.17,0.069,-0.078,0.041,-1.452,-0.669,-0.577,-53.969,0.619,-2.519
1746585918.19,0.105,-0.086,0.060,-1.465,-0.555,-0.383,-55.628,-0.871,-3.344
1746585918.21,0.085,-0.089,0.076,-1.470,-0.520,-0.227,-57.300,-2.042,-3.965
1746585918.23,0.049,-0.098,0.031,-1.451,-0.539,-0.183,-58.959,-3.143,-4.467
1746585918.25,0.040,-0.101,0.030,-1.469,-0.326,-0.250,-60.597,-4.245,-5.019
1746585918.27,0.035,-0.121,0.066,-1.384,-0.149,-0.364,-62.210,-5.395,-6.044
1746585918.29,0.017,-0.138,-0.026,-1.226,-0.253,-0.402,-63.635,-6.788,-7.290
1746585918.31,0.015,-0.136,-0.019,-1.384,-0.312,-0.271,-65.025,-8.356,-8.563
1746585918.33,0.010,-0.186,0.085,-1.613,-0.246,-0.127,-66.703,-9.766,-9.760
1746585918.35,-0.030,-0.197,0.040,-1.525,-0.092,-0.117,-68.469,-11.067,-10.944
1746585918.37,-0.082,-0.154,0.007,-1.320,0.083,-0.237,-70.012,-12.414,-12.401
1746585918.39,-0.094,-0.068,0.004,-1.367,-0.173,-0.332,-71.397,-14.392,-14.459
1746585918.41,-0.030,0.016,0.073,-1.448,-0.285,-0.179,-72.874,-16.959,-16.867
1746585918.43,0.032,0.101,0.133,-1.335,-0.359,0.108,-74.396,-19.154,-18.775
1746585918.45,0.042,0.224,0.112,-1.052,-0.312,0.294,-75.768,-20.406,-19.658
1746585918.47,-0.032,0.228,0.014,-0.799,-0.262,0.186,-76.854,-21.087,-20.028
1746585918.49,-0.109,0.055,-0.063,-0.706,-0.200,-0.049,-77.655,-22.443,-21.146
1746585918.51,-0.086,-0.105,-0.042,-0.943,-0.130,0.039,-78.480,-24.573,-23.120
1746585918.53,-0.007,-0.157,0.062,-1.085,0.003,0.388,-79.663,-26.150,-24.664
1746585918.55,-0.016,-0.122,0.043,-0.967,0.079,0.636,-80.988,-25.978,-24.531
1746585918.57,-0.073,-0.099,0.029,-0.741,0.034,0.533,-82.175,-24.401,-23.038
1746585918.59,-0.196,-0.075,-0.083,-0.492,-0.366,0.013,-82.957,-24.447,-22.893
1746585918.61,-0.265,0.088,-0.106,-0.335,-0.351,-0.221,-83.290,-27.968,-25.964
1746585918.63,-0.154,0.162,-0.075,-0.366,0.020,0.101,-83.575,-30.434,-28.259
1746585918.65,-0.029,0.100,0.012,-0.452,0.200,0.235,-84.112,-30.723,-28.708
1746585918.67,-0.008,0.023,0.018,-0.295,0.149,0.098,-84.587,-31.128,-29.314
1746585918.69,0.020,-0.035,-0.005,-0.102,0.252,0.086,-84.819,-31.370,-29.785
1746585918.71,-0.004,-0.072,0.007,-0.055,0.197,0.203,-84.961,-29.883,-28.555
1746585918.73,-0.084,-0.027,-0.031,-0.173,0.231,0.180,-85.189,-27.986,-26.884
1746585918.75,-0.135,0.012,-0.007,-0.193,0.274,0.055,-85.451,-27.491,-26.686
1746585918.77,-0.115,0.043,0.005,-0.091,0.197,-0.006,-85.604,-27.952,-27.428
1746585918.79,-0.036,0.059,-0.039,-0.025,0.055,-0.009,-85.656,-28.412,-28.033
1746585918.81,0.081,0.008,-0.105,0.006,-0.012,0.040,-85.663,-28.200,-27.834
1746585918.83,0.135,-0.042,-0.067,-0.052,-0.035,0.079,-85.718,-27.603,-27.222
1746585918.85,0.112,-0.071,0.004,-0.004,-0.171,0.119,-85.811,-26.562,-26.054
1746585918.87,0.026,-0.019,0.029,0.169,-0.206,0.072,-85.783,-24.860,-24.130
1746585918.89,-0.075,0.032,-0.057,0.289,-0.342,-0.010,-85.545,-23.208,-22.172
1746585918.91,-0.114,0.056,-0.101,0.215,-0.358,-0.103,-85.247,-22.955,-21.487
1746585918.93,-0.090,0.023,0.014,0.189,-0.086,-0.106,-84.996,-23.540,-21.811
1746585918.95,-0.052,-0.017,0.094,0.242,0.079,-0.069,-84.734,-23.426,-21.715
1746585918.97,-0.035,-0.028,0.099,0.282,0.096,-0.068,-84.428,-22.826,-21.216
1746585918.99,0.001,-0.014,0.094,0.308,0.118,-0.051,-84.089,-22.072,-20.586
1746585919.01,0.015,0.005,0.049,0.335,0.073,-0.039,-83.732,-21.161,-19.783
1746585919.03,-0.011,0.017,0.000,0.360,-0.064,-0.038,-83.342,-20.253,-18.881
1746585919.05,-0.050,0.017,-0.031,0.310,-0.075,-0.044,-82.964,-19.633,-18.148
1746585919.07,-0.078,-0.019,0.049,0.326,0.186,-0.081,-82.615,-19.169,-17.726
1746585919.09,-0.101,-0.026,0.072,0.585,0.407,-0.153,-82.100,-18.561,-17.478
1746585919.11,-0.129,0.021,-0.025,0.849,0.198,-0.159,-81.245,-17.586,-16.886
1746585919.13,-0.146,0.036,-0.069,0.842,-0.054,-0.181,-80.249,-16.859,-16.206
1746585919.15,-0.110,0.003,-0.025,0.845,0.027,-0.200,-79.277,-16.564,-15.849
1746585919.17,-0.063,-0.024,0.034,0.907,0.352,-0.169,-78.247,-15.978,-15.479
1746585919.19,-0.016,-0.028,0.038,0.965,0.561,-0.068,-77.195,-14.770,-14.790
1746585919.21,0.024,-0.020,-0.022,1.137,0.500,-0.015,-76.012,-13.069,-13.695
1746585919.23,0.025,0.008,-0.052,1.049,0.255,-0.044,-74.765,-11.686,-12.716
1746585919.25,0.018,0.011,0.004,0.970,-0.119,-0.108,-73.636,-11.112,-12.215
1746585919.27,-0.000,-0.014,-0.029,0.978,-0.283,-0.121,-72.518,-11.123,-11.943
1746585919.29,0.000,-0.051,0.062,1.129,-0.082,-0.003,-71.335,-10.915,-11.473
1746585919.30,-0.007,-0.029,0.003,1.111,-0.079,0.132,-70.075,-10.032,-10.493
1746585919.32,0.008,0.018,-0.029,0.881,-0.015,0.175,-68.983,-9.151,-9.464
1746585919.34,0.018,-0.026,0.030,0.845,0.063,0.223,-68.049,-8.170,-8.457
1746585919.37,0.010,-0.047,0.028,0.896,0.167,0.253,-67.121,-7.080,-7.405
1746585919.38,0.042,-0.007,0.082,1.325,0.257,0.249,-65.906,-5.814,-6.324
1746585919.40,0.025,0.094,-0.006,1.256,0.045,0.143,-64.404,-4.835,-5.442
1746585919.42,-0.108,0.086,0.004,1.002,-0.182,0.155,-63.124,-4.407,-4.886
1746585919.44,-0.105,-0.027,0.054,0.595,-0.035,0.367,-62.247,-3.896,-4.100
1746585919.46,0.015,-0.100,0.150,0.662,0.250,0.446,-61.635,-2.722,-2.965
1746585919.48,0.032,-0.030,-0.030,1.191,0.059,0.217,-60.565,-1.764,-2.076
1746585919.50,-0.053,0.041,-0.075,1.271,-0.242,-0.002,-59.124,-1.604,-1.776
1746585919.52,-0.066,0.018,-0.155,1.031,0.046,0.085,-57.796,-1.720,-1.673
1746585919.54,0.029,-0.045,0.039,0.797,0.260,0.353,-56.776,-1.022,-1.163
1746585919.56,0.009,-0.126,0.065,0.905,-0.129,0.449,-55.849,-0.228,-0.272
1746585919.58,0.053,-0.101,0.043,1.085,0.085,0.281,-54.678,0.343,0.492
1746585919.60,0.038,-0.040,-0.035,1.152,-0.023,0.080,-53.392,0.654,0.800
1746585919.62,0.049,-0.017,-0.052,1.012,0.050,0.144,-52.155,0.759,0.926
1746585919.64,0.152,-0.016,0.061,0.962,0.035,0.422,-51.025,1.199,1.427
1746585919.66,0.149,0.036,0.071,1.030,0.099,0.454,-49.883,1.854,2.208
1746585919.68,-0.010,-0.003,0.019,1.012,0.123,0.282,-48.703,2.456,2.785
1746585919.70,-0.083,-0.096,-0.110,1.025,0.073,0.206,-47.511,2.753,3.114
1746585919.72,0.047,-0.055,-0.015,0.937,0.044,0.213,-46.380,3.052,3.363
1746585919.74,0.098,0.024,0.037,0.931,-0.109,0.357,-45.296,3.236,3.788
1746585919.76,0.002,0.069,0.077,0.934,0.103,0.285,-44.223,3.610,4.274
1746585919.78,-0.091,-0.010,-0.045,0.981,-0.018,0.234,-43.121,3.859,4.602
1746585919.80,-0.038,-0.117,-0.083,0.952,0.064,0.165,-41.989,4.038,4.903
1746585919.82,-0.008,-0.108,-0.018,0.917,0.024,0.105,-40.921,4.144,4.984
1746585919.84,0.033,-0.030,0.062,0.927,0.159,0.139,-39.865,4.294,5.111
1746585919.86,0.055,0.007,0.077,1.027,0.215,0.103,-38.761,4.581,5.254
1746585919.88,0.027,-0.026,-0.006,1.093,0.105,0.060,-37.539,4.756,5.271
1746585919.90,0.064,-0.062,-0.012,1.023,0.121,0.212,-36.311,4.914,5.382
1746585919.92,0.005,-0.031,-0.029,0.909,0.103,0.236,-35.196,5.169,5.652
1746585919.94,-0.128,-0.019,-0.026,0.917,0.226,0.099,-34.145,5.393,5.809
1746585919.96,-0.065,-0.030,0.075,0.960,0.354,0.105,-33.080,5.742,5.856
1746585919.98,-0.044,-0.126,-0.013,1.040,0.284,-0.013,-31.915,6.070,5.802
1746585920.00,0.074,-0.044,-0.052,0.949,0.206,0.024,-30.780,6.289,5.680
1746585920.02,0.114,0.021,0.046,0.922,-0.001,0.010,-29.735,6.351,5.620
1746585920.04,0.031,0.006,0.062,1.063,-0.080,0.058,-28.603,6.232,5.518
1746585920.06,-0.032,0.008,0.039,0.965,0.179,0.108,-27.418,6.253,5.493
1746585920.08,-0.099,-0.014,-0.018,0.930,0.259,0.114,-26.352,6.526,5.527
1746585920.10,-0.098,-0.051,-0.056,0.882,0.341,0.053,-25.305,6.868,5.523
1746585920.12,0.019,0.032,0.047,0.938,0.228,0.003,-24.280,7.143,5.424
1746585920.14,0.090,0.026,0.110,1.013,0.106,0.020,-23.180,7.282,5.297
1746585920.16,0.026,0.007,0.055,1.007,0.031,0.083,-22.011,7.289,5.208
1746585920.18,-0.035,-0.036,-0.008,0.948,0.134,0.071,-20.903,7.379,5.158
1746585920.20,-0.089,-0.072,-0.030,0.990,0.172,0.002,-19.804,7.528,5.060
1746585920.22,-0.049,-0.055,0.030,1.029,0.149,0.001,-18.657,7.649,4.898
1746585920.24,0.028,-0.009,0.030,1.065,0.085,0.005,-17.467,7.738,4.732
1746585920.26,0.023,0.032,-0.001,1.039,0.048,0.000,-16.270,7.752,4.535
1746585920.28,-0.076,-0.039,0.017,0.939,0.174,0.131,-15.146,7.817,4.451
1746585920.30,-0.073,-0.002,-0.020,0.971,0.124,0.093,-14.057,8.037,4.434
1746585920.32,0.002,0.010,-0.027,1.030,0.158,0.106,-12.915,8.182,4.349
1746585920.34,0.058,-0.014,-0.043,1.063,0.066,0.151,-11.706,8.295,4.311
1746585920.36,0.006,-0.002,-0.028,1.043,0.156,0.253,-10.481,8.430,4.344
1746585920.38,-0.092,0.051,0.019,1.049,0.288,0.240,-9.260,8.700,4.434
1746585920.40,-0.093,0.003,-0.023,0.996,0.317,0.222,-8.066,9.051,4.488
1746585920.42,0.090,0.001,-0.089,1.029,0.210,0.232,-6.886,9.381,4.559
1746585920.44,0.034,0.044,-0.117,0.985,0.124,0.205,-5.704,9.562,4.590
1746585920.46,-0.037,0.048,0.080,0.943,0.197,0.243,-4.581,9.736,4.630
1746585920.48,-0.050,0.074,0.001,0.980,0.176,0.188,-3.456,9.996,4.684
1746585920.50,-0.009,-0.021,0.017,0.934,0.333,0.208,-2.330,10.316,4.685
1746585920.52,-0.028,-0.034,-0.059,0.904,0.444,0.144,-1.275,10.752,4.651
1746585920.54,-0.026,-0.004,-0.091,0.932,0.403,0.084,-0.223,11.235,4.556
1746585920.56,-0.041,0.036,0.014,0.907,0.285,0.078,0.819,11.629,4.380
1746585920.58,-0.002,0.009,-0.032,0.965,0.249,0.094,1.884,11.936,4.222
1746585920.60,-0.053,0.019,-0.030,1.012,0.376,0.082,3.005,12.281,4.017
1746585920.62,-0.088,-0.032,0.008,1.000,0.523,0.035,4.142,12.805,3.768
1746585920.64,-0.047,-0.079,0.051,0.996,0.533,0.000,5.263,13.437,3.461
1746585920.66,-0.025,-0.022,0.065,0.926,0.414,0.060,6.333,13.997,3.157
1746585920.68,0.080,-0.031,-0.024,0.815,0.321,0.161,7.316,14.413,2.965
1746585920.70,0.112,-0.082,-0.110,0.838,0.491,0.259,8.296,14.880,2.898
1746585920.72,-0.125,-0.080,-0.005,0.850,0.693,0.163,9.293,15.566,2.820
1746585920.74,-0.101,-0.047,-0.016,0.904,0.618,0.005,10.292,16.370,2.528
1746585920.76,0.124,-0.058,-0.006,0.746,0.447,0.132,11.217,17.001,2.215
1746585920.78,0.081,-0.014,-0.041,0.608,0.507,0.251,12.016,17.524,2.108
1746585920.80,0.009,-0.015,-0.145,0.651,0.562,0.248,12.786,18.133,2.091
1746585920.82,-0.127,-0.008,-0.121,0.688,0.536,0.112,13.584,18.782,1.933
1746585920.84,0.073,-0.042,-0.098,0.671,0.388,0.130,14.359,19.355,1.682
1746585920.86,0.118,-0.047,-0.144,0.612,0.227,0.111,15.112,19.718,1.464
1746585920.88,0.037,-0.056,-0.099,0.535,0.190,0.088,15.755,19.978,1.238
1746585920.90,-0.018,-0.051,-0.146,0.422,0.211,0.080,16.305,20.228,1.036
1746585920.92,-0.003,-0.081,-0.161,0.323,0.220,0.047,16.736,20.509,0.853
1746585920.94,0.062,-0.132,-0.135,0.194,0.119,-0.007,17.010,20.748,0.682
1746585920.96,0.112,-0.165,-0.192,0.098,-0.065,-0.085,17.158,20.804,0.464
1746585920.98,0.084,-0.161,-0.147,-0.078,-0.140,-0.101,17.131,20.722,0.262
1746585921.00,0.069,-0.134,-0.207,-0.282,-0.070,-0.102,16.905,20.604,0.140
1746585921.02,0.038,-0.112,-0.248,-0.486,-0.033,-0.072,16.454,20.530,0.129
1746585921.04,0.086,-0.083,-0.231,-0.664,-0.105,-0.054,15.808,20.418,0.224
1746585921.06,0.169,-0.100,-0.265,-0.865,-0.223,-0.025,14.982,20.145,0.415
1746585921.08,0.103,-0.113,-0.212,-1.023,-0.254,-0.020,13.950,19.771,0.733
1746585921.10,0.001,-0.063,-0.243,-1.133,-0.202,-0.105,12.770,19.420,1.046
1746585921.12,-0.009,-0.062,-0.201,-1.250,-0.211,-0.199,11.411,19.143,1.301
1746585921.14,0.127,-0.063,-0.198,-1.370,-0.323,-0.267,9.930,18.776,1.472
1746585921.16,0.082,-0.120,-0.079,-1.444,-0.376,-0.274,8.291,18.348,1.686
1746585921.18,-0.013,-0.029,-0.231,-1.594,-0.359,-0.263,6.554,17.875,1.900
1746585921.20,-0.014,-0.055,-0.166,-1.727,-0.148,-0.249,4.656,17.572,2.217
1746585921.22,0.061,-0.059,-0.097,-1.770,-0.251,-0.315,2.679,17.283,2.498
1746585921.24,0.025,-0.126,0.037,-1.795,-0.234,-0.359,0.583,17.024,2.743
1746585921.26,-0.031,-0.081,-0.121,-1.802,-0.295,-0.387,-1.491,16.712,2.958
1746585921.28,0.024,-0.077,-0.076,-1.717,-0.360,-0.425,-3.549,16.352,3.127
1746585921.30,-0.017,-0.153,0.019,-1.623,-0.371,-0.484,-5.531,15.926,3.194
1746585921.32,-0.083,-0.154,0.039,-1.501,-0.366,-0.566,-7.412,15.499,3.103
1746585921.34,0.077,-0.176,-0.018,-1.546,-0.395,-0.480,-9.235,15.030,3.017
1746585921.36,0.203,-0.137,0.074,-1.546,-0.426,-0.330,-11.076,14.549,3.074
1746585921.38,0.094,-0.116,-0.014,-1.519,-0.493,-0.285,-12.836,14.035,3.222
1746585921.40,0.042,-0.036,0.055,-1.625,-0.204,-0.187,-14.647,13.652,3.388
1746585921.42,0.090,0.024,0.081,-1.710,-0.079,-0.100,-16.542,13.597,3.720
1746585921.44,0.106,0.011,0.038,-1.696,-0.045,-0.165,-18.465,13.627,4.110
1746585921.46,0.064,-0.034,0.039,-1.604,-0.221,-0.275,-20.360,13.573,4.383
1746585921.48,0.024,-0.115,0.020,-1.546,-0.248,-0.304,-22.185,13.284,4.546
1746585921.50,0.050,-0.161,-0.003,-1.578,-0.103,-0.269,-23.972,13.168,4.690
1746585921.52,-0.045,-0.158,-0.009,-1.530,-0.123,-0.368,-25.783,13.071,4.789
1746585921.54,-0.066,-0.127,0.096,-1.468,-0.101,-0.487,-27.581,12.880,4.728
1746585921.56,0.018,-0.085,0.040,-1.327,-0.226,-0.489,-29.247,12.631,4.504
1746585921.58,0.053,-0.012,-0.083,-1.322,-0.455,-0.497,-30.844,12.087,4.243
1746585921.60,0.047,-0.005,-0.027,-1.225,-0.630,-0.551,-32.396,11.302,3.913
1746585921.62,0.003,-0.042,0.025,-1.067,-0.689,-0.660,-33.812,10.245,3.502
1746585921.64,-0.070,-0.096,0.037,-0.885,-0.778,-0.755,-35.052,9.004,2.859
1746585921.66,-0.052,-0.115,-0.072,-0.906,-0.748,-0.732,-36.147,7.588,2.088
1746585921.68,0.021,-0.093,0.031,-1.208,-0.569,-0.579,-37.442,6.400,1.382
1746585921.70,-0.009,-0.112,0.024,-1.258,-0.511,-0.482,-38.931,5.442,0.868
1746585921.72,-0.046,-0.086,-0.066,-1.253,-0.297,-0.525,-40.392,4.592,0.407
1746585921.74,0.026,-0.047,-0.003,-1.443,-0.103,-0.550,-41.958,3.939,-0.194
1746585921.76,0.042,-0.052,0.084,-1.555,-0.167,-0.474,-43.727,3.369,-0.733
1746585921.78,0.041,-0.074,-0.019,-1.527,-0.354,-0.385,-45.505,2.659,-1.167
1746585921.80,0.050,-0.057,-0.059,-1.637,-0.246,-0.404,-47.315,1.940,-1.568
1746585921.82,0.010,-0.050,0.004,-1.685,-0.534,-0.536,-49.235,0.973,-2.288
1746585921.84,-0.019,-0.054,0.007,-1.570,-0.660,-0.562,-51.104,-0.506,-3.208
1746585921.86,-0.007,-0.067,0.010,-1.583,-0.499,-0.453,-52.878,-1.976,-4.149
1746585921.88,0.020,-0.082,0.082,-1.760,-0.281,-0.302,-54.759,-3.128,-4.969
1746585921.90,0.041,-0.107,0.121,-1.711,-0.217,-0.219,-56.758,-3.997,-5.633
1746585921.92,0.035,-0.116,-0.023,-1.470,-0.231,-0.238,-58.536,-4.872,-6.361
1746585921.94,-0.022,-0.102,-0.010,-1.430,-0.285,-0.366,-60.143,-6.011,-7.339
1746585921.96,-0.026,-0.114,-0.009,-1.521,-0.189,-0.311,-61.746,-7.384,-8.591
1746585921.98,0.031,-0.149,0.064,-1.686,-0.107,0.022,-63.544,-8.383,-9.531
1746585922.00,0.064,-0.183,0.113,-1.772,-0.314,0.490,-65.541,-8.619,-9.562
1746585922.02,0.065,-0.211,0.154,-1.804,-0.592,0.797,-67.685,-8.037,-8.374
1746585922.04,-0.026,-0.064,0.081,-1.599,-0.896,0.654,-69.737,-7.387,-6.755
1746585922.06,-0.048,0.069,0.030,-1.537,-0.865,0.390,-71.567,-7.418,-5.657
1746585922.08,-0.068,0.116,0.070,-1.487,-0.535,0.185,-73.325,-7.955,-5.388
1746585922.09,-0.062,0.117,0.049,-1.448,-0.192,0.142,-75.001,-8.617,-5.650
1746585922.11,-0.060,0.074,0.113,-1.264,-0.149,0.145,-76.583,-9.067,-5.956
1746585922.13,-0.098,0.049,0.031,-1.063,-0.312,0.095,-77.894,-9.662,-6.289
1746585922.15,-0.105,-0.040,0.005,-1.136,-0.471,-0.008,-79.125,-10.946,-7.153
1746585922.18,-0.075,-0.084,-0.073,-1.204,-0.399,-0.034,-80.434,-13.272,-8.949
1746585922.19,-0.037,-0.106,-0.013,-1.027,0.037,0.046,-81.694,-15.454,-10.968
1746585922.21,-0.034,-0.099,-0.077,-0.725,0.113,0.022,-82.672,-17.062,-12.694
1746585922.23,-0.008,-0.060,-0.081,-0.453,0.049,0.032,-83.317,-18.422,-14.160
1746585922.25,0.022,0.009,-0.082,-0.183,0.153,-0.033,-83.659,-19.255,-15.084
1746585922.27,-0.001,0.036,-0.179,-0.050,0.326,-0.075,-83.743,-19.968,-16.089
1746585922.29,-0.003,0.009,-0.202,-0.164,0.444,0.056,-83.832,-20.008,-16.579
1746585922.31,0.016,-0.022,-0.074,-0.212,0.338,0.169,-84.105,-19.094,-16.138
1746585922.33,0.028,-0.035,-0.013,0.030,0.100,0.162,-84.277,-17.346,-14.617
1746585922.35,0.032,0.001,-0.020,0.155,0.203,0.090,-84.190,-15.476,-12.896
1746585922.37,0.017,0.000,-0.040,0.016,0.113,0.134,-84.115,-13.847,-11.477
1746585922.39,-0.012,-0.016,-0.036,-0.185,-0.120,0.187,-84.254,-12.327,-9.926
1746585922.41,-0.020,-0.033,0.067,-0.252,-0.163,0.226,-84.566,-10.594,-8.009
1746585922.43,-0.079,-0.005,0.061,-0.155,-0.146,0.155,-84.836,-8.790,-6.024
1746585922.45,-0.144,0.024,0.026,-0.188,-0.213,0.080,-85.034,-7.831,-4.865
1746585922.47,-0.147,0.045,0.022,-0.237,-0.339,0.023,-85.296,-7.873,-4.588
1746585922.49,-0.117,0.048,-0.031,-0.168,-0.324,-0.016,-85.526,-8.785,-5.101
1746585922.51,-0.055,0.007,-0.053,-0.131,-0.116,0.056,-85.689,-9.113,-5.165
1746585922.53,-0.040,0.005,-0.006,-0.113,0.052,0.061,-85.854,-8.425,-4.457
1746585922.55,-0.087,0.019,-0.007,0.081,0.009,-0.022,-85.885,-8.125,-4.197
1746585922.57,-0.130,0.026,-0.024,0.201,0.019,-0.053,-85.702,-8.415,-4.495
1746585922.59,-0.120,0.022,-0.055,0.147,0.179,-0.069,-85.478,-8.855,-5.040
1746585922.61,-0.021,0.007,-0.041,0.091,0.252,-0.046,-85.338,-9.279,-5.736
1746585922.63,0.075,-0.014,0.005,0.064,0.179,0.033,-85.251,-8.991,-5.694
1746585922.65,0.090,-0.035,0.106,0.095,0.120,0.034,-85.173,-8.111,-4.984
1746585922.67,0.033,-0.029,0.078,0.073,-0.129,0.009,-85.068,-7.720,-4.613
1746585922.69,-0.024,-0.006,-0.043,-0.035,-0.411,0.009,-85.044,-7.869,-4.422
1746585922.71,-0.049,0.011,-0.046,-0.108,-0.223,0.005,-85.131,-8.336,-4.488
1746585922.73,-0.063,-0.010,0.067,-0.054,0.078,0.020,-85.240,-8.399,-4.486
1746585922.75,-0.068,-0.015,0.080,0.061,-0.011,0.011,-85.243,-8.067,-4.234
1746585922.77,-0.095,0.012,0.003,0.115,-0.227,-0.019,-85.135,-8.083,-4.087
1746585922.79,-0.070,0.014,0.015,0.115,-0.118,-0.045,-85.004,-8.553,-4.342
1746585922.81,-0.050,0.002,0.022,0.211,-0.022,-0.058,-84.820,-8.980,-4.705
1746585922.83,-0.048,-0.028,0.023,0.377,-0.078,-0.059,-84.489,-9.212,-4.898
1746585922.85,-0.057,-0.024,-0.047,0.530,-0.214,-0.054,-83.956,-9.252,-4.754
1746585922.87,-0.048,-0.002,-0.043,0.531,0.005,-0.045,-83.340,-9.069,-4.423
1746585922.89,-0.037,-0.006,-0.009,0.541,0.282,-0.032,-82.732,-8.505,-4.029
1746585922.91,-0.028,-0.013,0.003,0.644,0.383,-0.070,-82.063,-7.786,-3.708
1746585922.93,-0.036,-0.006,-0.023,0.821,0.295,-0.120,-81.225,-7.399,-3.712
1746585922.95,-0.020,0.002,-0.024,0.919,0.356,-0.156,-80.202,-7.236,-3.898
1746585922.97,-0.009,-0.012,0.051,0.946,0.591,-0.188,-79.133,-7.047,-4.262
1746585922.99,0.002,-0.006,0.001,0.957,0.660,-0.221,-78.005,-6.790,-4.753
1746585923.01,-0.031,-0.014,0.009,0.854,0.336,-0.222,-76.954,-6.820,-5.378
1746585923.03,-0.039,-0.031,0.017,0.888,0.078,-0.140,-75.958,-6.989,-5.792
1746585923.05,-0.022,-0.015,-0.034,0.945,0.032,-0.074,-74.903,-6.896,-5.731
1746585923.07,-0.006,0.021,0.034,1.001,0.027,-0.130,-73.780,-6.754,-5.633
1746585923.09,-0.019,0.049,-0.019,0.945,-0.146,-0.183,-72.645,-6.996,-5.812
1746585923.11,-0.022,0.026,-0.035,0.847,-0.091,-0.187,-71.596,-7.416,-6.095
1746585923.13,-0.018,-0.034,0.007,0.781,0.142,-0.056,-70.670,-7.482,-6.191
1746585923.15,0.053,-0.050,-0.031,0.863,0.374,0.085,-69.741,-6.797,-5.774
1746585923.17,0.091,-0.034,-0.009,0.945,0.357,0.089,-68.722,-5.733,-5.124
1746585923.19,0.032,-0.013,-0.031,0.941,-0.007,-0.019,-67.655,-5.172,-4.744
1746585923.21,-0.023,-0.026,-0.035,0.903,0.007,0.001,-66.582,-5.071,-4.584
1746585923.23,-0.013,-0.049,0.073,0.835,0.244,0.228,-65.625,-4.461,-4.098
1746585923.25,0.041,-0.043,-0.035,0.848,0.232,0.360,-64.682,-3.266,-3.063
1746585923.27,0.049,0.010,0.027,0.835,0.210,0.185,-63.729,-2.206,-2.202
1746585923.29,-0.027,0.013,0.025,1.035,-0.172,0.019,-62.685,-1.946,-1.907
1746585923.31,-0.038,-0.025,-0.048,0.949,-0.026,0.137,-61.502,-1.896,-1.672
1746585923.33,0.010,-0.012,0.066,0.758,0.101,0.305,-60.577,-1.297,-1.071
1746585923.35,0.036,0.045,0.107,0.869,0.100,0.195,-59.672,-0.578,-0.411
1746585923.37,-0.054,0.037,0.060,1.296,-0.221,0.029,-58.435,-0.457,-0.185
1746585923.39,-0.122,-0.045,-0.088,1.249,-0.114,-0.021,-56.939,-0.651,-0.150
1746585923.41,-0.084,-0.076,-0.078,0.974,0.265,0.060,-55.685,-0.569,-0.101
1746585923.43,0.001,-0.062,0.094,0.981,0.340,0.242,-54.587,0.090,0.214
1746585923.45,0.089,-0.030,0.115,1.146,0.197,0.314,-53.374,0.837,0.753
1746585923.47,0.067,0.013,0.011,1.115,0.204,0.307,-52.027,1.436,1.300
1746585923.49,0.119,0.023,0.029,0.973,0.394,0.298,-50.852,2.206,1.788
1746585923.51,0.068,-0.028,-0.019,1.144,0.225,0.292,-49.641,2.898,2.233
1746585923.53,0.003,-0.022,-0.042,1.131,0.157,0.354,-48.277,3.451,2.661
1746585923.55,-0.015,-0.049,-0.008,0.928,-0.102,0.455,-47.095,3.923,3.251
1746585923.57,-0.016,-0.044,0.003,0.948,-0.017,0.394,-46.006,4.240,3.852
1746585923.59,0.008,-0.034,0.099,1.058,0.314,0.294,-44.838,4.768,4.297
1746585923.61,-0.066,-0.020,0.022,1.248,0.019,0.209,-43.493,5.135,4.502
1746585923.63,-0.063,-0.007,-0.070,1.186,0.148,0.367,-42.050,5.314,4.773
1746585923.65,-0.001,0.058,0.037,0.966,0.193,0.406,-40.788,5.869,5.247
1746585923.67,-0.007,0.061,0.068,0.987,0.219,0.290,-39.662,6.327,5.620
1746585923.69,-0.007,0.012,0.116,1.149,0.058,0.184,-38.422,6.594,5.777
1746585923.71,0.040,-0.059,0.029,1.305,0.098,0.179,-36.997,6.731,5.859
1746585923.73,-0.012,-0.066,-0.062,1.234,0.123,0.221,-35.516,6.880,5.975
1746585923.75,-0.071,-0.059,-0.032,1.117,0.132,0.314,-34.151,7.123,6.206
1746585923.77,-0.051,-0.033,-0.020,1.109,0.226,0.142,-32.863,7.390,6.400
1746585923.79,0.054,-0.020,0.034,1.128,0.188,0.076,-31.576,7.611,6.359
1746585923.81,0.050,-0.024,0.081,1.148,0.093,0.207,-30.272,7.738,6.367
1746585923.83,0.015,-0.056,-0.028,1.041,0.185,0.322,-28.972,7.952,6.581
1746585923.85,0.001,-0.039,0.005,1.034,0.146,0.215,-27.773,8.239,6.794
1746585923.87,-0.013,-0.003,0.106,1.166,0.131,0.122,-26.508,8.411,6.807
1746585923.89,-0.037,-0.066,-0.008,1.212,0.124,0.069,-25.138,8.493,6.724
1746585923.91,0.006,0.024,0.060,1.147,0.149,0.193,-23.785,8.639,6.675
1746585923.93,0.043,0.051,0.097,1.070,0.145,0.241,-22.507,8.832,6.779
1746585923.95,-0.002,-0.015,-0.008,1.022,0.292,0.172,-21.295,9.102,6.851
1746585923.97,-0.047,-0.057,0.000,1.123,0.328,0.018,-20.085,9.433,6.775
1746585923.99,-0.069,-0.008,0.087,1.169,0.251,0.066,-18.775,9.678,6.585
1746585924.01,0.007,0.034,0.058,1.055,0.293,0.159,-17.492,9.967,6.504
1746585924.03,-0.027,-0.014,-0.022,1.092,0.348,0.121,-16.275,10.323,6.473
1746585924.05,-0.054,-0.068,0.031,1.244,0.258,-0.127,-14.963,10.615,6.200
1746585924.07,0.036,-0.092,0.083,1.253,0.248,-0.083,-13.582,10.783,5.768
1746585924.09,-0.006,-0.055,-0.062,1.223,0.224,0.039,-12.182,10.936,5.453
1746585924.11,-0.192,0.006,-0.014,1.229,0.417,0.126,-10.805,11.290,5.279
1746585924.13,-0.106,-0.027,-0.046,1.302,0.280,-0.096,-9.367,11.609,4.960
1746585924.15,0.141,-0.077,0.106,1.188,0.232,0.094,-7.973,11.856,4.620
1746585924.17,0.122,-0.049,-0.010,1.162,0.368,0.353,-6.601,12.170,4.571
1746585924.19,-0.104,-0.007,-0.063,1.175,0.388,0.291,-5.204,12.525,4.589
1746585924.21,-0.019,-0.046,0.005,1.157,0.566,0.364,-3.824,13.113,4.628
1746585924.23,-0.054,-0.048,-0.032,1.214,0.365,0.190,-2.449,13.681,4.603
1746585924.25,0.040,-0.032,0.023,1.095,0.088,0.177,-1.097,13.937,4.394
1746585924.27,0.188,-0.061,-0.039,0.987,0.120,0.455,0.109,13.996,4.415
1746585924.29,0.017,0.026,-0.129,0.997,0.453,0.506,1.352,14.310,4.616
1746585924.31,-0.166,-0.019,-0.045,1.021,0.636,0.424,2.607,14.970,4.779
1746585924.33,-0.155,0.033,0.058,1.068,0.615,0.308,3.864,15.715,4.808
1746585924.35,-0.019,0.012,-0.091,1.118,0.303,0.113,5.159,16.262,4.612
1746585924.37,0.120,-0.075,-0.139,1.004,0.122,0.133,6.354,16.498,4.328
1746585924.39,0.074,-0.092,-0.136,0.932,0.258,0.219,7.458,16.724,4.105
1746585924.41,-0.157,0.038,-0.089,0.948,0.526,0.174,8.554,17.200,3.959
1746585924.43,-0.194,0.062,0.003,0.959,0.529,-0.081,9.620,17.892,3.503
1746585924.45,0.099,-0.029,-0.126,0.933,0.289,-0.171,10.600,18.433,2.909
1746585924.47,0.159,-0.059,-0.138,0.858,0.230,-0.036,11.525,18.783,2.373
1746585924.49,-0.040,-0.020,-0.162,0.795,0.356,-0.060,12.414,19.180,1.934
1746585924.51,-0.087,-0.057,-0.097,0.726,0.224,-0.241,13.181,19.642,1.380
1746585924.53,0.183,-0.130,-0.083,0.606,0.070,-0.146,13.806,19.918,0.797
1746585924.55,0.110,-0.049,-0.178,0.492,0.081,-0.100,14.351,20.074,0.371
1746585924.57,0.036,-0.071,-0.216,0.421,0.095,-0.147,14.797,20.265,-0.029
1746585924.59,0.127,-0.145,-0.192,0.174,0.050,-0.141,15.070,20.427,-0.408
1746585924.61,0.194,-0.173,-0.137,-0.124,0.041,-0.029,15.062,20.497,-0.594
1746585924.63,0.144,-0.159,-0.242,-0.359,0.022,0.015,14.788,20.517,-0.577
1746585924.65,0.134,-0.133,-0.344,-0.539,-0.039,-0.001,14.312,20.447,-0.450
1746585924.67,0.071,-0.141,-0.290,-0.739,-0.104,-0.046,13.627,20.305,-0.295
1746585924.69,0.110,-0.122,-0.275,-0.951,-0.184,-0.060,12.698,20.069,-0.065
1746585924.71,0.108,-0.120,-0.269,-1.164,-0.268,-0.079,11.527,19.735,0.232
1746585924.73,0.043,-0.082,-0.315,-1.331,-0.264,-0.155,10.143,19.361,0.547
1746585924.75,0.074,-0.097,-0.186,-1.568,-0.015,-0.121,8.545,19.069,0.873
1746585924.77,0.041,-0.057,-0.148,-1.682,-0.190,-0.071,6.754,18.839,1.349
1746585924.79,0.096,-0.061,-0.241,-1.729,-0.256,-0.098,4.875,18.522,1.860
1746585924.81,0.149,-0.133,-0.122,-1.919,-0.235,-0.050,2.862,18.236,2.416
1746585924.83,0.030,-0.133,-0.126,-2.032,-0.036,-0.034,0.705,18.097,3.098
1746585924.85,-0.052,-0.063,-0.106,-2.047,-0.016,-0.206,-1.562,18.089,3.706
1746585924.87,-0.062,-0.062,-0.068,-1.964,-0.139,-0.445,-3.866,18.011,4.084
1746585924.89,-0.103,-0.106,-0.114,-1.822,-0.325,-0.692,-6.122,17.747,4.138
1746585924.91,-0.134,-0.122,-0.073,-1.721,-0.358,-0.826,-8.316,17.319,3.951
1746585924.93,-0.090,-0.142,-0.043,-1.670,-0.439,-0.931,-10.458,16.787,3.590
1746585924.95,-0.037,-0.176,0.058,-1.637,-0.452,-0.946,-12.582,16.168,3.074
1746585924.96,0.075,-0.211,0.025,-1.691,-0.459,-0.789,-14.662,15.557,2.638
1746585924.98,0.100,-0.135,0.043,-1.829,-0.339,-0.630,-16.819,15.008,2.387
1746585925.00,0.113,-0.082,0.101,-1.855,-0.238,-0.580,-19.038,14.659,2.259
1746585925.02,0.106,-0.142,0.041,-1.797,-0.244,-0.528,-21.212,14.360,2.162
1746585925.04,0.079,-0.173,0.038,-1.817,-0.225,-0.480,-23.332,14.061,2.099
1746585925.06,0.097,-0.158,0.083,-1.959,-0.256,-0.383,-25.565,13.792,2.141
1746585925.08,0.118,-0.109,0.136,-1.880,-0.201,-0.266,-27.803,13.614,2.396
1746585925.10,0.061,-0.036,0.056,-1.742,-0.348,-0.335,-29.873,13.426,2.578
1746585925.12,0.034,-0.009,-0.010,-1.729,-0.356,-0.422,-31.896,13.015,2.613
1746585925.14,0.040,-0.053,-0.004,-1.690,-0.388,-0.514,-33.928,12.547,2.513
1746585925.16,0.008,-0.092,0.004,-1.602,-0.659,-0.602,-35.889,11.796,2.236
1746585925.18,0.000,-0.081,0.030,-1.579,-0.704,-0.606,-37.810,10.740,1.820
1746585925.20,0.020,-0.067,0.066,-1.551,-0.681,-0.539,-39.684,9.696,1.405
1746585925.22,0.025,-0.066,0.055,-1.394,-0.646,-0.579,-41.462,8.659,0.949
1746585925.24,-0.018,-0.084,-0.053,-1.347,-0.719,-0.666,-43.082,7.404,0.279
1746585925.26,-0.009,-0.105,-0.034,-1.556,-0.442,-0.590,-44.803,6.204,-0.466
1746585925.28,0.015,-0.122,0.043,-1.676,-0.365,-0.444,-46.727,5.386,-1.036
1746585925.30,0.011,-0.114,0.053,-1.500,-0.613,-0.403,-48.591,4.502,-1.409
1746585925.32,0.068,-0.098,0.024,-1.234,-0.717,-0.533,-50.168,3.232,-2.056
1746585925.34,0.127,-0.104,-0.009,-1.321,-0.689,-0.664,-51.626,1.648,-3.051
1746585925.36,0.097,-0.114,0.044,-1.438,-0.774,-0.641,-53.221,-0.146,-4.270
1746585925.38,0.058,-0.101,-0.029,-1.448,-0.781,-0.480,-54.857,-1.983,-5.425
1746585925.40,0.050,-0.069,-0.034,-1.513,-0.602,-0.348,-56.523,-3.572,-6.390
1746585925.42,0.017,-0.064,0.074,-1.606,-0.554,-0.327,-58.279,-5.031,-7.338
1746585925.44,0.010,-0.088,0.121,-1.453,-0.505,-0.340,-59.997,-6.562,-8.431
1746585925.46,0.020,-0.083,0.006,-1.294,-0.566,-0.224,-61.485,-8.120,-9.527
1746585925.48,0.059,-0.065,0.000,-1.436,-0.482,0.085,-62.999,-9.349,-10.217
1746585925.50,0.061,-0.066,0.088,-1.678,-0.419,0.439,-64.786,-9.847,-10.217
1746585925.52,0.046,-0.070,0.089,-1.716,-0.485,0.642,-66.854,-9.700,-9.484
1746585925.54,-0.050,-0.049,0.012,-1.427,-0.627,0.458,-68.732,-9.449,-8.550
1746585925.56,-0.129,0.000,-0.052,-1.328,-0.772,0.104,-70.314,-10.167,-8.437
1746585925.58,-0.114,-0.038,0.022,-1.428,-0.642,0.036,-71.855,-11.730,-9.212
1746585925.60,-0.078,-0.062,0.040,-1.389,-0.291,0.094,-73.472,-13.149,-10.136
1746585925.62,-0.074,-0.026,-0.025,-1.129,-0.111,0.100,-74.895,-14.187,-11.003
1746585925.64,-0.047,-0.019,-0.006,-0.917,-0.123,0.179,-76.053,-14.881,-11.589
1746585925.66,-0.049,-0.065,0.043,-0.825,-0.141,0.256,-77.079,-15.071,-11.626
1746585925.68,-0.091,-0.076,0.009,-0.759,-0.121,0.239,-78.014,-15.003,-11.402
1746585925.70,-0.074,-0.047,-0.034,-0.911,-0.041,0.254,-78.995,-15.014,-11.319
1746585925.72,-0.019,-0.037,-0.001,-0.982,-0.136,0.398,-80.151,-14.700,-10.912
1746585925.74,0.030,0.005,0.019,-0.939,-0.049,0.502,-81.348,-13.367,-9.421
1746585925.76,0.045,0.013,0.050,-0.702,0.098,0.402,-82.396,-11.008,-7.078
1746585925.78,0.012,0.008,0.008,-0.564,0.208,0.225,-83.148,-9.080,-5.314
1746585925.80,0.000,-0.025,0.017,-0.593,0.198,0.236,-83.823,-7.576,-4.043
1746585925.82,-0.017,-0.040,0.025,-0.670,0.134,0.343,-84.586,-4.864,-1.513
1746585925.84,-0.056,-0.029,0.013,-0.615,0.037,0.360,-85.348,-0.501,2.778
1746585925.86,-0.083,-0.034,0.036,-0.441,0.032,0.266,-85.952,4.695,7.951
1746585925.88,-0.152,-0.004,-0.035,-0.151,-0.085,0.130,-86.259,8.589,11.863
1746585925.90,-0.200,0.064,-0.098,-0.113,-0.154,0.046,-86.353,10.081,13.534
1746585925.92,-0.131,0.065,0.034,-0.237,0.027,0.018,-86.557,11.252,14.772
1746585925.94,-0.078,0.010,0.056,-0.117,0.063,-0.007,-86.776,12.186,15.644
1746585925.96,-0.044,-0.034,0.071,0.107,0.029,-0.015,-86.779,12.046,15.453
1746585925.98,-0.067,-0.003,0.019,0.202,-0.037,-0.031,-86.598,11.001,14.416
1746585926.00,-0.090,0.050,-0.066,0.187,0.094,-0.079,-86.389,9.361,12.760
1746585926.02,-0.040,0.036,-0.062,0.142,0.283,-0.050,-86.221,7.852,11.017
1746585926.04,0.028,-0.004,-0.022,0.128,0.157,0.004,-86.077,7.495,10.375
1746585926.06,0.028,-0.002,-0.005,0.063,-0.064,-0.024,-85.963,7.189,10.034
1746585926.08,0.022,-0.027,0.020,-0.019,-0.077,-0.028,-85.947,6.476,9.424
1746585926.10,0.042,-0.049,0.045,-0.004,0.036,0.035,-85.963,6.466,9.432
1746585926.12,0.017,-0.016,0.015,-0.019,-0.051,0.090,-85.955,7.601,10.564
1746585926.14,-0.046,0.032,-0.062,-0.070,-0.203,0.029,-85.995,8.647,11.752
1746585926.16,-0.079,0.025,-0.089,-0.054,-0.135,-0.012,-86.071,8.590,11.927
1746585926.18,-0.057,-0.010,0.000,0.023,0.043,0.001,-86.095,8.598,11.965
1746585926.20,-0.045,-0.008,0.015,0.096,-0.013,-0.034,-86.027,8.275,11.609
1746585926.22,-0.053,-0.010,-0.028,0.099,-0.120,-0.053,-85.911,7.198,10.616
1746585926.24,-0.050,-0.015,-0.056,0.102,-0.053,-0.056,-85.806,5.950,9.481
1746585926.26,-0.021,-0.025,0.000,0.156,0.108,-0.051,-85.666,4.899,8.394
1746585926.28,0.005,-0.032,0.056,0.247,0.084,-0.054,-85.447,3.995,7.353
1746585926.30,-0.006,-0.028,0.019,0.338,-0.165,-0.070,-85.115,2.837,6.233
1746585926.32,-0.025,0.001,-0.030,0.384,-0.269,-0.097,-84.696,1.271,4.935
1746585926.34,-0.025,0.024,-0.000,0.340,-0.188,-0.118,-84.277,-0.325,3.595
1746585926.36,-0.019,0.027,0.035,0.285,-0.143,-0.151,-83.927,-1.924,2.174
1746585926.38,-0.029,-0.001,0.067,0.362,-0.112,-0.196,-83.567,-3.719,0.507
1746585926.40,-0.053,-0.018,0.049,0.570,-0.069,-0.215,-83.020,-5.487,-1.163
1746585926.42,-0.072,-0.026,0.068,0.769,0.012,-0.216,-82.232,-6.774,-2.421
1746585926.44,-0.100,-0.012,0.048,0.906,0.075,-0.249,-81.236,-7.655,-3.372
1746585926.46,-0.148,0.019,-0.005,0.916,-0.025,-0.301,-80.156,-8.617,-4.388
1746585926.48,-0.173,0.019,-0.052,0.903,-0.086,-0.316,-79.071,-9.732,-5.428
1746585926.50,-0.128,-0.013,0.047,0.943,0.455,-0.302,-77.981,-10.372,-6.250
1746585926.52,-0.072,0.010,0.096,1.048,0.868,-0.262,-76.806,-10.096,-6.786
1746585926.54,-0.040,0.019,0.071,1.166,0.822,-0.257,-75.519,-9.408,-7.117
1746585926.56,-0.037,-0.005,-0.031,1.186,0.347,-0.198,-74.120,-8.881,-7.291
1746585926.58,0.010,-0.016,-0.095,1.003,0.256,-0.182,-72.853,-8.686,-7.340
1746585926.60,0.103,-0.009,0.101,0.999,0.837,-0.180,-71.717,-8.210,-7.510
1746585926.62,0.114,0.001,0.060,1.073,0.439,-0.060,-70.518,-7.318,-7.457
1746585926.64,0.045,-0.017,-0.139,1.058,-0.099,0.062,-69.306,-6.768,-6.995
1746585926.66,-0.017,-0.057,-0.031,1.015,0.074,0.029,-68.130,-6.301,-6.447
1746585926.68,-0.031,-0.058,0.020,0.978,0.141,0.060,-67.000,-5.798,-6.043
1746585926.70,0.038,-0.020,0.007,1.075,0.290,0.133,-65.871,-4.993,-5.466
1746585926.72,-0.007,0.033,-0.087,1.201,0.164,0.103,-64.570,-4.223,-4.899
1746585926.74,-0.061,-0.006,0.001,1.013,0.190,0.153,-63.288,-3.574,-4.398
1746585926.76,-0.056,-0.066,0.076,0.918,0.281,0.312,-62.243,-2.688,-3.686
1746585926.78,0.065,-0.073,0.064,1.011,0.408,0.438,-61.148,-1.392,-2.686
1746585926.80,0.172,-0.044,0.062,1.297,0.258,0.522,-59.847,-0.008,-1.539
1746585926.82,0.180,0.022,0.018,1.236,0.192,0.348,-58.369,1.132,-0.539
1746585926.84,-0.009,-0.018,-0.018,1.218,-0.302,0.202,-56.988,1.468,-0.065
1746585926.86,-0.052,-0.098,-0.119,1.188,-0.263,0.305,-55.580,1.481,0.385
1746585926.88,-0.048,-0.080,0.015,1.072,-0.256,0.308,-54.306,1.658,0.957
1746585926.90,0.003,-0.027,0.087,1.342,-0.223,0.205,-52.932,1.744,1.384
1746585926.92,-0.038,-0.004,0.071,1.449,-0.295,0.208,-51.313,1.668,1.669
1746585926.94,-0.031,-0.006,-0.066,1.410,0.030,0.223,-49.663,1.727,1.986
1746585926.96,0.006,-0.034,-0.049,1.193,0.010,0.310,-48.169,2.080,2.412
1746585926.98,0.060,-0.079,0.037,1.127,-0.073,0.353,-46.850,2.410,2.932
1746585927.00,0.058,-0.032,0.126,1.327,-0.009,0.199,-45.448,2.632,3.301
1746585927.02,0.030,0.017,0.025,1.402,0.196,0.145,-43.860,2.808,3.491
1746585927.04,-0.069,0.033,-0.032,1.256,0.165,0.264,-42.327,3.199,3.763
1746585927.06,-0.077,-0.030,-0.026,1.117,0.187,0.364,-40.965,3.644,4.249
1746585927.08,0.034,0.018,0.079,1.134,0.267,0.237,-39.671,4.101,4.671
1746585927.10,0.093,0.001,0.136,1.372,0.391,0.116,-38.255,4.556,4.808
1746585927.12,0.063,-0.044,-0.071,1.470,0.400,0.037,-36.585,5.022,4.725
1746585927.14,0.031,0.023,-0.024,1.143,0.392,0.220,-35.091,5.414,4.776
1746585927.16,0.028,0.090,0.103,1.066,0.432,0.418,-33.824,6.107,5.145
1746585927.18,-0.042,0.025,0.093,1.173,0.337,0.340,-32.504,6.721,5.565
1746585927.20,0.051,-0.061,0.143,1.347,0.437,0.308,-31.045,7.276,5.806
1746585927.22,0.070,-0.120,-0.023,1.258,0.305,0.372,-29.467,7.828,6.062
1746585927.24,-0.052,-0.067,-0.155,0.909,0.381,0.477,-28.180,8.356,6.456
1746585927.26,-0.023,0.055,0.071,0.989,0.412,0.366,-27.084,9.036,6.873
1746585927.28,-0.045,0.010,0.110,1.292,0.080,0.144,-25.733,9.332,6.986
1746585927.30,-0.011,-0.115,0.094,1.294,0.012,0.167,-24.231,9.332,6.937
1746585927.32,-0.090,-0.075,-0.072,1.250,0.002,0.233,-22.758,9.329,6.987
1746585927.34,-0.219,0.060,-0.101,1.200,0.343,0.179,-21.349,9.491,7.021
1746585927.36,-0.013,0.089,0.127,1.277,0.304,0.086,-19.950,9.900,6.944
1746585927.38,0.087,-0.015,0.150,1.289,0.099,0.046,-18.492,10.037,6.756
1746585927.40,0.114,-0.162,0.062,1.266,0.085,0.121,-17.032,10.079,6.595
1746585927.42,-0.094,-0.096,-0.120,1.274,0.166,0.163,-15.564,10.145,6.512
1746585927.44,-0.057,0.104,0.004,1.200,0.215,0.213,-14.140,10.411,6.477
1746585927.46,0.036,-0.030,0.009,1.234,0.205,0.220,-12.733,10.639,6.494
1746585927.48,0.061,-0.110,0.103,1.199,0.227,0.263,-11.317,10.881,6.528
1746585927.50,0.053,-0.154,0.086,1.244,0.332,0.299,-9.897,11.226,6.578
1746585927.52,-0.056,-0.053,-0.059,1.240,0.253,0.342,-8.439,11.617,6.675
1746585927.54,-0.008,0.049,-0.160,1.268,0.139,0.324,-6.952,11.825,6.745
1746585927.56,-0.010,-0.038,-0.008,1.226,0.199,0.287,-5.473,12.002,6.787
1746585927.58,-0.057,-0.059,0.134,1.160,0.336,0.258,-4.082,12.318,6.808
1746585927.60,-0.121,0.004,0.004,1.179,0.306,0.143,-2.731,12.716,6.719
1746585927.62,-0.042,0.037,-0.217,1.183,0.134,0.088,-1.384,12.964,6.509
1746585927.64,0.040,-0.016,-0.191,1.210,0.180,0.102,-0.021,13.114,6.295
1746585927.66,0.014,-0.034,-0.028,1.232,0.320,0.075,1.353,13.395,6.028
1746585927.68,-0.103,0.048,0.071,1.183,0.546,0.046,2.721,13.878,5.749
1746585927.70,-0.169,0.121,0.057,1.243,0.409,0.020,4.078,14.502,5.427
1746585927.72,-0.042,0.057,-0.200,1.289,0.239,-0.179,5.447,14.930,4.903
1746585927.74,0.170,-0.066,-0.201,1.208,0.125,-0.105,6.789,15.152,4.288
1746585927.76,0.115,-0.088,-0.053,1.077,0.320,0.034,8.033,15.448,3.851
1746585927.78,-0.073,-0.061,-0.001,0.917,0.475,0.011,9.132,15.947,3.498
1746585927.79,-0.043,0.027,-0.027,0.913,0.491,0.041,10.142,16.575,3.172
1746585927.81,-0.033,0.057,-0.135,0.915,0.378,-0.025,11.151,17.137,2.804
1746585927.83,0.138,-0.042,-0.130,0.824,0.273,0.006,12.096,17.576,2.402
1746585927.85,0.184,-0.165,-0.078,0.663,0.288,0.110,12.933,17.915,2.132
1746585927.87,0.068,-0.137,-0.064,0.571,0.398,0.101,13.644,18.336,1.968
1746585927.89,-0.089,-0.083,-0.078,0.516,0.358,-0.011,14.236,18.815,1.746
1746585927.91,0.045,-0.082,-0.143,0.427,0.087,-0.076,14.741,19.132,1.416
1746585927.93,0.177,-0.152,-0.197,0.262,-0.013,-0.044,15.074,19.205,1.131
1746585927.95,0.121,-0.166,-0.274,0.109,0.024,-0.013,15.278,19.234,0.959
1746585927.97,0.007,-0.164,-0.209,-0.102,0.110,-0.056,15.275,19.323,0.856
1746585927.99,0.032,-0.140,-0.227,-0.309,0.144,-0.110,15.013,19.479,0.771
1746585928.01,0.150,-0.166,-0.298,-0.537,-0.006,-0.190,14.509,19.589,0.702
1746585928.03,0.232,-0.156,-0.303,-0.761,-0.171,-0.129,13.744,19.460,0.711
1746585928.05,0.085,-0.110,-0.259,-0.981,-0.152,-0.092,12.762,19.208,0.888
1746585928.07,0.004,-0.099,-0.257,-1.125,-0.133,-0.115,11.582,18.990,1.132
1746585928.09,0.010,-0.071,-0.188,-1.231,-0.160,-0.199,10.251,18.782,1.356
1746585928.11,0.078,-0.059,-0.220,-1.328,-0.291,-0.157,8.797,18.479,1.594
1746585928.13,0.112,-0.092,-0.156,-1.458,-0.375,-0.183,7.233,18.047,1.890
1746585928.15,0.062,-0.141,-0.145,-1.555,-0.423,-0.256,5.513,17.538,2.152
1746585928.17,-0.073,-0.086,-0.148,-1.640,-0.374,-0.356,3.673,17.072,2.355
1746585928.19,-0.114,-0.037,-0.177,-1.651,-0.298,-0.409,1.740,16.695,2.474
1746585928.21,0.052,-0.061,-0.068,-1.674,-0.302,-0.453,-0.222,16.356,2.548
1746585928.23,0.071,-0.141,0.005,-1.724,-0.317,-0.451,-2.219,16.005,2.611
1746585928.25,-0.033,-0.092,-0.021,-1.726,-0.274,-0.480,-4.273,15.665,2.667
1746585928.27,-0.041,-0.084,-0.103,-1.720,-0.290,-0.465,-6.313,15.347,2.701
1746585928.29,0.069,-0.115,-0.013,-1.679,-0.265,-0.413,-8.323,15.024,2.780
1746585928.31,0.026,-0.167,0.065,-1.660,-0.215,-0.434,-10.285,14.746,2.851
1746585928.33,-0.026,-0.151,0.037,-1.612,-0.254,-0.467,-12.231,14.510,2.881
1746585928.35,-0.016,-0.135,-0.011,-1.589,-0.332,-0.427,-14.121,14.127,2.889
1746585928.37,0.052,-0.058,0.038,-1.605,-0.286,-0.381,-16.015,13.775,2.941
1746585928.39,0.042,-0.080,0.045,-1.464,-0.331,-0.406,-17.823,13.426,2.989
1746585928.41,0.021,-0.141,0.024,-1.497,-0.383,-0.452,-19.573,12.972,3.007
1746585928.43,0.046,-0.190,0.060,-1.511,-0.374,-0.392,-21.368,12.513,2.964
1746585928.45,0.053,-0.200,-0.069,-1.586,-0.334,-0.353,-23.157,12.071,2.945
1746585928.47,0.058,-0.088,-0.007,-1.662,-0.222,-0.330,-25.076,11.773,3.015
1746585928.49,0.106,-0.067,-0.032,-1.601,-0.375,-0.370,-26.981,11.451,3.087
1746585928.51,0.078,-0.099,0.066,-1.461,-0.645,-0.441,-28.800,10.809,3.030
1746585928.53,0.042,-0.183,0.003,-1.343,-0.800,-0.400,-30.439,9.819,2.845
1746585928.55,0.074,-0.181,-0.018,-1.557,-0.444,-0.337,-32.115,9.034,2.705
1746585928.57,0.025,-0.154,-0.040,-1.840,-0.442,-0.329,-34.116,8.501,2.718
1746585928.59,-0.007,-0.125,0.014,-1.735,-0.488,-0.417,-36.218,7.900,2.636
1746585928.61,-0.023,-0.062,-0.007,-1.585,-0.665,-0.509,-38.152,7.023,2.335
1746585928.63,0.055,0.008,-0.033,-1.669,-0.614,-0.465,-40.040,5.980,1.933
1746585928.65,0.124,0.014,0.083,-1.757,-0.605,-0.339,-42.053,5.078,1.695
1746585928.67,0.082,-0.003,0.043,-1.560,-0.703,-0.340,-43.984,4.119,1.398
1746585928.69,-0.003,-0.035,0.009,-1.434,-0.785,-0.466,-45.702,2.921,0.901
1746585928.71,-0.026,-0.092,0.004,-1.591,-0.750,-0.505,-47.425,1.474,0.214
1746585928.73,0.043,-0.134,0.090,-1.882,-0.538,-0.368,-49.414,0.202,-0.521
1746585928.75,0.114,-0.149,0.134,-1.935,-0.545,-0.154,-51.625,-0.770,-0.953
1746585928.77,0.083,-0.099,0.043,-1.752,-0.528,-0.145,-53.731,-1.639,-1.222
1746585928.79,0.014,-0.021,0.045,-1.733,-0.480,-0.301,-55.684,-2.686,-1.733
1746585928.81,-0.027,-0.005,0.166,-1.759,-0.388,-0.472,-57.666,-4.016,-2.705
1746585928.83,-0.051,-0.019,0.092,-1.606,-0.448,-0.506,-59.539,-5.700,-4.126
1746585928.85,-0.012,-0.030,0.002,-1.492,-0.462,-0.302,-61.235,-7.438,-5.496
1746585928.87,0.018,-0.069,0.051,-1.488,-0.309,-0.020,-62.891,-8.660,-6.401
1746585928.89,0.011,-0.116,0.033,-1.595,-0.453,0.252,-64.638,-9.371,-6.715
1746585928.91,-0.002,-0.132,0.033,-1.707,-0.398,0.421,-66.570,-9.714,-6.535
1746585928.93,-0.036,-0.120,0.089,-1.688,-0.338,0.455,-68.591,-9.683,-6.065
1746585928.95,-0.060,-0.042,0.031,-1.448,-0.327,0.354,-70.433,-9.647,-5.606
1746585928.97,-0.057,0.033,0.052,-1.384,-0.296,0.255,-72.071,-9.786,-5.394
1746585928.99,-0.051,0.065,0.044,-1.397,-0.247,0.202,-73.676,-10.191,-5.465
1746585929.01,-0.013,0.076,0.012,-1.388,-0.014,0.169,-75.278,-10.623,-5.767
1746585929.03,0.009,0.037,0.023,-1.423,-0.058,0.201,-76.896,-11.009,-6.164
1746585929.05,0.014,-0.037,-0.033,-1.332,-0.198,0.288,-78.505,-11.360,-6.352
1746585929.07,-0.014,-0.125,0.008,-1.227,-0.212,0.354,-79.993,-11.168,-5.922
1746585929.09,-0.045,-0.125,-0.033,-1.277,-0.205,0.401,-81.484,-10.450,-4.936
1746585929.11,-0.089,-0.105,-0.087,-1.234,0.131,0.473,-82.985,-8.742,-3.135
1746585929.13,-0.100,-0.088,0.007,-0.970,0.396,0.422,-84.322,-4.999,0.289
1746585929.15,-0.144,-0.025,-0.033,-0.685,0.410,0.206,-85.277,-1.049,3.778
1746585929.17,-0.138,-0.004,-0.064,-0.515,0.266,0.043,-85.936,0.870,5.305
1746585929.19,-0.082,0.008,-0.043,-0.550,0.309,0.108,-86.540,2.529,6.672
1746585929.21,-0.013,0.048,-0.093,-0.749,0.708,0.248,-87.237,8.202,11.763
1746585929.23,0.057,0.066,-0.250,-0.480,0.875,0.221,-87.886,19.301,21.869
1746585929.25,0.094,-0.061,-0.053,-0.057,-0.520,0.364,-88.019,31.215,33.537
1746585929.27,0.120,-0.140,0.158,-0.047,-0.756,0.528,-87.694,41.643,44.929
1746585929.29,0.010,-0.006,0.136,-0.532,0.411,0.481,-87.474,56.769,60.202
1746585929.31,-0.137,0.078,-0.072,-0.428,0.215,0.272,-87.320,73.500,76.492
1746585929.33,-0.146,0.056,-0.012,-0.187,-0.180,0.144,-87.180,80.978,84.019
1746585929.35,-0.152,0.023,0.084,-0.249,-0.110,0.070,-87.073,85.788,89.016
1746585929.37,-0.171,0.039,-0.045,-0.175,-0.218,-0.086,-87.102,90.897,94.289
1746585929.39,-0.005,0.043,-0.115,-0.119,-0.268,-0.075,-87.200,93.583,97.288
1746585929.41,0.094,-0.013,0.028,-0.136,-0.258,0.041,-87.210,96.417,100.413
1746585929.43,0.063,-0.044,0.068,-0.112,-0.164,0.126,-87.090,98.708,102.977
1746585929.45,-0.069,0.021,-0.119,-0.055,-0.062,0.089,-86.936,99.965,104.321
1746585929.47,-0.213,0.065,-0.112,-0.032,-0.295,-0.050,-86.904,100.659,105.230
1746585929.49,-0.143,0.025,0.084,0.062,-0.066,-0.096,-87.006,100.578,105.403
1746585929.51,-0.012,-0.003,0.099,0.152,0.409,-0.006,-87.086,98.356,102.981
1746585929.53,0.052,-0.001,0.006,0.090,0.338,0.024,-87.086,96.135,100.247
1746585929.55,0.009,-0.025,0.028,0.053,0.072,0.013,-87.075,94.767,98.686
1746585929.57,-0.011,-0.029,0.021,0.112,0.176,0.046,-87.051,93.327,97.112
1746585929.59,-0.013,0.006,-0.061,0.245,0.213,0.062,-86.991,89.504,93.041
1746585929.61,-0.025,0.046,-0.063,0.199,0.027,0.005,-86.930,84.695,88.077
1746585929.63,-0.021,0.036,0.015,0.145,-0.140,-0.069,-86.948,81.157,84.608
1746585929.65,-0.033,-0.008,0.057,0.248,-0.153,-0.095,-87.004,76.694,80.325
1746585929.67,-0.060,-0.024,0.049,0.346,-0.011,-0.063,-86.993,69.631,73.349
1746585929.69,-0.080,-0.007,0.030,0.309,0.080,-0.015,-86.877,62.861,66.521
1746585929.71,-0.066,-0.014,0.033,0.345,0.131,-0.019,-86.713,57.246,60.780
1746585929.73,-0.038,-0.032,0.039,0.463,0.230,-0.012,-86.459,50.987,54.308
1746585929.75,-0.036,-0.026,0.025,0.540,0.285,-0.007,-86.071,44.599,47.600
1746585929.77,-0.054,-0.001,-0.012,0.551,0.180,-0.038,-85.623,38.913,41.619
1746585929.79,-0.055,0.004,-0.026,0.613,0.001,-0.066,-85.125,33.561,36.147
1746585929.81,-0.041,-0.014,0.014,0.711,-0.080,-0.092,-84.528,28.378,31.001
1746585929.83,-0.048,-0.014,0.030,0.842,-0.090,-0.116,-83.778,23.437,26.123
1746585929.85,-0.087,-0.008,-0.004,0.866,-0.155,-0.127,-82.911,19.089,21.899
1746585929.87,-0.075,-0.016,0.002,0.842,-0.049,-0.123,-82.029,15.745,18.655
1746585929.89,-0.036,-0.032,0.017,0.963,0.108,-0.162,-81.080,13.046,15.890
1746585929.91,-0.018,-0.020,0.022,1.091,0.194,-0.228,-79.959,10.465,13.084
1746585929.93,-0.022,-0.004,0.050,0.916,0.139,-0.261,-78.864,8.132,10.515
1746585929.95,-0.005,-0.003,0.030,0.813,0.092,-0.172,-77.941,6.434,8.653
1746585929.97,0.026,-0.015,0.026,0.948,0.169,-0.110,-76.968,5.448,7.492
1746585929.99,-0.003,-0.002,0.003,1.124,-0.062,-0.129,-75.796,4.600,6.505
1746585930.01,-0.047,-0.004,-0.108,1.286,-0.680,-0.198,-74.434,3.130,5.420
1746585930.03,-0.026,-0.015,-0.124,1.230,-0.701,-0.287,-72.995,1.136,4.232
1746585930.05,0.024,-0.013,-0.077,1.183,-0.249,-0.254,-71.616,-0.489,3.145
1746585930.07,0.024,-0.018,0.035,1.076,0.152,-0.143,-70.328,-1.086,2.501
1746585930.09,0.010,-0.008,0.013,1.100,-0.039,0.023,-69.083,-1.139,2.356
1746585930.11,0.042,-0.007,0.034,1.050,-0.079,0.152,-67.863,-0.905,2.720
1746585930.13,0.031,-0.040,0.028,1.054,0.129,0.102,-66.666,-0.444,3.175
1746585930.15,0.005,-0.054,0.045,1.096,0.007,0.073,-65.448,-0.145,3.384
1746585930.17,0.066,-0.023,0.030,1.186,0.197,0.233,-64.133,0.286,3.802
1746585930.19,0.089,0.045,0.100,1.206,-0.001,0.196,-62.751,0.971,4.370
1746585930.21,-0.033,0.039,-0.017,1.153,-0.432,0.161,-61.414,0.982,4.709
1746585930.23,-0.034,-0.025,-0.034,0.904,0.057,0.272,-60.207,1.125,5.159
1746585930.25,0.061,-0.028,0.096,0.740,0.063,0.395,-59.292,1.836,5.892
1746585930.27,0.148,0.090,0.190,1.145,0.474,0.310,-58.219,2.761,6.620
1746585930.29,-0.067,0.146,0.077,1.119,0.556,0.091,-56.883,3.656,6.898
1746585930.31,-0.243,-0.002,-0.149,0.991,0.172,0.166,-55.664,4.078,6.969
1746585930.33,-0.024,-0.061,0.011,0.938,0.254,0.237,-54.578,4.589,7.266
1746585930.35,0.065,-0.038,0.025,1.197,0.146,0.040,-53.361,4.915,7.389
1746585930.37,0.089,-0.013,0.022,1.331,0.289,-0.087,-51.894,4.924,7.099
1746585930.39,0.021,-0.014,0.005,1.289,0.093,0.020,-50.403,4.933,6.809
1746585930.41,0.015,-0.041,-0.140,1.030,0.088,0.227,-49.033,5.004,6.837
1746585930.43,0.137,-0.104,0.028,0.807,0.132,0.302,-48.005,5.445,7.193
1746585930.45,0.095,-0.081,0.073,1.094,0.070,0.190,-46.931,5.746,7.460
1746585930.47,0.009,-0.039,0.019,1.345,0.035,0.146,-45.497,5.837,7.493
1746585930.49,0.005,-0.056,-0.057,1.232,0.050,0.370,-43.979,6.016,7.757
1746585930.51,-0.032,-0.018,-0.079,0.957,0.132,0.427,-42.689,6.419,8.296
1746585930.53,-0.070,-0.064,0.031,0.983,-0.079,0.405,-41.558,6.799,8.815
1746585930.55,-0.028,-0.068,0.064,1.085,0.112,0.268,-40.335,6.962,9.222
1746585930.57,0.060,-0.013,0.056,1.332,0.211,0.213,-38.942,7.248,9.403
1746585930.59,-0.019,-0.015,-0.119,1.156,0.216,0.300,-37.436,7.565,9.549
1746585930.61,-0.081,0.011,0.008,0.861,0.319,0.382,-36.281,8.076,9.898
1746585930.63,-0.079,0.006,0.004,0.864,0.231,0.362,-35.264,8.563,10.319
1746585930.65,-0.040,-0.000,0.099,1.041,0.240,0.250,-34.142,8.979,10.572
1746585930.67,-0.024,-0.053,0.058,1.273,0.162,0.181,-32.794,9.245,10.649
1746585930.68,-0.075,-0.143,-0.086,1.123,0.126,0.167,-31.371,9.385,10.649
1746585930.70,-0.088,-0.093,-0.056,0.931,0.081,0.123,-30.228,9.495,10.653
1746585930.72,-0.078,0.002,0.004,1.069,0.091,0.134,-29.088,9.565,10.626
1746585930.74,-0.027,-0.015,0.118,1.189,0.103,0.105,-27.782,9.646,10.563
1746585930.76,0.086,-0.064,0.053,1.131,0.167,0.133,-26.448,9.725,10.470
1746585930.78,0.045,-0.102,-0.122,1.015,0.219,0.180,-25.196,9.921,10.473
1746585930.80,-0.031,0.004,0.024,0.947,0.201,0.147,-24.076,10.188,10.455
1746585930.82,0.052,0.063,0.095,1.007,0.175,0.104,-22.961,10.399,10.397
1746585930.84,0.052,-0.055,0.120,1.086,0.085,0.129,-21.759,10.491,10.308
1746585930.86,0.046,-0.129,-0.013,1.072,0.173,0.232,-20.498,10.632,10.283
1746585930.88,-0.043,-0.068,-0.136,0.972,0.244,0.273,-19.309,10.880,10.361
1746585930.90,0.056,0.041,0.093,0.977,0.232,0.223,-18.162,11.213,10.451
1746585930.92,0.086,0.042,0.058,1.023,0.079,0.280,-16.971,11.401,10.504
1746585930.94,0.010,-0.044,0.050,0.964,0.074,0.212,-15.804,11.500,10.566
1746585930.96,-0.006,-0.099,-0.031,1.035,0.127,0.110,-14.655,11.632,10.509
1746585930.98,0.011,0.040,-0.055,1.106,-0.095,0.098,-13.435,11.623,10.348
1746585931.00,0.043,0.018,0.012,1.160,-0.172,0.144,-12.139,11.422,10.202
1746585931.02,0.002,-0.071,0.056,1.198,-0.111,0.169,-10.774,11.245,10.091
1746585931.04,-0.044,-0.057,0.023,1.185,-0.008,0.121,-9.408,11.141,9.942
1746585931.06,-0.084,0.029,0.036,1.111,0.060,0.157,-8.099,11.208,9.811
1746585931.08,-0.012,0.047,-0.062,1.115,0.102,0.173,-6.809,11.273,9.695
1746585931.10,0.036,0.016,-0.050,1.094,0.185,0.226,-5.540,11.420,9.637
1746585931.12,-0.070,-0.030,-0.047,1.063,0.210,0.100,-4.289,11.659,9.531
1746585931.14,-0.033,-0.017,-0.013,1.029,0.243,0.121,-3.095,11.907,9.369
1746585931.16,0.048,0.070,-0.019,0.932,0.320,0.197,-1.952,12.218,9.295
1746585931.18,-0.021,0.015,-0.089,0.920,0.359,0.215,-0.878,12.602,9.248
1746585931.20,-0.054,-0.034,-0.080,0.910,0.529,0.252,0.197,13.132,9.213
1746585931.22,-0.063,-0.036,-0.116,0.906,0.513,0.198,1.280,13.742,9.159
1746585931.24,-0.050,0.007,-0.027,0.906,0.394,0.124,2.315,14.262,9.023
1746585931.26,0.012,0.035,-0.063,0.871,0.142,0.083,3.330,14.563,8.814
1746585931.28,0.055,-0.007,-0.082,0.821,0.054,0.074,4.295,14.662,8.571
1746585931.30,0.052,-0.073,-0.074,0.782,0.245,0.135,5.205,14.827,8.390
1746585931.32,-0.055,-0.040,-0.039,0.811,0.387,0.117,6.121,15.215,8.226
1746585931.34,-0.088,-0.032,-0.014,0.773,0.422,0.060,7.031,15.695,8.011
1746585931.36,-0.003,-0.039,0.009,0.693,0.297,0.014,7.831,16.135,7.747
1746585931.38,0.100,-0.054,-0.136,0.654,0.140,0.025,8.587,16.393,7.459
1746585931.40,0.106,-0.080,-0.090,0.538,0.186,0.113,9.260,16.574,7.273
1746585931.42,-0.008,-0.072,-0.116,0.409,0.377,0.171,9.824,16.880,7.192
1746585931.44,-0.049,-0.064,-0.142,0.313,0.435,0.009,10.231,17.379,7.093
1746585931.46,0.094,-0.074,-0.299,0.185,0.368,0.018,10.524,17.845,6.934
1746585931.48,0.080,-0.096,-0.240,-0.011,0.291,-0.002,10.623,18.228,6.852
1746585931.50,0.118,-0.102,-0.247,-0.251,0.183,-0.050,10.463,18.487,6.805
1746585931.52,0.027,-0.082,-0.311,-0.348,0.189,-0.136,10.101,18.709,6.777
1746585931.54,-0.012,-0.058,-0.403,-0.467,-0.006,-0.294,9.569,18.796,6.615
1746585931.56,0.049,-0.081,-0.390,-0.595,-0.182,-0.368,8.881,18.707,6.371
1746585931.58,0.069,-0.080,-0.288,-0.804,-0.164,-0.359,7.989,18.521,6.169
1746585931.60,-0.020,-0.048,-0.283,-0.947,-0.166,-0.490,6.893,18.352,5.965
1746585931.62,0.114,-0.090,-0.201,-1.086,-0.275,-0.512,5.606,18.139,5.761
1746585931.64,0.127,-0.071,-0.272,-1.240,-0.397,-0.486,4.168,17.749,5.574
1746585931.66,0.055,-0.083,-0.241,-1.423,-0.353,-0.412,2.553,17.296,5.515
1746585931.68,-0.032,-0.032,-0.192,-1.527,-0.312,-0.469,0.796,16.923,5.525
1746585931.70,0.012,-0.052,-0.043,-1.557,-0.294,-0.552,-1.069,16.580,5.449
1746585931.72,0.060,-0.092,-0.124,-1.581,-0.370,-0.520,-2.954,16.188,5.358
1746585931.74,-0.034,-0.082,-0.156,-1.684,-0.334,-0.453,-4.896,15.788,5.355
1746585931.76,-0.003,-0.069,-0.151,-1.744,-0.397,-0.460,-6.933,15.370,5.409
1746585931.78,0.089,-0.123,0.039,-1.643,-0.469,-0.561,-8.962,14.875,5.369
1746585931.80,0.002,-0.196,0.043,-1.562,-0.507,-0.557,-10.885,14.277,5.224
1746585931.82,-0.036,-0.107,-0.024,-1.608,-0.429,-0.456,-12.768,13.719,5.133
1746585931.84,-0.020,-0.050,0.100,-1.666,-0.301,-0.451,-14.728,13.280,5.113
1746585931.86,0.059,-0.103,0.045,-1.535,-0.425,-0.519,-16.625,12.878,5.034
1746585931.88,0.038,-0.163,0.020,-1.492,-0.462,-0.509,-18.439,12.280,4.867
1746585931.90,0.043,-0.172,0.045,-1.641,-0.304,-0.384,-20.284,11.757,4.782
1746585931.92,0.081,-0.170,0.113,-1.662,0.068,-0.237,-22.214,11.667,4.904
1746585931.94,0.087,-0.169,0.016,-1.660,-0.005,-0.289,-24.120,11.761,5.089
1746585931.96,0.068,-0.148,0.054,-1.644,-0.081,-0.370,-26.062,11.715,5.096
1746585931.98,0.092,-0.164,0.025,-1.643,-0.158,-0.291,-27.958,11.577,5.176
1746585932.00,0.134,-0.123,0.083,-1.576,-0.093,-0.167,-29.844,11.491,5.411
1746585932.02,0.100,-0.109,0.028,-1.226,-0.222,-0.224,-31.455,11.408,5.647
1746585932.04,-0.013,-0.167,-0.097,-1.136,-0.261,-0.430,-32.818,11.030,5.574
1746585932.06,-0.009,-0.198,-0.004,-1.293,-0.208,-0.482,-34.275,10.609,5.285
1746585932.08,0.026,-0.205,0.001,-1.329,-0.477,-0.386,-35.850,10.068,5.121
1746585932.10,0.021,-0.113,-0.034,-1.389,-0.503,-0.424,-37.450,9.360,4.946
1746585932.12,-0.061,-0.040,-0.050,-1.468,-0.444,-0.494,-39.139,8.609,4.604
1746585932.14,-0.126,-0.037,-0.069,-1.683,-0.221,-0.477,-40.992,7.942,4.199
1746585932.16,-0.044,-0.075,0.082,-1.780,-0.026,-0.350,-43.049,7.662,3.932
1746585932.18,0.046,-0.077,0.031,-1.574,-0.268,-0.279,-44.994,7.427,3.873
1746585932.20,0.087,-0.044,-0.088,-1.596,-0.522,-0.350,-46.798,6.819,3.817
1746585932.22,0.110,-0.035,0.048,-1.820,-0.469,-0.454,-48.795,5.988,3.460
1746585932.24,0.091,-0.036,0.073,-1.826,-0.579,-0.534,-50.941,4.970,2.894
1746585932.26,0.075,-0.040,0.033,-1.659,-0.600,-0.506,-52.973,3.703,2.165
1746585932.28,0.046,-0.044,0.066,-1.688,-0.522,-0.426,-54.891,2.475,1.436
1746585932.30,0.016,-0.053,0.086,-1.655,-0.535,-0.367,-56.814,1.312,0.741
1746585932.32,0.008,-0.076,0.086,-1.681,-0.562,-0.262,-58.729,0.150,0.114
1746585932.34,0.016,-0.080,0.015,-1.556,-0.414,-0.185,-60.574,-0.873,-0.408
1746585932.36,0.036,-0.078,0.017,-1.582,-0.287,-0.106,-62.349,-1.656,-0.858
1746585932.38,0.053,-0.093,0.075,-1.715,-0.366,0.130,-64.234,-2.137,-0.994
1746585932.40,0.055,-0.109,0.143,-1.691,-0.493,0.399,-66.209,-2.096,-0.417
1746585932.42,0.006,-0.066,0.065,-1.515,-0.837,0.415,-68.046,-1.829,0.685
1746585932.44,-0.028,-0.006,-0.012,-1.447,-0.991,0.216,-69.755,-2.090,1.574
1746585932.46,-0.041,0.016,-0.138,-1.316,-0.750,-0.037,-71.304,-3.032,1.638
1746585932.48,-0.068,-0.033,-0.085,-1.443,-0.578,-0.085,-72.890,-4.384,1.002
1746585932.50,-0.076,-0.086,-0.009,-1.344,-0.316,0.090,-74.480,-5.419,0.483
1746585932.52,-0.049,-0.057,0.124,-1.188,0.009,0.295,-75.953,-5.237,0.827
1746585932.54,-0.039,-0.023,0.050,-0.888,-0.120,0.363,-77.167,-4.028,2.099
1746585932.56,-0.019,0.007,-0.096,-0.979,-0.375,0.352,-78.197,-2.721,3.739
1746585932.58,0.027,-0.040,0.007,-1.399,-0.509,0.419,-79.578,-1.307,5.717
1746585932.60,0.027,-0.079,0.087,-1.306,-0.417,0.437,-81.190,1.178,8.779
1746585932.62,-0.047,-0.035,-0.034,-0.841,-0.362,0.261,-82.390,3.854,11.922
1746585932.64,-0.040,0.012,0.003,-0.694,-0.216,0.231,-83.201,6.137,14.581
1746585932.66,-0.010,0.001,0.091,-0.831,0.028,0.350,-84.009,10.005,18.576
1746585932.68,-0.046,-0.036,0.085,-0.962,0.262,0.400,-84.905,17.108,25.545
1746585932.70,-0.100,-0.069,0.032,-0.848,0.297,0.225,-85.758,26.550,34.674
1746585932.72,-0.142,-0.058,-0.048,-0.637,0.066,-0.003,-86.424,34.379,42.298
1746585932.74,-0.108,-0.010,-0.048,-0.562,-0.101,-0.088,-87.001,40.707,48.684
1746585932.76,-0.043,0.055,-0.031,-0.514,-0.087,-0.091,-87.523,48.148,56.249
1746585932.78,0.015,0.059,-0.062,-0.333,0.049,-0.060,-87.894,56.410,64.551
1746585932.80,0.045,0.021,-0.072,-0.177,0.137,0.052,-88.048,63.100,71.112
1746585932.82,0.027,-0.047,-0.049,-0.156,-0.041,0.177,-87.995,69.539,77.492
1746585932.84,-0.013,-0.061,-0.013,-0.137,-0.298,0.210,-87.829,75.753,83.903
1746585932.86,-0.077,0.015,-0.071,-0.061,-0.390,0.149,-87.650,79.246,87.823
1746585932.88,-0.127,0.095,-0.071,0.023,-0.155,0.057,-87.533,80.165,89.078
1746585932.90,-0.161,0.122,-0.077,0.188,0.141,-0.053,-87.511,77.411,86.319
1746585932.92,-0.119,0.051,-0.008,0.272,0.182,-0.109,-87.530,70.911,79.598
1746585932.94,-0.036,-0.014,0.041,0.231,0.040,-0.108,-87.533,63.494,72.049
1746585932.96,0.018,-0.027,0.039,0.112,-0.002,-0.058,-87.523,58.445,66.985
1746585932.98,0.033,-0.046,-0.000,0.018,0.092,0.006,-87.510,56.781,65.275
1746585933.00,0.023,-0.039,0.035,0.006,0.085,0.018,-87.494,56.896,65.270
1746585933.02,-0.012,-0.008,0.046,-0.015,-0.051,-0.014,-87.488,56.933,65.284
1746585933.04,-0.033,0.027,-0.017,-0.068,-0.158,-0.095,-87.568,57.071,65.542
1746585933.06,-0.016,0.015,-0.087,-0.068,-0.209,-0.127,-87.719,56.681,65.376
1746585933.08,0.032,-0.010,-0.052,-0.088,-0.130,-0.107,-87.881,56.525,65.414
1746585933.10,0.062,-0.032,0.010,-0.115,-0.124,-0.018,-88.009,58.009,67.036
1746585933.12,0.049,-0.037,0.055,-0.173,-0.170,0.074,-88.059,62.469,71.667
1746585933.14,0.005,-0.010,0.046,-0.234,-0.215,0.111,-88.051,69.774,79.195
1746585933.16,-0.053,-0.003,-0.028,-0.186,-0.303,0.074,-88.010,77.274,86.993
1746585933.18,-0.108,-0.000,-0.078,-0.121,-0.360,0.001,-87.995,81.865,91.978
1746585933.20,-0.119,0.012,-0.056,-0.066,-0.249,-0.048,-88.037,84.693,95.168
1746585933.22,-0.089,0.023,-0.004,0.060,-0.093,-0.073,-88.107,84.621,95.289
1746585933.24,-0.055,0.022,0.015,0.191,0.009,-0.078,-88.173,79.645,90.351
1746585933.26,-0.044,0.023,0.004,0.229,0.032,-0.073,-88.197,71.359,82.032
1746585933.28,-0.040,0.020,-0.001,0.179,0.008,-0.069,-88.182,63.476,74.122
1746585933.30,-0.029,-0.010,0.015,0.174,-0.005,-0.042,-88.145,57.197,67.841
1746585933.32,-0.012,-0.028,0.035,0.227,0.034,0.000,-88.040,51.206,61.834
1746585933.34,-0.020,-0.010,0.037,0.301,0.093,0.025,-87.834,45.332,55.883
1746585933.36,-0.028,0.002,0.030,0.351,0.127,0.031,-87.544,39.610,50.032
1746585933.38,-0.028,0.000,0.055,0.349,0.163,0.024,-87.221,34.932,45.178
1746585933.40,-0.038,-0.004,0.061,0.410,0.110,-0.021,-86.868,30.733,40.815
1746585933.42,-0.066,0.005,0.034,0.519,0.017,-0.103,-86.433,25.518,35.514
1746585933.44,-0.088,0.005,0.016,0.593,-0.100,-0.172,-85.900,19.558,29.593
1746585933.46,-0.094,-0.012,0.032,0.610,-0.019,-0.224,-85.306,14.036,24.148
1746585933.48,-0.094,-0.041,0.067,0.673,0.220,-0.271,-84.655,9.326,19.303
1746585933.50,-0.083,-0.048,0.038,0.846,0.333,-0.271,-83.845,5.467,15.094
1746585933.51,-0.069,-0.024,0.009,1.068,0.377,-0.267,-82.775,2.611,11.808
1746585933.53,-0.078,-0.002,-0.002,1.175,0.429,-0.306,-81.480,0.469,9.188
1746585933.55,-0.107,0.007,0.022,1.088,0.614,-0.376,-80.184,-1.281,6.820
1746585933.57,-0.129,0.035,-0.036,1.124,0.488,-0.427,-78.915,-2.900,4.480
1746585933.59,-0.077,0.043,-0.151,1.107,0.420,-0.432,-77.594,-4.383,2.499
1746585933.62,0.017,-0.020,0.092,1.063,0.681,-0.408,-76.334,-5.443,0.765
1746585933.63,0.091,-0.037,0.113,1.113,0.542,-0.209,-75.060,-5.628,-0.206
1746585933.65,0.116,-0.011,0.012,1.157,0.110,-0.018,-73.753,-5.243,-0.185
1746585933.67,0.079,-0.004,-0.002,1.037,0.134,-0.036,-72.496,-4.833,0.143
1746585933.69,0.057,-0.010,0.031,1.161,-0.016,-0.113,-71.275,-4.677,0.151
1746585933.71,0.069,-0.015,-0.099,1.185,-0.247,-0.003,-69.885,-4.805,0.271
1746585933.73,0.085,-0.009,0.052,1.159,0.088,-0.031,-68.580,-4.629,0.588
1746585933.75,0.019,0.014,0.118,1.154,0.231,-0.102,-67.239,-4.343,0.629
1746585933.77,-0.051,-0.014,0.011,1.166,0.042,0.094,-65.927,-4.073,0.789
1746585933.79,0.019,-0.038,0.033,1.189,0.383,0.324,-64.596,-3.089,1.617
1746585933.81,-0.012,-0.014,-0.006,1.252,0.343,0.225,-63.221,-1.823,2.528
1746585933.83,-0.085,-0.023,-0.001,1.138,0.054,0.059,-61.854,-1.244,2.903
1746585933.85,-0.052,-0.088,-0.005,1.093,0.174,0.239,-60.594,-0.866,3.262
1746585933.87,0.101,-0.060,0.043,1.200,0.313,0.449,-59.294,0.185,4.088
1746585933.89,0.171,-0.021,0.048,1.249,0.112,0.361,-57.891,1.201,4.996
1746585933.91,0.056,-0.016,0.031,1.419,0.019,0.115,-56.363,1.612,5.421
1746585933.93,-0.082,-0.037,-0.047,1.418,0.112,0.088,-54.707,1.725,5.481
1746585933.95,-0.071,-0.060,-0.058,1.146,0.202,0.317,-53.229,2.161,5.841
1746585933.97,0.022,-0.028,0.001,1.096,-0.026,0.418,-51.973,2.791,6.537
1746585933.99,0.047,0.012,0.056,1.254,-0.074,0.300,-50.591,3.129,7.172
1746585934.01,-0.045,0.052,-0.002,1.302,0.127,0.092,-49.118,3.329,7.404
1746585934.03,-0.134,0.003,-0.057,1.028,0.140,0.230,-47.758,3.559,7.526
1746585934.05,0.005,-0.043,0.063,1.057,0.170,0.365,-46.590,4.061,7.986
1746585934.07,0.090,0.028,0.047,1.252,0.071,0.238,-45.231,4.429,8.368
1746585934.09,0.065,0.031,0.112,1.252,0.387,0.131,-43.798,4.786,8.520
1746585934.11,-0.041,-0.068,-0.001,1.439,0.444,0.097,-42.267,5.289,8.551
1746585934.13,-0.004,-0.099,-0.172,1.226,0.418,0.104,-40.692,5.737,8.532
1746585934.15,0.133,-0.087,0.016,1.086,0.389,0.210,-39.404,6.228,8.644
1746585934.17,0.061,-0.026,0.137,1.286,0.163,0.205,-38.041,6.651,8.801
1746585934.19,-0.002,-0.039,0.039,1.298,0.179,0.205,-36.523,6.853,8.914
1746585934.21,0.079,-0.052,-0.003,1.281,0.200,0.217,-35.046,7.113,9.027
1746585934.23,0.059,-0.055,-0.032,1.249,0.170,0.174,-33.565,7.367,9.124
1746585934.25,-0.037,-0.063,-0.029,1.164,-0.008,0.171,-32.184,7.429,9.161
1746585934.27,0.048,-0.096,0.074,1.303,0.013,0.160,-30.773,7.433,9.221
1746585934.29,0.120,-0.094,0.089,1.440,0.064,0.052,-29.182,7.417,9.146
1746585934.31,-0.025,-0.124,-0.058,1.402,0.241,0.003,-27.549,7.508,8.938
1746585934.33,-0.196,-0.049,-0.127,1.055,0.404,0.113,-26.167,7.797,8.830
1746585934.35,-0.003,0.158,0.025,1.034,0.352,0.244,-24.961,8.251,8.913
1746585934.37,0.047,0.119,0.063,1.018,0.273,0.212,-23.764,8.651,9.039
1746585934.39,0.034,0.051,0.075,1.021,0.278,0.147,-22.581,8.964,9.078
1746585934.41,-0.066,-0.003,-0.019,1.085,0.170,0.155,-21.366,9.230,9.069
1746585934.43,-0.155,-0.057,-0.137,0.980,0.453,0.100,-20.181,9.600,9.046
1746585934.45,-0.128,0.051,-0.007,1.037,0.302,-0.026,-19.059,9.982,8.882
1746585934.47,-0.028,0.032,0.028,1.039,0.092,-0.101,-17.891,10.131,8.609
1746585934.49,0.017,-0.015,0.102,1.034,-0.011,-0.076,-16.744,10.028,8.283
1746585934.51,-0.026,-0.060,-0.007,1.004,0.125,-0.027,-15.609,10.032,8.021
1746585934.53,-0.139,-0.026,-0.026,0.980,0.267,0.086,-14.501,10.201,7.832
1746585934.55,-0.002,-0.026,-0.034,0.925,0.357,0.125,-13.394,10.554,7.752
1746585934.57,0.078,-0.053,0.016,0.872,0.354,0.155,-12.360,10.951,7.713
1746585934.59,0.004,-0.052,0.024,0.928,0.290,0.190,-11.326,11.326,7.697
1746585934.61,-0.048,-0.051,-0.062,0.966,0.153,0.164,-10.216,11.602,7.682
1746585934.63,0.002,-0.098,-0.059,0.992,0.090,0.198,-9.087,11.730,7.641
1746585934.65,0.006,-0.078,0.018,1.005,0.176,0.164,-7.933,11.844,7.588
1746585934.67,0.004,-0.097,0.096,1.045,0.262,0.090,-6.754,12.114,7.460
1746585934.69,0.010,-0.012,-0.124,1.027,0.172,0.155,-5.561,12.340,7.312
1746585934.71,0.024,0.025,-0.052,1.016,0.136,0.222,-4.389,12.500,7.239
1746585934.73,-0.011,0.027,0.008,1.004,0.218,0.182,-3.208,12.708,7.171
1746585934.75,-0.019,0.001,0.025,0.984,0.303,0.147,-2.059,12.999,7.061
1746585934.77,0.019,0.030,0.009,0.955,0.353,0.186,-0.951,13.394,6.917
1746585934.79,-0.030,0.011,-0.131,1.040,0.328,0.118,0.208,13.789,6.776
1746585934.81,-0.029,0.036,-0.055,1.058,0.179,0.029,1.386,14.081,6.512
1746585934.83,0.082,-0.015,-0.061,1.067,0.074,0.036,2.584,14.224,6.187
1746585934.85,0.094,-0.052,0.039,0.925,0.234,0.153,3.722,14.386,5.947
1746585934.87,-0.006,-0.030,0.009,0.851,0.419,0.193,4.735,14.765,5.831
1746585934.89,0.008,0.012,-0.120,0.893,0.428,0.219,5.773,15.284,5.744
1746585934.91,0.009,0.013,-0.004,0.875,0.247,0.181,6.795,15.697,5.629
1746585934.93,0.122,-0.004,-0.023,0.885,-0.026,0.148,7.832,15.839,5.452
1746585934.95,0.147,-0.034,0.030,0.814,-0.052,0.254,8.830,15.776,5.324
1746585934.97,0.072,-0.056,0.031,0.716,0.240,0.398,9.763,15.849,5.391
1746585934.99,-0.169,-0.003,-0.066,0.799,0.352,0.260,10.704,16.186,5.453
1746585935.01,-0.180,0.031,-0.068,0.784,0.345,0.057,11.614,16.623,5.264
1746585935.03,0.057,-0.065,-0.133,0.785,0.204,0.026,12.488,16.995,4.958
1746585935.05,0.123,-0.111,-0.132,0.743,0.079,0.014,13.325,17.200,4.640
1746585935.07,-0.000,-0.053,-0.148,0.665,0.022,-0.022,14.103,17.302,4.302
1746585935.09,-0.009,-0.056,-0.078,0.556,0.084,-0.004,14.754,17.414,3.992
1746585935.11,-0.007,-0.031,-0.137,0.509,0.038,-0.042,15.340,17.539,3.697
1746585935.13,0.049,-0.078,-0.149,0.432,-0.035,-0.060,15.826,17.613,3.384
1746585935.15,0.105,-0.120,-0.173,0.276,-0.070,0.017,16.206,17.594,3.148
1746585935.17,0.057,-0.099,-0.144,0.122,-0.018,0.049,16.439,17.548,3.053
1746585935.19,-0.013,-0.093,-0.187,0.048,-0.004,-0.015,16.538,17.541,2.991
1746585935.21,-0.048,-0.125,-0.162,-0.049,-0.202,-0.177,16.488,17.476,2.818
1746585935.23,0.043,-0.155,-0.262,-0.117,-0.426,-0.289,16.345,17.174,2.513
1746585935.25,0.015,-0.122,-0.162,-0.348,-0.222,-0.192,16.002,16.843,2.259
1746585935.27,0.002,-0.081,-0.229,-0.530,-0.186,-0.250,15.450,16.644,2.123
1746585935.29,0.084,-0.097,-0.237,-0.694,-0.132,-0.201,14.711,16.473,2.030
1746585935.31,-0.031,-0.086,-0.152,-0.859,-0.059,-0.208,13.784,16.372,2.027
1746585935.33,0.024,-0.075,-0.237,-1.023,-0.100,-0.182,12.699,16.258,2.085
1746585935.35,0.069,-0.118,-0.225,-1.182,-0.121,-0.167,11.427,16.102,2.231
1746585935.37,0.020,-0.112,-0.164,-1.317,-0.083,-0.230,9.988,15.953,2.399
1746585935.39,0.011,-0.091,-0.131,-1.416,-0.152,-0.279,8.413,15.805,2.545
1746585935.41,0.022,-0.101,-0.109,-1.569,-0.271,-0.324,6.680,15.540,2.664
1746585935.43,0.064,-0.109,-0.163,-1.621,-0.304,-0.330,4.827,15.205,2.775
1746585935.45,-0.055,-0.085,-0.129,-1.721,-0.224,-0.383,2.870,14.882,2.862
1746585935.47,-0.055,-0.037,-0.134,-1.783,-0.122,-0.320,0.829,14.686,2.973
1746585935.49,0.124,-0.099,-0.021,-1.854,0.026,-0.224,-1.260,14.633,3.199
1746585935.51,0.100,-0.147,0.042,-1.852,0.113,-0.194,-3.371,14.739,3.525
1746585935.53,0.015,-0.098,-0.047,-1.880,0.019,-0.155,-5.485,14.842,3.897
1746585935.55,0.053,-0.068,-0.065,-1.834,-0.066,-0.186,-7.608,14.854,4.288
1746585935.57,0.005,-0.097,0.035,-1.687,-0.196,-0.288,-9.609,14.745,4.578
1746585935.59,-0.064,-0.157,0.041,-1.672,-0.227,-0.283,-11.542,14.534,4.762
1746585935.61,-0.009,-0.198,-0.082,-1.741,-0.180,-0.216,-13.491,14.327,5.013
1746585935.63,0.062,-0.059,0.039,-1.801,-0.064,-0.285,-15.555,14.259,5.306
1746585935.65,0.008,-0.000,0.128,-1.558,-0.105,-0.400,-17.504,14.220,5.453
1746585935.67,0.028,-0.003,0.030,-1.531,-0.222,-0.404,-19.309,13.998,5.470
1746585935.69,0.093,-0.019,-0.006,-1.589,-0.091,-0.288,-21.130,13.830,5.586
1746585935.71,0.110,-0.039,0.079,-1.594,-0.006,-0.295,-22.980,13.861,5.807
1746585935.73,-0.006,-0.128,0.080,-1.328,-0.223,-0.465,-24.713,13.730,5.873
1746585935.75,-0.074,-0.267,-0.027,-1.146,-0.313,-0.560,-26.201,13.284,5.648
1746585935.77,-0.007,-0.249,-0.158,-1.457,-0.103,-0.531,-27.756,12.880,5.404
1746585935.79,0.051,-0.142,-0.001,-1.633,-0.130,-0.493,-29.648,12.704,5.309
1746585935.81,-0.023,-0.076,0.044,-1.395,-0.399,-0.592,-31.489,12.275,5.138
1746585935.83,-0.033,-0.076,0.056,-1.164,-0.509,-0.614,-33.033,11.481,4.673
1746585935.85,0.071,-0.110,-0.036,-1.430,-0.189,-0.552,-34.583,10.826,4.318
1746585935.87,0.059,-0.147,-0.058,-1.720,-0.249,-0.523,-36.489,10.424,4.089
1746585935.89,0.009,-0.127,-0.010,-1.697,-0.334,-0.430,-38.522,9.923,3.941
1746585935.91,0.004,-0.052,0.072,-1.567,-0.354,-0.337,-40.437,9.436,3.837
1746585935.93,0.035,0.017,0.048,-1.496,-0.268,-0.334,-42.210,9.000,3.765
1746585935.95,0.067,-0.004,0.080,-1.423,-0.222,-0.432,-43.936,8.559,3.644
1746585935.97,0.071,-0.093,0.078,-1.269,-0.370,-0.472,-45.519,7.960,3.287
1746585935.99,0.033,-0.128,-0.065,-1.299,-0.495,-0.501,-47.034,7.053,2.774
1746585936.01,-0.030,-0.123,-0.082,-1.518,-0.580,-0.497,-48.679,6.027,2.240
1746585936.03,0.001,-0.115,0.062,-1.696,-0.605,-0.311,-50.582,4.988,1.915
1746585936.05,0.057,-0.071,0.097,-1.524,-0.539,-0.143,-52.449,4.201,1.797
1746585936.07,0.079,-0.019,0.062,-1.432,-0.416,-0.115,-54.122,3.627,1.807
1746585936.09,0.092,-0.004,0.092,-1.409,-0.292,-0.148,-55.752,3.151,1.788
1746585936.11,0.087,-0.022,0.028,-1.361,-0.258,-0.191,-57.345,2.682,1.642
1746585936.13,0.059,-0.046,-0.091,-1.341,-0.345,-0.226,-58.880,2.071,1.311
1746585936.15,-0.005,-0.048,-0.029,-1.571,-0.465,-0.149,-60.533,1.273,0.942
1746585936.17,0.000,-0.089,0.122,-1.923,-0.470,0.163,-62.530,0.777,0.987
1746585936.19,0.016,-0.110,0.165,-1.829,-0.577,0.387,-64.736,0.955,1.835
1746585936.21,-0.038,-0.006,-0.031,-1.357,-0.753,0.262,-66.527,1.145,2.875
1746585936.23,-0.039,0.058,0.023,-1.332,-0.764,0.051,-68.025,0.733,3.387
1746585936.25,-0.027,0.001,0.091,-1.407,-0.791,-0.086,-69.601,-0.180,3.349
1746585936.27,-0.075,-0.016,-0.069,-1.224,-0.871,-0.289,-71.089,-1.819,2.633
1746585936.28,-0.072,-0.029,-0.157,-1.474,-0.570,-0.153,-72.585,-3.796,1.453
1746585936.31,0.020,-0.108,0.090,-1.672,0.006,0.305,-74.416,-4.303,1.277
1746585936.32,0.008,-0.082,0.081,-1.194,0.256,0.469,-76.142,-2.647,2.767
1746585936.35,-0.043,-0.033,-0.136,-0.798,0.092,0.307,-77.227,-0.663,4.587
1746585936.37,0.017,-0.057,-0.043,-1.067,-0.112,0.213,-78.262,0.614,5.916
1746585936.38,0.060,-0.054,-0.014,-1.128,-0.094,0.206,-79.555,1.850,7.303
1746585936.40,0.020,-0.045,-0.085,-0.964,-0.163,0.190,-80.717,3.290,8.908
1746585936.42,-0.010,-0.030,-0.032,-1.031,-0.250,0.265,-81.831,5.250,11.139
1746585936.44,-0.054,-0.019,-0.007,-0.898,-0.095,0.303,-82.912,8.518,14.658
1746585936.46,-0.109,-0.034,0.026,-0.674,0.134,0.187,-83.737,12.431,18.556
1746585936.48,-0.148,-0.031,-0.052,-0.562,0.144,-0.020,-84.391,15.016,20.978
1746585936.50,-0.101,-0.006,-0.087,-0.434,0.020,-0.102,-84.969,15.940,21.814
1746585936.52,-0.053,0.022,-0.115,-0.311,0.124,-0.101,-85.403,15.926,21.737
1746585936.54,-0.011,0.010,-0.070,-0.340,0.221,-0.004,-85.770,16.689,22.286
1746585936.56,0.012,-0.001,-0.065,-0.410,0.195,0.093,-86.157,19.474,24.843
1746585936.58,0.041,-0.024,-0.001,-0.431,0.192,0.170,-86.553,24.789,29.944
1746585936.60,0.069,-0.036,0.072,-0.359,0.186,0.237,-86.847,32.377,37.337
1746585936.62,0.047,-0.033,0.110,-0.229,0.203,0.263,-86.941,40.586,45.328
1746585936.64,-0.067,-0.008,0.016,-0.210,0.058,0.194,-86.918,47.302,51.885
1746585936.66,-0.158,0.032,-0.050,-0.432,-0.169,0.090,-87.021,54.468,59.125
1746585936.68,-0.153,0.061,-0.069,-0.461,-0.321,-0.012,-87.266,63.908,68.870
1746585936.70,-0.072,0.035,-0.057,-0.256,-0.250,0.021,-87.428,71.801,77.124
1746585936.72,0.010,-0.014,0.028,-0.123,-0.072,0.059,-87.430,76.357,81.850
1746585936.74,0.016,-0.024,-0.011,-0.067,-0.183,0.010,-87.413,78.725,84.347
1746585936.76,0.003,0.005,-0.073,-0.120,-0.238,0.002,-87.429,80.472,86.357
1746585936.78,-0.029,0.031,-0.001,-0.167,-0.171,0.041,-87.427,84.262,90.389
1746585936.80,-0.054,0.012,0.038,-0.049,-0.062,0.007,-87.399,87.224,93.490
1746585936.82,-0.067,-0.008,0.002,0.050,0.054,-0.029,-87.422,86.754,93.025
1746585936.84,-0.033,-0.016,0.026,-0.029,0.192,0.006,-87.433,86.454,92.585
1746585936.86,0.016,-0.016,0.084,-0.015,0.207,0.043,-87.417,87.573,93.459
1746585936.88,0.013,-0.035,0.088,0.010,0.126,0.121,-87.325,87.763,93.456
1746585936.90,-0.048,-0.008,0.027,-0.015,-0.041,0.070,-87.209,88.010,93.638
1746585936.92,-0.091,0.032,-0.084,-0.023,-0.262,-0.031,-87.195,88.363,94.177
1746585936.94,-0.033,0.044,-0.048,0.033,-0.233,-0.036,-87.245,88.067,94.184
1746585936.96,0.012,0.009,0.047,0.073,-0.148,0.013,-87.253,86.552,92.876
1746585936.98,-0.012,-0.004,0.048,0.050,-0.130,0.023,-87.226,84.941,91.420
1746585937.00,-0.072,-0.001,0.023,0.046,-0.097,0.006,-87.208,83.761,90.376
1746585937.02,-0.130,0.005,0.015,0.145,0.001,-0.023,-87.207,81.591,88.258
1746585937.04,-0.157,0.008,-0.009,0.277,0.107,-0.035,-87.194,76.534,83.137
1746585937.06,-0.122,0.019,0.027,0.272,0.212,-0.072,-87.161,70.169,76.576
1746585937.08,-0.068,-0.004,0.076,0.262,0.176,-0.110,-87.147,64.107,70.265
1746585937.10,-0.042,-0.036,0.052,0.340,-0.064,-0.124,-87.102,56.881,62.954
1746585937.12,-0.029,-0.027,0.016,0.387,-0.302,-0.139,-86.975,48.332,54.614
1746585937.14,0.002,-0.021,0.015,0.417,-0.361,-0.162,-86.768,39.851,46.513
1746585937.16,0.013,-0.039,0.046,0.497,-0.276,-0.176,-86.457,31.718,38.743
1746585937.18,-0.021,-0.024,0.052,0.646,-0.229,-0.224,-85.994,23.880,31.161
1746585937.20,-0.078,0.007,-0.001,0.815,-0.286,-0.304,-85.302,16.075,23.628
1746585937.22,-0.109,0.003,0.009,0.855,-0.307,-0.359,-84.437,9.191,17.069
1746585937.24,-0.112,-0.001,0.019,0.868,-0.196,-0.373,-83.515,3.876,12.021
1746585937.26,-0.105,0.009,-0.019,1.016,0.029,-0.378,-82.462,0.004,8.238
1746585937.28,-0.102,0.004,0.045,1.109,0.530,-0.482,-81.229,-2.823,5.069
1746585937.30,-0.131,0.020,0.105,1.303,0.742,-0.596,-79.824,-5.199,1.870
1746585937.32,-0.157,0.053,0.014,1.264,0.401,-0.505,-78.256,-7.047,-0.732
1746585937.34,-0.135,0.028,-0.083,1.052,0.188,-0.301,-76.885,-8.038,-2.004
1746585937.36,-0.037,-0.020,0.085,0.918,0.869,-0.280,-75.750,-8.121,-2.675
1746585937.38,0.072,-0.053,0.169,1.230,1.126,-0.227,-74.527,-7.428,-3.218
1746585937.40,0.114,-0.014,0.031,1.455,0.334,-0.077,-72.944,-6.419,-3.165
1746585937.42,0.129,0.012,-0.176,1.290,-0.594,-0.064,-71.369,-6.340,-2.797
1746585937.44,0.190,-0.013,-0.091,1.070,-0.159,-0.092,-70.021,-6.682,-2.635
1746585937.46,0.130,-0.038,0.054,1.140,0.061,-0.063,-68.792,-6.515,-2.466
1746585937.48,0.015,-0.013,0.021,1.218,0.318,-0.073,-67.440,-6.117,-2.257
1746585937.50,-0.088,-0.032,0.082,1.255,0.050,0.099,-66.017,-5.578,-1.952
1746585937.52,-0.084,-0.074,-0.063,1.184,0.250,0.338,-64.662,-4.609,-0.977
1746585937.54,0.031,-0.040,-0.048,1.129,0.743,0.298,-63.374,-3.023,0.085
1746585937.56,0.079,-0.024,-0.016,1.194,0.159,0.174,-62.069,-1.810,0.796
1746585937.58,0.049,0.016,0.094,1.355,-0.418,0.132,-60.640,-1.641,1.216
1746585937.60,0.028,0.016,-0.010,1.501,-0.307,0.287,-58.967,-1.624,1.765
1746585937.62,0.069,-0.048,-0.068,1.102,-0.011,0.310,-57.483,-1.131,2.523
1746585937.64,0.141,-0.101,-0.042,0.998,-0.079,0.233,-56.334,-0.672,3.169
1746585937.66,0.123,-0.046,0.075,1.350,-0.032,0.123,-55.015,-0.428,3.588
1746585937.68,-0.017,0.003,0.091,1.634,-0.075,0.159,-53.295,-0.308,3.889
1746585937.70,-0.127,-0.063,-0.203,1.252,0.088,0.374,-51.560,0.104,4.455
1746585937.72,0.023,-0.152,-0.045,0.718,0.226,0.602,-50.514,0.973,5.428
1746585937.74,0.114,-0.100,0.112,1.107,0.242,0.468,-49.506,1.975,6.459
1746585937.76,0.098,0.033,0.166,1.519,0.426,0.184,-47.970,2.692,6.961
1746585937.78,0.006,0.021,-0.049,1.794,0.332,0.296,-46.016,3.285,7.203
1746585937.80,0.001,-0.022,-0.202,0.932,-0.099,0.536,-44.354,3.836,7.829
1746585937.82,-0.073,-0.116,0.147,0.845,0.172,0.402,-43.470,4.326,8.575
1746585937.84,-0.234,-0.048,0.068,1.410,0.061,0.034,-42.113,4.625,8.809
1746585937.86,-0.044,0.095,0.171,1.541,0.153,-0.022,-40.437,4.526,8.639
1746585937.88,0.121,0.068,0.019,1.749,0.255,0.137,-38.526,4.779,8.574
1746585937.90,-0.106,-0.033,-0.242,0.994,0.311,0.184,-36.885,5.073,8.680
1746585937.92,-0.072,-0.016,0.060,0.844,0.411,0.215,-35.934,5.647,8.891
1746585937.94,0.088,0.067,0.087,1.312,0.279,0.150,-34.679,6.074,9.026
1746585937.96,0.146,0.027,0.100,1.340,0.524,0.185,-33.115,6.520,9.084
1746585937.98,0.084,-0.095,-0.063,1.227,0.442,0.094,-31.643,7.112,9.107
1746585938.00,-0.090,-0.131,-0.217,1.011,0.160,0.013,-30.354,7.356,8.984
1746585938.02,-0.114,-0.032,-0.006,0.978,0.233,-0.022,-29.256,7.470,8.826
1746585938.04,0.043,0.050,0.134,1.165,0.047,0.008,-28.044,7.582,8.622
1746585938.06,0.066,0.007,0.052,1.135,0.018,0.126,-26.695,7.513,8.505
1746585938.08,0.041,-0.041,-0.031,0.994,0.112,0.155,-25.478,7.645,8.542
1746585938.10,-0.156,-0.060,-0.041,1.032,0.155,-0.031,-24.338,7.745,8.434
1746585938.12,-0.023,-0.112,0.044,1.132,0.095,-0.072,-23.115,7.802,8.163
1746585938.14,0.149,-0.035,0.128,1.150,-0.059,0.015,-21.830,7.720,7.906
1746585938.16,0.100,-0.041,0.048,0.996,0.095,0.295,-20.566,7.717,7.892
1746585938.18,-0.044,0.013,-0.140,0.890,0.383,0.406,-19.463,8.102,8.201
1746585938.20,-0.163,0.036,-0.001,0.952,0.455,0.222,-18.380,8.682,8.411
1746585938.22,-0.025,-0.081,0.160,1.108,0.268,0.166,-17.173,9.110,8.429
1746585938.24,0.127,-0.178,0.193,1.117,0.186,0.179,-15.880,9.358,8.386
1746585938.26,0.041,-0.255,-0.027,1.045,0.281,0.179,-14.614,9.617,8.364
1746585938.28,-0.105,-0.049,-0.179,1.025,0.319,0.241,-13.411,9.974,8.372
1746585938.30,-0.085,0.085,-0.083,0.979,0.323,0.214,-12.238,10.321,8.391
1746585938.32,-0.018,0.072,0.161,0.923,0.401,0.231,-11.154,10.757,8.398
1746585938.34,-0.129,0.017,-0.034,1.054,0.290,0.121,-9.983,11.154,8.349
1746585938.36,-0.102,-0.007,-0.049,1.095,0.251,0.105,-8.766,11.418,8.178
1746585938.38,0.018,-0.007,-0.127,1.152,0.314,0.108,-7.481,11.722,7.998
1746585938.40,0.033,0.013,-0.002,1.065,0.209,0.089,-6.202,11.997,7.797
1746585938.42,0.100,-0.010,0.094,0.993,0.232,0.104,-5.030,12.258,7.652
1746585938.44,0.041,0.021,0.009,0.948,0.207,0.206,-3.916,12.492,7.554
1746585938.46,-0.035,-0.081,-0.031,1.021,0.406,0.269,-2.777,12.848,7.519
1746585938.48,-0.032,0.020,-0.039,1.091,0.531,0.143,-1.550,13.402,7.402
1746585938.50,0.002,-0.046,0.026,1.066,0.356,0.085,-0.304,13.894,7.179
1746585938.52,0.135,-0.029,0.024,0.990,0.287,0.313,0.871,14.254,7.038
1746585938.54,0.034,0.054,-0.087,0.953,0.490,0.425,2.055,14.670,7.125
1746585938.56,-0.130,0.091,-0.087,1.062,0.555,0.314,3.267,15.324,7.150
1746585938.58,-0.152,0.008,-0.073,1.146,0.185,0.027,4.559,15.783,6.924
1746585938.60,0.117,-0.059,-0.091,1.189,-0.112,0.006,5.837,15.798,6.461
1746585938.62,0.230,-0.031,-0.022,0.958,0.236,0.189,7.041,15.892,6.157
1746585938.64,-0.031,-0.051,-0.120,0.894,0.531,0.181,8.134,16.327,6.006
1746585938.66,-0.177,-0.023,-0.060,0.909,0.695,0.089,9.155,17.081,5.778
1746585938.68,-0.029,-0.017,-0.123,0.880,0.504,-0.008,10.144,17.827,5.444
1746585938.70,0.145,0.000,-0.132,0.825,0.179,0.024,11.070,18.259,5.035
1746585938.72,0.143,-0.010,-0.117,0.729,0.118,0.118,11.945,18.447,4.761
1746585938.74,0.001,-0.024,-0.095,0.616,0.237,0.108,12.719,18.673,4.543
1746585938.76,-0.009,-0.060,-0.083,0.565,0.260,0.068,13.384,18.998,4.336
1746585938.78,0.026,-0.061,-0.115,0.514,0.137,0.048,13.995,19.264,4.101
1746585938.80,0.052,-0.031,-0.059,0.398,0.059,0.058,14.500,19.405,3.895
1746585938.82,0.092,-0.043,-0.138,0.369,-0.062,0.041,14.931,19.421,3.718
1746585938.84,0.096,-0.096,-0.101,0.272,-0.057,0.032,15.300,19.370,3.561
1746585938.86,0.035,-0.094,-0.085,0.106,0.010,-0.026,15.510,19.363,3.408
1746585938.88,0.054,-0.110,-0.133,-0.057,0.006,-0.051,15.510,19.383,3.273
1746585938.90,0.070,-0.101,-0.177,-0.140,-0.035,-0.085,15.390,19.372,3.170
1746585938.92,-0.009,-0.117,-0.055,-0.255,0.050,-0.156,15.119,19.392,3.034
1746585938.94,0.034,-0.087,-0.207,-0.372,0.087,-0.167,14.735,19.488,2.906
1746585938.96,0.014,-0.132,-0.235,-0.533,0.026,-0.200,14.183,19.565,2.820
1746585938.98,0.085,-0.145,-0.280,-0.732,-0.100,-0.181,13.429,19.509,2.793
1746585939.00,0.109,-0.164,-0.222,-0.946,-0.110,-0.209,12.441,19.357,2.859
1746585939.02,0.088,-0.133,-0.263,-1.089,-0.225,-0.258,11.269,19.145,2.939
1746585939.04,0.043,-0.118,-0.193,-1.281,-0.212,-0.217,9.889,18.860,3.084
1746585939.06,-0.002,-0.034,-0.251,-1.392,-0.198,-0.212,8.361,18.581,3.324
1746585939.08,-0.070,-0.011,-0.204,-1.468,-0.197,-0.253,6.720,18.338,3.575
1746585939.10,-0.050,-0.006,-0.237,-1.501,-0.257,-0.294,5.021,18.055,3.779
1746585939.12,-0.008,0.001,-0.172,-1.537,-0.312,-0.308,3.266,17.714,3.985
1746585939.14,-0.046,-0.011,-0.147,-1.525,-0.382,-0.468,1.461,17.325,4.078
1746585939.16,-0.041,-0.061,-0.127,-1.466,-0.470,-0.633,-0.359,16.840,3.988
1746585939.18,-0.040,-0.103,-0.118,-1.360,-0.692,-0.763,-2.135,16.185,3.694
1746585939.20,-0.010,-0.147,-0.101,-1.324,-1.020,-0.784,-3.841,15.187,3.260
1746585939.21,0.161,-0.168,-0.078,-1.322,-1.166,-0.660,-5.523,13.886,2.870
1746585939.23,0.216,-0.148,0.095,-1.293,-1.184,-0.589,-7.139,12.512,2.563
1746585939.25,0.020,-0.256,0.046,-1.382,-0.922,-0.435,-8.740,11.210,2.310
1746585939.27,-0.049,-0.299,0.092,-1.534,-0.542,-0.129,-10.441,10.389,2.349
1746585939.29,0.051,-0.177,0.043,-1.704,-0.294,0.016,-12.268,9.976,2.688
1746585939.31,0.047,-0.090,0.010,-1.742,-0.171,-0.041,-14.223,9.805,3.091
1746585939.33,0.049,-0.063,0.031,-1.701,-0.195,-0.044,-16.166,9.687,3.455
1746585939.35,0.095,-0.048,0.007,-1.788,-0.244,0.018,-18.136,9.527,3.846
1746585939.37,0.089,-0.048,0.019,-1.817,-0.282,-0.053,-20.172,9.353,4.254
1746585939.39,0.006,-0.074,0.054,-1.765,-0.386,-0.141,-22.216,9.041,4.548
1746585939.41,-0.040,-0.091,0.053,-1.679,-0.313,-0.133,-24.180,8.688,4.768
1746585939.43,-0.027,-0.037,0.095,-1.630,-0.231,-0.149,-26.078,8.462,4.994
1746585939.45,-0.054,-0.052,-0.048,-1.642,-0.333,-0.238,-27.938,8.146,5.127
1746585939.47,-0.031,-0.064,-0.040,-1.711,-0.213,-0.317,-29.878,7.809,5.138
1746585939.49,-0.002,-0.074,0.037,-1.640,-0.322,-0.393,-31.842,7.447,5.062
1746585939.51,0.007,-0.058,0.048,-1.500,-0.528,-0.474,-33.681,6.752,4.823
1746585939.53,0.072,-0.045,0.058,-1.419,-0.483,-0.449,-35.385,5.934,4.493
1746585939.55,0.045,-0.046,-0.039,-1.502,-0.460,-0.478,-37.095,5.140,4.141
1746585939.57,-0.044,-0.090,-0.083,-1.558,-0.438,-0.525,-38.871,4.278,3.678
1746585939.59,-0.031,-0.122,0.083,-1.706,-0.258,-0.487,-40.772,3.496,3.177
1746585939.61,0.021,-0.121,0.111,-1.645,-0.376,-0.338,-42.745,2.858,2.786
1746585939.63,0.147,-0.097,-0.083,-1.494,-0.730,-0.227,-44.530,2.000,2.564
1746585939.65,0.241,-0.090,-0.050,-1.580,-0.870,-0.216,-46.266,0.841,2.382
1746585939.67,0.165,-0.104,0.084,-1.770,-0.710,-0.366,-48.196,-0.405,2.008
1746585939.69,0.048,-0.127,0.066,-1.643,-0.663,-0.466,-50.156,-1.803,1.288
1746585939.71,0.034,-0.115,0.013,-1.553,-0.663,-0.382,-51.934,-3.251,0.466
1746585939.73,0.058,-0.103,0.022,-1.665,-0.701,-0.136,-53.730,-4.624,-0.148
1746585939.75,0.091,-0.090,0.156,-1.776,-0.385,0.069,-55.714,-5.560,-0.408
1746585939.77,0.093,-0.031,0.047,-1.616,-0.110,0.171,-57.644,-5.886,-0.401
1746585939.79,0.062,-0.017,0.025,-1.590,-0.162,0.174,-59.492,-6.004,-0.279
1746585939.81,0.023,-0.025,0.007,-1.535,-0.280,0.108,-61.278,-6.308,-0.258
1746585939.83,0.017,-0.075,0.005,-1.362,-0.527,0.058,-62.946,-6.946,-0.468
1746585939.85,0.004,-0.096,0.018,-1.302,-0.816,0.084,-64.439,-7.965,-0.743
1746585939.87,0.009,-0.099,0.095,-1.467,-0.742,0.157,-66.028,-9.131,-0.974
1746585939.89,-0.001,-0.056,-0.005,-1.450,-0.355,0.203,-67.717,-9.934,-1.180
1746585939.91,-0.040,-0.031,-0.081,-1.542,-0.387,0.282,-69.425,-10.360,-1.242
1746585939.93,-0.086,-0.013,-0.019,-1.631,-0.372,0.328,-71.299,-10.830,-1.223
1746585939.95,-0.118,-0.022,0.153,-1.320,-0.130,0.266,-73.045,-11.016,-1.149
1746585939.97,-0.159,0.020,0.061,-0.960,-0.113,0.080,-74.347,-11.334,-1.338
1746585939.99,-0.150,0.031,-0.069,-1.061,-0.222,-0.041,-75.422,-12.360,-2.194
1746585940.01,-0.064,-0.041,-0.024,-1.365,0.102,0.121,-76.786,-13.666,-3.423
1746585940.03,0.027,-0.083,-0.015,-1.532,0.303,0.523,-78.492,-13.591,-3.659
1746585940.05,0.086,-0.081,0.008,-1.348,-0.238,0.828,-80.309,-11.295,-1.390
1746585940.07,0.083,-0.037,-0.008,-0.896,-0.510,0.763,-81.730,-7.173,3.266
1746585940.09,0.036,-0.031,0.004,-0.591,-0.260,0.376,-82.609,-3.360,7.603
1746585940.11,-0.098,-0.023,-0.054,-0.694,0.153,0.235,-83.311,-1.246,9.773
1746585940.13,-0.169,-0.033,-0.057,-0.884,0.210,0.429,-84.224,2.527,13.324
1746585940.15,-0.193,-0.006,-0.031,-0.974,0.294,0.493,-85.236,10.053,20.617
1746585940.17,-0.187,0.037,-0.027,-0.742,0.310,0.264,-86.094,19.524,29.752
1746585940.19,-0.130,0.019,0.022,-0.419,0.406,0.100,-86.636,26.748,36.600
1746585940.21,-0.062,-0.011,0.052,-0.140,0.400,0.104,-86.848,31.484,40.858
1746585940.23,-0.085,-0.012,-0.070,-0.074,0.322,0.060,-86.870,34.205,43.186
1746585940.25,-0.037,0.022,-0.192,-0.507,0.549,0.104,-87.061,39.261,47.772
1746585940.27,0.061,0.020,-0.126,-0.593,0.579,0.159,-87.445,53.043,60.894
1746585940.29,0.075,-0.024,-0.053,-0.047,0.242,0.188,-87.480,63.145,70.495
1746585940.31,0.079,-0.081,0.179,0.133,0.085,0.187,-87.221,62.842,70.097
1746585940.33,0.036,-0.039,0.144,-0.289,0.513,0.172,-87.090,66.906,73.775
1746585940.35,-0.010,0.040,-0.190,-0.077,-0.020,0.149,-86.986,73.093,79.648
1746585940.37,-0.106,0.111,-0.203,0.024,-0.195,0.016,-86.904,73.350,80.091
1746585940.39,-0.111,0.021,0.033,0.063,0.044,-0.022,-86.897,72.572,79.410
1746585940.41,-0.039,-0.058,0.144,0.119,0.288,-0.013,-86.884,70.541,77.183
1746585940.43,0.014,-0.046,0.052,0.041,0.436,0.052,-86.831,69.592,75.800
1746585940.45,-0.012,0.017,-0.146,0.053,0.235,0.026,-86.765,69.591,75.375
1746585940.47,-0.038,0.045,-0.114,0.067,-0.073,-0.054,-86.755,68.486,74.195
1746585940.49,0.016,0.001,0.067,0.027,-0.010,-0.066,-86.805,66.792,72.573
1746585940.51,0.070,-0.031,0.041,-0.032,0.110,-0.006,-86.845,66.714,72.426
1746585940.53,0.048,-0.031,-0.049,-0.013,-0.060,0.034,-86.838,67.361,73.018
1746585940.55,0.001,-0.024,0.007,-0.058,-0.041,0.024,-86.815,67.886,73.643
1746585940.57,-0.029,0.026,-0.027,-0.060,0.047,-0.006,-86.833,69.509,75.225
1746585940.59,-0.061,0.044,-0.036,0.015,-0.135,-0.066,-86.881,69.472,75.260
1746585940.61,-0.028,-0.011,0.091,0.011,-0.013,-0.046,-86.939,68.655,74.531
1746585940.63,-0.002,-0.025,0.049,0.076,0.067,0.005,-86.942,67.689,73.533
1746585940.65,-0.036,0.017,-0.033,0.115,0.190,0.024,-86.873,66.035,71.721
1746585940.67,-0.093,0.055,-0.057,0.104,0.092,-0.081,-86.845,63.842,69.344
1746585940.69,-0.054,0.027,0.026,0.113,-0.011,-0.116,-86.906,60.932,66.401
1746585940.71,0.028,-0.028,0.094,0.094,0.050,-0.056,-86.933,58.117,63.561
1746585940.73,0.031,-0.054,0.072,0.018,-0.018,-0.006,-86.923,56.709,62.118
1746585940.75,-0.018,-0.058,0.016,-0.028,-0.275,-0.012,-86.937,56.587,62.152
1746585940.77,-0.007,-0.034,0.009,-0.030,-0.549,-0.011,-86.973,56.402,62.454
1746585940.79,0.012,0.007,0.006,0.007,-0.578,-0.009,-86.997,56.151,62.853
1746585940.81,-0.061,0.023,-0.013,0.143,-0.560,-0.057,-86.977,53.919,61.273
1746585940.83,-0.161,0.029,-0.024,0.252,-0.485,-0.099,-86.902,48.846,56.796
1746585940.85,-0.207,0.035,0.004,0.290,-0.396,-0.124,-86.774,42.667,51.113
1746585940.87,-0.173,0.012,0.079,0.409,-0.331,-0.118,-86.565,36.152,44.996
1746585940.89,-0.085,-0.030,0.075,0.583,-0.271,-0.078,-86.147,29.533,38.713
1746585940.91,-0.022,-0.042,0.022,0.811,-0.116,-0.049,-85.473,23.593,32.985
1746585940.93,0.001,-0.022,-0.046,1.026,0.051,-0.014,-84.498,18.873,28.279
1746585940.95,-0.049,0.001,-0.030,1.111,0.064,-0.069,-83.327,15.246,24.546
1746585940.97,-0.117,0.044,-0.085,1.166,-0.006,-0.181,-82.092,11.788,21.044
1746585940.99,-0.045,0.034,-0.079,0.990,0.338,-0.268,-80.907,8.662,17.727
1746585941.01,0.051,-0.081,0.142,0.800,0.775,-0.149,-79.951,7.062,15.439
1746585941.03,0.042,-0.102,0.195,1.097,0.587,-0.100,-78.938,6.560,14.074
1746585941.05,0.057,-0.064,0.007,1.557,0.076,-0.164,-77.414,5.472,12.586
1746585941.07,0.084,-0.021,0.028,1.528,-0.128,-0.242,-75.638,3.802,10.920
1746585941.09,-0.062,0.054,0.042,1.187,-0.566,-0.315,-74.119,1.967,9.391
1746585941.11,-0.160,0.093,-0.104,1.101,-0.365,-0.288,-72.826,0.056,8.053
1746585941.13,-0.128,0.043,0.002,1.112,0.236,-0.156,-71.587,-0.810,7.229
1746585941.15,-0.012,-0.020,0.026,1.312,0.695,-0.065,-70.204,-0.536,6.924
1746585941.17,0.025,-0.034,0.149,1.318,0.623,-0.111,-68.685,0.074,6.684
1746585941.19,-0.096,-0.040,-0.080,1.480,0.121,-0.196,-67.088,0.024,6.218
1746585941.21,-0.197,-0.075,-0.204,1.167,0.129,-0.131,-65.516,-0.343,5.712
1746585941.23,-0.020,-0.040,-0.051,0.676,0.677,0.020,-64.495,-0.043,5.583
1746585941.25,0.267,0.013,0.147,1.067,0.983,0.160,-63.600,1.225,5.804
1746585941.27,0.197,0.020,0.044,1.539,0.129,0.012,-62.042,2.072,6.013
1746585941.29,-0.075,-0.027,-0.015,1.540,-0.620,-0.030,-60.268,1.493,5.747
1746585941.31,0.025,-0.126,-0.204,0.913,0.240,0.242,-58.802,1.317,5.896
1746585941.33,0.232,-0.125,0.138,0.634,0.092,0.443,-58.003,2.280,6.666
1746585941.35,0.298,0.055,0.149,1.252,-0.246,0.331,-56.924,2.792,7.426
1746585941.37,0.101,0.212,0.030,1.312,0.078,0.106,-55.364,2.932,7.733
1746585941.39,-0.075,0.172,-0.118,0.765,-0.101,0.184,-54.164,3.025,7.867
1746585941.41,-0.051,-0.006,-0.042,0.733,0.101,0.391,-53.361,3.408,8.407
1746585941.43,-0.017,-0.064,0.095,1.101,0.044,0.298,-52.292,3.992,9.048
1746585941.45,-0.080,-0.080,0.075,1.340,0.145,0.084,-50.871,4.208,9.290
1746585941.47,-0.141,-0.094,0.009,1.426,0.157,0.097,-49.281,4.312,9.278
1746585941.49,-0.074,-0.100,-0.138,1.210,0.327,0.219,-47.706,4.662,9.428
1746585941.51,0.028,-0.085,0.020,0.810,0.258,0.287,-46.567,5.224,9.781
1746585941.53,0.066,-0.039,0.143,1.112,0.265,0.105,-45.519,5.675,10.034
1746585941.55,0.085,0.004,0.053,1.500,0.106,-0.022,-43.992,5.780,9.902
1746585941.57,0.067,0.034,-0.073,1.390,-0.020,0.128,-42.301,5.672,9.778
1746585941.59,0.053,-0.026,-0.038,0.969,0.175,0.281,-40.939,5.877,9.966
1746585941.61,-0.050,-0.116,0.008,0.975,0.155,0.276,-39.839,6.240,10.297
1746585941.63,-0.073,-0.053,0.051,1.209,0.206,0.128,-38.577,6.534,10.455
1746585941.65,-0.020,-0.030,0.052,1.376,0.135,0.159,-37.071,6.679,10.447
1746585941.67,-0.015,-0.080,-0.081,1.302,0.206,0.167,-35.496,6.921,10.491
1746585941.69,-0.055,-0.036,-0.078,0.955,0.201,0.127,-34.209,7.155,10.512
1746585941.71,-0.040,0.002,0.055,0.979,0.188,0.113,-33.141,7.387,10.555
1746585941.73,-0.020,0.024,0.110,1.278,-0.063,0.135,-31.825,7.410,10.539
1746585941.75,-0.011,-0.057,0.011,1.278,0.129,-0.016,-30.344,7.384,10.432
1746585941.77,0.005,-0.120,-0.051,1.155,0.082,-0.102,-28.975,7.373,10.125
1746585941.79,0.079,-0.042,0.020,1.053,0.105,0.084,-27.744,7.393,9.914
1746585941.81,0.050,-0.008,-0.002,0.988,0.248,0.156,-26.569,7.594,9.954
1746585941.83,0.005,-0.002,0.005,1.010,0.118,0.122,-25.427,7.806,9.956
1746585941.85,0.092,0.005,0.056,0.970,0.185,0.191,-24.262,7.993,9.981
1746585941.87,0.037,-0.070,0.040,0.960,0.281,0.218,-23.156,8.255,10.083
1746585941.89,-0.103,-0.113,-0.078,0.966,0.291,0.255,-22.023,8.653,10.198
1746585941.91,-0.075,0.008,-0.001,0.976,0.299,0.300,-20.875,9.048,10.356
1746585941.93,0.052,0.047,0.105,1.030,0.178,0.171,-19.694,9.341,10.440
1746585941.95,0.025,-0.061,0.136,1.055,0.239,0.107,-18.508,9.538,10.378
1746585941.97,-0.074,-0.144,-0.072,1.097,0.222,0.078,-17.274,9.826,10.296
1746585941.99,-0.025,0.029,0.021,1.066,0.272,0.030,-16.037,10.042,10.121
1746585942.01,0.113,0.073,0.140,1.141,0.051,0.026,-14.807,10.203,9.889
1746585942.02,-0.016,-0.010,0.081,1.079,0.075,0.149,-13.541,10.199,9.720
1746585942.04,-0.081,-0.029,0.004,1.120,0.330,0.214,-12.265,10.431,9.667
1746585942.06,-0.102,-0.008,-0.049,1.147,0.445,0.198,-10.965,10.866,9.636
1746585942.08,-0.065,0.040,-0.000,1.245,0.307,-0.016,-9.586,11.307,9.470
1746585942.10,0.028,0.072,0.008,1.213,0.053,0.068,-8.199,11.465,9.148
1746585942.12,0.002,-0.054,0.055,1.180,0.132,0.152,-6.836,11.545,8.955
1746585942.14,-0.080,-0.037,-0.012,1.214,0.236,0.039,-5.493,11.739,8.755
1746585942.16,-0.020,-0.043,-0.123,1.288,0.114,-0.076,-4.065,11.933,8.366
1746585942.18,0.163,-0.090,-0.011,1.216,0.117,0.183,-2.680,12.016,8.047
1746585942.20,0.080,-0.002,0.025,1.269,0.360,0.271,-1.230,12.254,7.992
1746585942.22,-0.059,0.043,0.067,1.258,0.542,0.291,0.265,12.811,7.950
1746585942.24,-0.056,-0.095,0.067,1.152,0.577,0.259,1.681,13.451,7.863
1746585942.26,0.189,-0.093,-0.127,1.142,0.425,0.364,3.025,14.031,7.821
1746585942.28,0.177,0.020,-0.214,1.076,0.384,0.504,4.394,14.451,7.924
1746585942.30,0.006,0.017,-0.067,1.082,0.382,0.391,5.707,14.869,8.055
1746585942.32,-0.074,0.015,-0.017,1.040,0.310,0.254,6.978,15.249,8.005
1746585942.34,-0.051,-0.007,-0.115,0.982,0.189,0.225,8.177,15.529,7.874
1746585942.36,0.016,0.025,-0.189,0.956,0.204,0.232,9.320,15.758,7.745
1746585942.38,-0.138,0.087,-0.126,1.006,0.309,0.068,10.435,16.105,7.498
1746585942.40,-0.094,0.015,-0.072,1.018,0.250,-0.144,11.543,16.502,7.009
1746585942.42,0.103,-0.059,-0.052,0.964,0.101,-0.152,12.575,16.817,6.405
1746585942.44,0.139,-0.052,-0.169,0.833,0.008,-0.052,13.524,16.950,5.878
1746585942.46,0.033,-0.039,-0.139,0.685,0.116,0.053,14.359,17.079,5.516
1746585942.48,-0.033,-0.061,-0.058,0.635,0.225,0.015,15.089,17.360,5.218
1746585942.50,0.003,-0.094,-0.096,0.550,0.164,-0.030,15.732,17.658,4.886
1746585942.52,0.153,-0.124,-0.163,0.359,0.048,0.081,16.244,17.811,4.642
1746585942.54,0.116,-0.143,-0.177,0.173,0.061,0.137,16.566,17.845,4.587
1746585942.56,0.023,-0.150,-0.128,0.070,0.107,0.070,16.725,17.926,4.583
1746585942.58,-0.021,-0.159,-0.152,-0.086,-0.016,-0.069,16.723,18.000,4.488
1746585942.60,0.175,-0.222,-0.288,-0.383,-0.236,-0.092,16.454,17.858,4.399
1746585942.62,0.170,-0.244,-0.346,-0.604,-0.495,-0.157,15.853,17.413,4.360
1746585942.64,0.093,-0.197,-0.311,-0.702,-0.543,-0.253,15.080,16.800,4.303
1746585942.66,-0.017,-0.143,-0.281,-0.979,-0.390,-0.320,14.086,16.259,4.186
1746585942.68,0.065,-0.128,-0.290,-1.268,-0.271,-0.202,12.758,15.889,4.218
1746585942.70,0.054,-0.087,-0.341,-1.460,-0.259,-0.179,11.184,15.533,4.405
1746585942.72,0.032,-0.033,-0.336,-1.605,-0.263,-0.245,9.446,15.189,4.608
1746585942.74,-0.040,-0.046,-0.180,-1.752,-0.206,-0.329,7.497,14.890,4.757
1746585942.76,-0.027,-0.034,-0.122,-1.788,-0.166,-0.414,5.425,14.668,4.842
1746585942.78,-0.042,-0.017,-0.130,-1.772,-0.176,-0.473,3.336,14.462,4.843
1746585942.80,-0.045,-0.005,-0.090,-1.773,-0.156,-0.481,1.234,14.267,4.804
1746585942.82,-0.048,-0.055,-0.046,-1.835,-0.066,-0.476,-0.900,14.141,4.791
1746585942.84,0.014,-0.063,-0.056,-1.770,-0.211,-0.494,-3.028,14.014,4.775
1746585942.86,0.008,-0.064,0.022,-1.792,-0.243,-0.493,-5.142,13.717,4.721
1746585942.88,-0.051,-0.143,0.007,-1.720,-0.182,-0.409,-7.215,13.483,4.712
1746585942.90,-0.103,-0.135,-0.036,-1.733,-0.146,-0.372,-9.220,13.300,4.774
1746585942.92,0.036,-0.128,0.041,-1.709,-0.155,-0.418,-11.241,13.157,4.823
1746585942.94,0.035,-0.169,-0.021,-1.606,-0.449,-0.482,-13.206,12.807,4.786
1746585942.96,-0.080,-0.304,-0.141,-1.651,-0.432,-0.480,-15.116,12.210,4.684
1746585942.98,-0.099,-0.222,0.027,-1.668,-0.281,-0.526,-17.110,11.793,4.585
1746585943.00,-0.024,-0.096,0.064,-1.604,-0.547,-0.656,-19.079,11.241,4.343
1746585943.02,0.044,-0.070,-0.023,-1.628,-0.583,-0.609,-21.015,10.417,3.992
1746585943.04,0.128,-0.132,0.000,-1.798,-0.504,-0.381,-23.041,9.721,3.850
1746585943.06,0.175,-0.174,0.137,-1.742,-0.273,-0.205,-25.115,9.276,3.911
1746585943.08,0.161,-0.176,0.161,-1.729,-0.131,-0.159,-27.093,9.103,4.117
1746585943.10,0.113,-0.146,0.069,-1.715,-0.037,-0.202,-29.068,9.086,4.315
1746585943.12,0.103,-0.093,-0.041,-1.733,-0.149,-0.250,-31.045,9.018,4.450
1746585943.14,0.090,-0.097,0.012,-1.700,-0.341,-0.282,-33.029,8.751,4.522
1746585943.16,0.058,-0.101,-0.007,-1.747,-0.423,-0.291,-35.021,8.263,4.504
1746585943.18,0.073,-0.111,0.066,-1.793,-0.257,-0.278,-37.070,7.841,4.507
1746585943.20,0.071,-0.112,0.012,-1.722,-0.272,-0.368,-39.118,7.500,4.481
1746585943.22,-0.009,-0.082,-0.034,-1.592,-0.465,-0.478,-41.050,6.875,4.233
1746585943.24,-0.035,-0.058,0.014,-1.706,-0.496,-0.505,-42.954,5.982,3.837
1746585943.26,0.032,-0.047,0.015,-1.933,-0.347,-0.363,-45.088,5.196,3.504
1746585943.28,0.141,-0.081,0.069,-1.833,-0.445,-0.163,-47.289,4.657,3.439
1746585943.30,0.134,-0.073,0.003,-1.580,-0.609,-0.092,-49.234,4.082,3.571
1746585943.32,0.049,-0.015,-0.008,-1.518,-0.755,-0.320,-51.001,3.176,3.489
1746585943.34,-0.027,-0.007,-0.045,-1.527,-0.757,-0.546,-52.751,1.731,2.848
1746585943.36,-0.124,-0.050,-0.009,-1.667,-0.739,-0.597,-54.569,0.029,1.766
1746585943.38,-0.142,-0.096,0.071,-1.859,-0.619,-0.440,-56.586,-1.724,0.661
1746585943.40,-0.040,-0.134,0.117,-1.820,-0.459,-0.112,-58.690,-2.966,-0.018
1746585943.42,0.075,-0.126,0.055,-1.646,-0.408,0.148,-60.667,-3.599,-0.174
1746585943.44,0.123,-0.113,0.081,-1.580,-0.414,0.269,-62.513,-3.822,0.095
1746585943.46,0.112,-0.116,0.108,-1.632,-0.550,0.231,-64.358,-3.988,0.499
1746585943.48,0.070,-0.079,-0.032,-1.605,-0.695,0.086,-66.221,-4.633,0.591
1746585943.50,0.038,-0.057,-0.068,-1.795,-0.775,0.178,-68.126,-5.600,0.458
1746585943.52,0.070,-0.099,0.082,-1.960,-0.624,0.542,-70.340,-5.939,0.966
1746585943.54,0.044,-0.093,0.111,-1.662,-0.628,0.731,-72.510,-4.957,2.716
1746585943.56,-0.028,0.001,-0.048,-1.255,-0.830,0.416,-74.196,-3.894,4.728
1746585943.58,-0.049,0.028,-0.042,-1.368,-0.419,0.010,-75.680,-4.245,5.147
1746585943.60,-0.028,-0.034,0.012,-1.371,-0.107,-0.076,-77.250,-5.351,4.272
1746585943.62,-0.011,-0.057,-0.008,-1.290,-0.300,0.105,-78.764,-6.232,3.575
1746585943.64,-0.031,-0.035,0.010,-1.163,-0.493,0.214,-80.189,-6.462,3.838
1746585943.66,-0.088,-0.046,-0.006,-0.855,-0.230,0.075,-81.365,-6.616,4.126
1746585943.68,-0.096,-0.068,-0.036,-0.585,0.068,-0.085,-82.163,-7.511,3.302
1746585943.70,-0.034,-0.063,-0.028,-0.471,0.097,0.007,-82.734,-8.501,2.176
1746585943.72,0.009,-0.042,-0.015,-0.551,-0.143,0.209,-83.325,-8.128,2.560
1746585943.74,-0.004,-0.009,-0.039,-0.596,-0.223,0.289,-84.019,-6.485,4.468
1746585943.76,0.002,0.008,0.012,-0.653,0.063,0.331,-84.759,-3.584,7.490
1746585943.78,0.022,0.023,0.056,-0.582,0.201,0.284,-85.485,0.534,11.439
1746585943.80,0.038,0.031,0.069,-0.488,0.112,0.261,-86.083,5.295,16.026
1746585943.82,0.032,0.016,0.096,-0.292,-0.039,0.210,-86.485,10.463,21.166
1746585943.84,-0.081,-0.009,-0.012,-0.344,-0.073,0.157,-86.765,15.050,25.831
1746585943.86,-0.145,-0.007,-0.110,-0.556,-0.096,0.111,-87.212,20.650,31.544
1746585943.88,-0.074,-0.006,-0.031,-0.655,0.056,0.164,-87.787,30.616,41.558
1746585943.90,0.019,-0.014,0.112,-0.543,0.092,0.309,-88.163,49.519,60.355
1746585943.92,0.010,-0.019,0.089,-0.271,-0.001,0.296,-88.092,67.537,78.341
1746585943.94,-0.109,0.005,-0.031,-0.077,-0.169,0.167,-87.896,74.924,85.808
1746585943.96,-0.222,0.059,-0.194,-0.110,-0.502,0.035,-87.807,77.345,88.619
1746585943.98,-0.180,0.084,-0.127,-0.137,-0.517,-0.023,-87.834,80.755,92.659
1746585944.00,-0.084,0.074,0.026,0.026,-0.078,0.005,-87.863,82.324,94.602
1746585944.02,-0.056,0.021,0.076,0.298,0.263,0.015,-87.810,77.651,89.786
1746585944.04,-0.090,-0.027,0.033,0.367,0.251,-0.011,-87.691,68.081,79.895
1746585944.06,-0.087,-0.013,0.026,0.277,0.200,-0.008,-87.544,60.258,71.813
1746585944.08,-0.033,0.014,0.050,0.238,0.146,0.007,-87.387,54.938,66.288
1746585944.10,-0.019,0.008,0.008,0.246,0.034,-0.008,-87.223,50.396,61.641
1746585944.12,-0.001,-0.027,-0.023,0.110,0.083,0.026,-87.072,47.165,58.351
1746585944.14,0.011,-0.033,0.036,-0.021,0.131,0.051,-87.015,47.391,58.447
1746585944.16,0.012,-0.048,0.093,0.003,0.103,0.050,-86.984,48.594,59.513
1746585944.18,-0.008,-0.025,0.060,0.020,0.032,0.038,-86.939,49.006,59.840
1746585944.20,-0.040,0.005,-0.010,-0.026,-0.115,0.022,-86.906,49.327,60.213
1746585944.22,-0.053,0.014,-0.058,-0.021,-0.186,0.005,-86.927,49.889,60.958
1746585944.24,-0.033,-0.011,-0.080,0.152,-0.145,0.023,-86.875,49.044,60.320
1746585944.26,0.003,-0.015,-0.066,0.276,-0.005,0.041,-86.676,46.071,57.417
1746585944.28,-0.005,-0.007,-0.049,0.350,-0.230,0.069,-86.382,42.693,54.129
1746585944.30,-0.030,-0.002,-0.121,0.473,-0.496,0.035,-85.979,38.363,50.244
1746585944.32,-0.020,0.022,-0.092,0.516,-0.261,-0.051,-85.525,33.283,45.600
