Time,AccX,AccY,AccZ,GyroX,GyroY,GyroZ,Pitch,Roll,Yaw
1747656496.46,0.016,0.009,0.008,0.049,0.200,-0.085,-85.896,12.164,-2.572
1747656496.47,0.018,0.025,0.012,0.039,0.182,-0.059,-85.880,11.632,-3.214
1747656496.47,0.006,0.030,0.005,0.039,0.174,-0.033,-85.864,11.304,-3.646
1747656496.48,-0.014,0.020,0.009,0.033,0.162,-0.027,-85.850,11.097,-3.949
1747656496.49,-0.032,0.007,0.008,0.009,0.142,-0.031,-85.843,10.852,-4.282
1747656496.50,-0.030,-0.009,0.007,-0.009,0.141,-0.030,-85.849,10.570,-4.644
1747656496.51,-0.016,-0.019,0.016,0.006,0.153,-0.041,-85.858,10.230,-5.067
1747656496.52,-0.005,-0.016,0.021,0.017,0.186,-0.043,-85.858,9.967,-5.429
1747656496.53,-0.003,-0.010,0.026,0.010,0.151,-0.044,-85.854,9.766,-5.730
1747656496.54,-0.025,-0.002,0.010,-0.023,0.084,-0.040,-85.864,9.580,-5.983
1747656496.55,-0.036,0.003,-0.027,-0.038,0.083,-0.044,-85.887,9.359,-6.250
1747656496.56,-0.010,-0.009,-0.038,-0.059,0.091,-0.040,-85.919,9.095,-6.562
1747656496.57,0.034,-0.018,-0.018,-0.078,0.114,-0.012,-85.963,8.967,-6.749
1747656496.58,0.081,-0.023,0.003,-0.069,0.103,0.018,-86.007,9.123,-6.655
1747656496.59,0.103,-0.014,-0.005,-0.027,0.044,0.029,-86.034,9.412,-6.410
1747656496.60,0.088,0.001,-0.026,0.011,-0.041,0.022,-86.037,9.628,-6.193
1747656496.61,0.064,0.014,-0.047,0.033,-0.127,0.007,-86.024,9.672,-6.099
1747656496.62,0.040,0.018,-0.059,0.051,-0.187,-0.009,-86.000,9.509,-6.171
1747656496.63,0.011,0.012,-0.057,0.073,-0.181,-0.017,-85.965,9.188,-6.387
1747656496.64,-0.021,-0.007,-0.049,0.078,-0.153,-0.029,-85.922,8.813,-6.665
1747656496.65,-0.058,-0.018,-0.050,0.071,-0.093,-0.045,-85.882,8.392,-7.016
1747656496.66,-0.078,-0.018,-0.038,0.071,-0.027,-0.046,-85.846,7.959,-7.415
1747656496.67,-0.080,-0.009,-0.024,0.059,0.055,-0.046,-85.812,7.573,-7.812
1747656496.68,-0.074,0.004,-0.012,0.056,0.079,-0.063,-85.783,7.164,-8.262
1747656496.69,-0.059,0.010,-0.016,0.055,0.083,-0.067,-85.754,6.663,-8.810
1747656496.70,-0.027,-0.000,-0.011,0.045,0.119,-0.032,-85.727,6.311,-9.221
1747656496.71,-0.000,-0.017,0.015,0.034,0.145,-0.021,-85.706,6.166,-9.443
1747656496.72,-0.004,-0.022,0.021,0.033,0.157,-0.026,-85.688,6.037,-9.658
1747656496.73,-0.011,-0.007,0.023,0.020,0.160,-0.022,-85.673,5.900,-9.888
1747656496.74,-0.010,0.010,0.028,0.007,0.139,-0.010,-85.666,5.836,-10.037
1747656496.75,-0.005,0.014,0.026,0.006,0.121,-0.002,-85.662,5.821,-10.126
1747656496.76,0.010,0.013,0.031,0.017,0.092,-0.009,-85.656,5.774,-10.234
1747656496.77,0.012,0.020,0.041,0.030,0.057,-0.019,-85.642,5.635,-10.417
1747656496.78,0.001,0.020,0.046,0.031,0.020,-0.035,-85.626,5.406,-10.667
1747656496.79,-0.016,0.006,0.032,0.049,0.014,-0.051,-85.608,5.064,-11.018
1747656496.80,-0.020,-0.003,0.012,0.054,0.015,-0.047,-85.580,4.665,-11.426
1747656496.81,-0.015,-0.010,0.010,0.018,0.002,-0.025,-85.563,4.371,-11.727
1747656496.82,-0.002,-0.016,0.016,-0.022,-0.019,0.000,-85.570,4.267,-11.826
1747656496.83,0.017,-0.025,0.003,0.001,-0.078,0.025,-85.583,4.346,-11.720
1747656496.84,0.035,-0.040,-0.036,0.034,-0.114,0.045,-85.578,4.581,-11.427
1747656496.85,0.049,-0.053,-0.041,0.035,-0.118,0.041,-85.563,4.858,-11.082
1747656496.86,0.060,-0.027,-0.038,0.034,-0.115,0.025,-85.548,5.018,-10.856
1747656496.87,0.043,0.013,-0.042,0.061,-0.130,-0.002,-85.525,4.992,-10.813
1747656496.88,0.004,0.042,-0.061,0.127,-0.125,-0.039,-85.475,4.697,-11.032
1747656496.89,-0.026,0.052,-0.069,0.194,-0.080,-0.055,-85.386,4.183,-11.489
1747656496.90,-0.035,0.041,-0.063,0.206,-0.027,-0.050,-85.273,3.692,-11.952
1747656496.91,-0.043,0.020,-0.046,0.177,-0.004,-0.033,-85.165,3.340,-12.296
1747656496.92,-0.051,-0.011,-0.028,0.156,-0.005,-0.001,-85.070,3.179,-12.456
1747656496.93,-0.033,-0.046,-0.019,0.145,-0.000,0.054,-84.980,3.342,-12.292
1747656496.94,0.002,-0.072,-0.017,0.119,0.005,0.100,-84.898,3.853,-11.780
1747656496.95,0.030,-0.077,-0.012,0.064,0.009,0.098,-84.840,4.495,-11.139
1747656496.96,0.035,-0.046,-0.003,0.038,0.000,0.052,-84.807,4.949,-10.687
1747656496.97,0.014,-0.007,0.010,0.054,-0.032,0.009,-84.778,5.078,-10.549
1747656496.98,0.002,0.017,0.004,0.095,-0.104,0.001,-84.734,4.995,-10.595
1747656496.99,0.015,0.039,-0.018,0.152,-0.204,0.020,-84.661,4.866,-10.636
1747656497.00,0.041,0.052,-0.035,0.198,-0.299,0.036,-84.559,4.775,-10.584
1747656497.01,0.070,0.048,-0.048,0.238,-0.391,0.060,-84.432,4.736,-10.424
1747656497.02,0.078,0.028,-0.044,0.267,-0.410,0.057,-84.284,4.731,-10.197
1747656497.03,0.046,0.007,-0.016,0.293,-0.383,0.045,-84.120,4.674,-10.026
1747656497.04,-0.016,-0.007,0.008,0.299,-0.315,0.019,-83.949,4.543,-9.957
1747656497.05,-0.088,-0.014,0.034,0.262,-0.240,-0.012,-83.790,4.294,-10.047
1747656497.06,-0.148,-0.009,0.058,0.234,-0.121,-0.030,-83.651,3.981,-10.257
1747656497.07,-0.172,0.003,0.079,0.234,-0.012,-0.013,-83.519,3.738,-10.463
1747656497.08,-0.158,0.023,0.063,0.239,0.109,0.039,-83.384,3.748,-10.481
1747656497.09,-0.106,0.035,0.071,0.224,0.190,0.100,-83.249,4.104,-10.211
1747656497.10,-0.057,0.033,0.093,0.206,0.184,0.117,-83.123,4.653,-9.768
1747656497.11,-0.028,0.026,0.103,0.236,0.189,0.101,-82.993,5.188,-9.333
1747656497.12,-0.009,0.017,0.122,0.258,0.234,0.075,-82.847,5.598,-9.042
1747656497.13,-0.019,0.006,0.137,0.281,0.200,0.047,-82.693,5.875,-8.892
1747656497.14,-0.053,-0.011,0.081,0.341,0.131,0.035,-82.513,6.005,-8.857
1747656497.15,-0.066,-0.012,0.017,0.351,0.104,0.029,-82.312,6.049,-8.877
1747656497.16,-0.052,-0.005,0.038,0.326,0.146,0.041,-82.118,6.117,-8.879
1747656497.17,-0.016,0.004,0.064,0.347,0.173,0.051,-81.926,6.252,-8.837
1747656497.18,0.026,0.015,0.048,0.380,0.197,0.048,-81.716,6.397,-8.796
1747656497.19,0.060,0.025,0.051,0.369,0.224,0.048,-81.499,6.535,-8.778
1747656497.20,0.077,0.026,0.080,0.361,0.159,0.048,-81.291,6.675,-8.751
1747656497.21,0.049,0.014,0.069,0.415,0.047,0.036,-81.070,6.719,-8.764
1747656497.22,0.004,-0.009,0.044,0.450,0.025,0.030,-80.819,6.668,-8.834
1747656497.23,-0.004,-0.034,0.052,0.448,0.053,0.041,-80.561,6.632,-8.892
1747656497.24,0.007,-0.044,0.065,0.475,0.103,0.050,-80.298,6.655,-8.913
1747656497.25,0.008,-0.023,0.070,0.518,0.134,0.044,-80.013,6.691,-8.947
1747656497.26,-0.011,0.017,0.071,0.527,0.102,0.023,-79.714,6.674,-9.034
1747656497.27,-0.045,0.045,0.070,0.526,0.065,0.013,-79.414,6.587,-9.171
1747656497.28,-0.054,0.043,0.060,0.546,0.063,0.026,-79.109,6.499,-9.297
1747656497.29,-0.043,0.029,0.042,0.580,0.085,0.028,-78.789,6.438,-9.401
1747656497.30,-0.046,0.010,0.029,0.625,0.154,0.035,-78.443,6.397,-9.511
1747656497.31,-0.049,-0.027,0.044,0.603,0.195,0.069,-78.088,6.449,-9.561
1747656497.32,-0.058,-0.067,0.039,0.557,0.190,0.093,-77.755,6.599,-9.521
1747656497.33,-0.055,-0.095,-0.031,0.527,0.235,0.133,-77.441,6.839,-9.397
1747656497.34,0.007,-0.091,-0.077,0.507,0.263,0.169,-77.138,7.206,-9.168
1747656497.35,0.073,-0.038,-0.094,0.545,0.255,0.167,-76.831,7.606,-8.910
1747656497.36,0.097,0.030,-0.085,0.647,0.226,0.114,-76.483,7.892,-8.759
1747656497.37,0.058,0.087,-0.062,0.747,0.107,0.012,-76.083,7.916,-8.834
1747656497.38,-0.045,0.113,-0.086,0.830,0.006,-0.089,-75.640,7.604,-9.186
1747656497.39,-0.126,0.071,-0.095,0.842,-0.023,-0.100,-75.170,7.147,-9.652
1747656497.40,-0.126,-0.001,-0.056,0.750,0.022,-0.055,-74.723,6.767,-10.042
1747656497.41,-0.078,-0.068,0.010,0.720,0.179,0.006,-74.313,6.600,-10.274
1747656497.42,-0.021,-0.113,0.047,0.813,0.301,0.043,-73.878,6.617,-10.403
1747656497.43,0.010,-0.109,0.013,0.847,0.343,0.067,-73.398,6.723,-10.490
1747656497.44,0.016,-0.062,-0.033,0.787,0.290,0.119,-72.927,6.894,-10.502
1747656497.45,0.004,-0.014,-0.067,0.731,0.279,0.198,-72.486,7.173,-10.376
1747656497.46,0.020,0.013,-0.037,0.705,0.346,0.224,-72.065,7.567,-10.149
1747656497.47,0.042,0.027,0.042,0.732,0.292,0.191,-71.644,7.949,-9.943
1747656497.48,0.040,0.027,0.071,0.792,0.231,0.164,-71.198,8.208,-9.871
1747656497.49,0.044,0.011,0.085,0.827,0.173,0.175,-70.727,8.406,-9.787
1747656497.50,0.033,0.001,0.067,0.862,0.043,0.196,-70.234,8.562,-9.742
1747656497.51,-0.005,0.000,0.028,0.872,-0.026,0.188,-69.725,8.660,-9.638
1747656497.52,-0.022,-0.010,0.053,0.859,0.038,0.186,-69.221,8.741,-9.600
1747656497.53,-0.018,-0.026,0.065,0.902,0.137,0.157,-68.711,8.853,-9.535
1747656497.54,-0.052,-0.022,0.052,0.939,0.100,0.092,-68.178,8.897,-9.617
1747656497.55,-0.124,-0.006,0.039,0.923,0.014,0.072,-67.644,8.827,-9.722
1747656497.56,-0.160,0.007,0.022,0.904,0.037,0.084,-67.122,8.751,-9.866
1747656497.57,-0.121,0.022,-0.005,0.880,0.128,0.123,-66.609,8.752,-9.915
1747656497.58,-0.039,0.029,-0.018,0.862,0.271,0.134,-66.106,8.856,-9.976
1747656497.59,0.028,0.023,0.076,0.887,0.386,0.077,-65.604,9.021,-10.017
1747656497.60,0.043,0.012,0.137,0.955,0.243,0.033,-65.082,9.085,-10.190
1747656497.61,0.020,0.001,0.053,1.012,0.165,0.072,-64.521,9.067,-10.334
1747656497.62,0.018,-0.033,-0.004,0.981,0.126,0.151,-63.945,9.093,-10.442
1747656497.63,0.025,-0.073,-0.033,0.905,0.102,0.210,-63.399,9.190,-10.402
1747656497.64,0.062,-0.117,-0.056,0.932,0.117,0.212,-62.869,9.327,-10.365
1747656497.65,0.082,-0.137,-0.070,1.045,0.158,0.105,-62.297,9.412,-10.356
1747656497.66,0.025,-0.107,-0.064,1.137,0.147,-0.095,-61.681,9.318,-10.627
1747656497.67,-0.102,-0.052,-0.044,1.195,0.063,-0.237,-61.037,9.003,-11.053
1747656497.68,-0.204,0.002,-0.039,1.143,0.065,-0.229,-60.394,8.613,-11.598
1747656497.69,-0.201,0.035,-0.079,1.070,0.093,-0.124,-59.787,8.315,-11.996
1747656497.70,-0.117,0.035,-0.107,1.008,0.177,0.021,-59.205,8.198,-12.276
1747656497.71,0.016,0.001,-0.041,0.954,0.269,0.168,-58.647,8.280,-12.328
1747656497.72,0.162,-0.044,0.054,1.015,0.279,0.230,-58.076,8.501,-12.315
1747656497.73,0.215,-0.077,0.081,1.113,0.139,0.174,-57.457,8.659,-12.273
1747656497.74,0.174,-0.082,0.027,1.111,-0.031,0.172,-56.810,8.687,-12.342
1747656497.75,0.153,-0.080,-0.021,1.040,-0.128,0.228,-56.185,8.671,-12.306
1747656497.76,0.150,-0.074,0.011,1.009,-0.212,0.282,-55.588,8.656,-12.205
1747656497.77,0.141,-0.049,0.063,1.040,-0.220,0.326,-54.984,8.650,-12.057
1747656497.78,0.140,0.000,0.110,1.009,-0.146,0.339,-54.374,8.688,-11.882
1747656497.79,0.085,0.055,0.135,0.937,-0.100,0.331,-53.796,8.764,-11.705
1747656497.80,-0.004,0.096,0.074,0.901,-0.102,0.333,-53.251,8.855,-11.523
1747656497.81,-0.060,0.103,0.029,0.906,-0.177,0.355,-52.710,8.929,-11.336
1747656497.82,-0.077,0.092,-0.014,0.911,-0.277,0.375,-52.164,8.961,-11.129
1747656497.83,-0.073,0.082,-0.029,0.929,-0.357,0.379,-51.614,8.946,-10.916
1747656497.84,-0.078,0.084,-0.012,1.003,-0.417,0.289,-51.040,8.856,-10.747
1747656497.85,-0.111,0.100,-0.004,1.095,-0.329,0.163,-50.429,8.684,-10.689
1747656497.86,-0.158,0.121,0.037,1.169,-0.158,0.038,-49.778,8.494,-10.752
1747656497.87,-0.225,0.127,0.045,1.135,0.022,-0.062,-49.125,8.334,-10.913
1747656497.88,-0.285,0.109,0.011,1.082,0.147,-0.116,-48.508,8.215,-11.128
1747656497.89,-0.282,0.069,-0.001,1.051,0.213,-0.051,-47.914,8.159,-11.339
1747656497.90,-0.178,0.018,0.054,1.080,0.353,0.110,-47.310,8.248,-11.438
1747656497.91,-0.084,-0.025,0.086,1.094,0.361,0.113,-46.684,8.433,-11.472
1747656497.92,-0.005,-0.041,0.010,1.108,0.298,0.142,-46.051,8.594,-11.510
1747656497.93,0.055,-0.062,-0.033,1.087,0.192,0.186,-45.415,8.739,-11.498
1747656497.94,0.099,-0.065,-0.025,1.070,0.119,0.116,-44.794,8.817,-11.512
1747656497.95,0.120,-0.054,0.018,1.085,0.032,0.085,-44.179,8.822,-11.566
1747656497.96,0.125,-0.053,0.058,1.128,-0.011,0.100,-43.546,8.780,-11.629
1747656497.97,0.150,-0.033,0.061,1.120,0.005,0.112,-42.900,8.745,-11.680
1747656497.98,0.143,0.004,0.056,1.099,-0.068,0.101,-42.263,8.696,-11.728
1747656497.99,0.088,0.039,0.061,1.082,-0.092,0.115,-41.639,8.614,-11.775
1747656498.00,0.051,0.052,0.088,1.092,-0.054,0.167,-41.014,8.560,-11.793
1747656498.01,0.041,0.043,0.085,1.121,-0.067,0.214,-40.374,8.539,-11.772
1747656498.02,0.034,0.034,0.036,1.164,-0.070,0.242,-39.709,8.526,-11.728
1747656498.03,0.028,0.029,0.033,1.196,0.025,0.219,-39.022,8.536,-11.683
1747656498.04,0.003,0.020,0.034,1.180,-0.019,0.153,-38.329,8.538,-11.685
1747656498.05,-0.028,0.026,0.017,1.157,-0.006,0.119,-37.657,8.513,-11.712
1747656498.06,-0.067,0.041,0.008,1.087,0.018,0.077,-37.015,8.487,-11.763
1747656498.07,-0.103,0.033,0.016,1.023,0.054,0.093,-36.413,8.472,-11.818
1747656498.08,-0.095,0.012,0.049,1.016,0.128,0.147,-35.829,8.511,-11.838
1747656498.09,-0.057,0.012,0.059,1.055,0.184,0.155,-35.232,8.601,-11.839
1747656498.10,-0.024,0.044,0.039,1.098,0.099,0.136,-34.611,8.681,-11.851
1747656498.11,0.005,0.091,0.026,1.138,0.063,0.103,-33.970,8.697,-11.882
1747656498.12,0.024,0.117,0.070,1.170,0.028,0.021,-33.297,8.679,-11.980
1747656498.13,0.066,0.128,0.105,1.166,-0.031,0.066,-32.636,8.637,-12.069
1747656498.14,0.044,0.129,0.021,1.126,-0.181,0.054,-31.982,8.533,-12.144
1747656498.15,-0.016,0.104,-0.021,1.104,-0.159,0.040,-31.348,8.390,-12.224
1747656498.16,-0.004,0.058,0.017,1.106,-0.091,0.061,-30.721,8.279,-12.299
1747656498.17,-0.007,0.027,0.060,1.137,0.041,0.106,-30.082,8.234,-12.352
1747656498.18,-0.028,0.026,0.065,1.225,0.185,0.087,-29.399,8.312,-12.407
1747656498.19,-0.049,0.022,0.034,1.204,0.154,0.199,-28.708,8.395,-12.428
1747656498.20,-0.002,0.059,0.036,1.267,0.177,0.232,-27.992,8.499,-12.403
1747656498.21,0.038,0.094,0.055,1.379,0.229,0.194,-27.228,8.621,-12.392
1747656498.22,0.094,0.120,0.071,1.447,0.274,0.159,-26.413,8.752,-12.418
1747656498.23,0.103,0.130,0.054,1.457,0.247,0.135,-25.579,8.882,-12.466
1747656498.24,0.014,0.106,0.023,1.468,0.203,0.107,-24.745,8.980,-12.535
1747656498.25,-0.092,0.035,0.044,1.522,0.321,0.103,-23.897,9.081,-12.611
1747656498.26,-0.102,-0.057,0.038,1.402,0.273,0.229,-23.057,9.225,-12.656
1747656498.27,-0.001,-0.113,0.062,1.370,0.269,0.303,-22.253,9.392,-12.629
1747656498.28,0.030,-0.123,0.042,1.381,0.221,0.299,-21.450,9.547,-12.584
1747656498.29,0.039,-0.120,0.051,1.372,0.184,0.292,-20.637,9.688,-12.555
1747656498.30,0.098,-0.139,0.079,1.324,0.168,0.386,-19.851,9.811,-12.488
1747656498.31,0.170,-0.145,0.097,1.385,0.171,0.420,-19.052,9.941,-12.385
1747656498.32,0.188,-0.135,0.087,1.492,0.168,0.421,-18.193,10.073,-12.295
1747656498.33,0.192,-0.123,0.068,1.444,0.083,0.500,-17.317,10.182,-12.179
1747656498.34,0.109,-0.090,0.050,1.419,-0.006,0.553,-16.463,10.250,-12.017
1747656498.35,-0.019,-0.064,0.039,1.436,-0.001,0.571,-15.603,10.293,-11.838
1747656498.36,-0.061,-0.047,0.038,1.458,0.069,0.515,-14.735,10.354,-11.670
1747656498.37,-0.059,-0.035,-0.018,1.375,0.064,0.510,-13.888,10.425,-11.525
1747656498.38,-0.053,-0.048,-0.017,1.356,0.043,0.515,-13.070,10.490,-11.374
1747656498.39,-0.087,-0.064,-0.003,1.370,0.082,0.470,-12.252,10.554,-11.235
1747656498.40,-0.083,-0.060,-0.000,1.366,0.128,0.412,-11.438,10.635,-11.130
1747656498.41,-0.037,-0.040,0.015,1.367,0.174,0.360,-10.631,10.736,-11.056
1747656498.42,-0.004,0.016,0.030,1.399,0.218,0.321,-9.819,10.857,-11.011
1747656498.43,-0.023,0.059,0.003,1.450,0.181,0.257,-8.984,10.988,-11.007
1747656498.44,-0.067,0.063,-0.021,1.353,0.156,0.250,-8.171,11.085,-11.018
1747656498.45,-0.074,0.056,-0.046,1.332,0.115,0.234,-7.395,11.160,-11.029
1747656498.46,-0.083,0.066,-0.052,1.332,0.064,0.233,-6.623,11.211,-11.046
1747656498.47,-0.038,0.089,-0.029,1.310,-0.008,0.232,-5.858,11.221,-11.062
1747656498.48,0.049,0.106,-0.011,1.345,-0.099,0.176,-5.088,11.196,-11.101
1747656498.49,0.107,0.109,-0.009,1.372,-0.168,0.143,-4.313,11.114,-11.160
1747656498.50,0.111,0.060,-0.027,1.351,-0.199,0.082,-3.534,11.003,-11.248
1747656498.51,0.063,-0.018,-0.070,1.337,-0.119,0.035,-2.777,10.899,-11.358
1747656498.52,-0.013,-0.099,-0.052,1.295,-0.103,0.078,-2.030,10.823,-11.475
1747656498.53,-0.010,-0.104,-0.008,1.248,-0.045,0.166,-1.304,10.779,-11.542
1747656498.54,0.023,-0.002,-0.002,1.291,-0.008,0.268,-0.574,10.766,-11.556
1747656498.55,0.049,0.133,0.048,1.357,0.025,0.333,0.206,10.770,-11.524
1747656498.56,0.068,0.244,0.050,1.342,-0.023,0.302,0.996,10.774,-11.489
1747656498.57,0.034,0.246,-0.003,1.376,-0.070,0.289,1.792,10.744,-11.470
1747656498.58,-0.026,0.101,-0.030,1.344,-0.009,0.265,2.583,10.710,-11.453
1747656498.59,-0.045,-0.093,-0.094,1.286,-0.030,0.214,3.350,10.692,-11.465
1747656498.60,0.004,-0.232,-0.088,1.265,-0.009,0.172,4.085,10.682,-11.489
1747656498.61,0.002,-0.207,-0.080,1.212,0.021,0.067,4.794,10.689,-11.553
1747656498.62,-0.026,-0.184,-0.079,1.151,0.054,0.021,5.461,10.721,-11.658
1747656498.63,-0.046,-0.123,-0.078,1.155,0.035,0.081,6.109,10.759,-11.753
1747656498.64,-0.055,0.052,-0.032,1.187,-0.052,0.124,6.781,10.760,-11.817
1747656498.65,-0.035,0.179,-0.004,1.147,-0.121,0.126,7.447,10.721,-11.872
1747656498.66,0.002,0.201,-0.000,1.219,-0.283,0.141,8.123,10.614,-11.922
1747656498.67,0.004,0.202,-0.030,1.246,-0.283,0.039,8.825,10.445,-11.991
1747656498.68,-0.022,0.118,-0.061,1.146,-0.341,-0.003,9.497,10.274,-12.110
1747656498.69,-0.003,-0.013,-0.076,1.172,-0.315,-0.056,10.147,10.108,-12.246
1747656498.70,-0.030,-0.137,-0.119,1.123,-0.233,-0.121,10.786,9.982,-12.411
1747656498.71,-0.029,-0.153,-0.106,1.093,-0.149,-0.178,11.394,9.912,-12.607
1747656498.72,-0.041,-0.152,-0.077,1.065,-0.089,-0.206,11.982,9.888,-12.827
1747656498.73,-0.060,-0.161,-0.051,1.050,-0.026,-0.194,12.555,9.901,-13.049
1747656498.74,-0.061,-0.116,-0.044,1.075,0.025,-0.165,13.136,9.949,-13.260
1747656498.75,-0.020,-0.004,-0.047,1.037,0.034,-0.155,13.717,10.012,-13.460
1747656498.76,0.029,0.069,-0.049,0.991,0.003,-0.154,14.269,10.071,-13.654
1747656498.76,0.042,0.093,-0.003,0.998,-0.044,-0.134,14.815,10.106,-13.842
1747656498.77,0.069,0.105,0.011,0.979,-0.107,-0.105,15.359,10.108,-14.013
1747656498.79,0.128,0.083,-0.049,1.024,-0.111,-0.138,15.901,10.074,-14.177
1747656498.80,0.144,0.029,-0.121,0.926,-0.317,-0.117,16.442,9.982,-14.365
1747656498.80,0.167,0.003,-0.100,0.957,-0.346,-0.090,16.955,9.828,-14.516
1747656498.82,0.092,0.046,-0.098,0.935,-0.225,-0.095,17.485,9.707,-14.667
1747656498.82,0.039,-0.014,-0.063,0.863,-0.094,-0.075,17.982,9.660,-14.810
1747656498.84,-0.009,-0.090,-0.079,0.815,0.001,0.005,18.449,9.667,-14.917
1747656498.84,-0.014,-0.029,-0.086,0.795,0.046,0.061,18.905,9.702,-14.976
1747656498.85,0.002,0.075,-0.087,0.764,0.075,0.082,19.351,9.747,-15.012
1747656498.86,0.024,0.103,-0.091,0.774,0.071,0.097,19.790,9.799,-15.037
1747656498.87,0.025,0.154,-0.114,0.787,0.031,0.123,20.243,9.834,-15.052
1747656498.88,0.000,0.133,-0.121,0.743,0.010,0.104,20.684,9.849,-15.060
1747656498.89,-0.035,0.030,-0.119,0.709,0.041,0.004,21.098,9.872,-15.101
1747656498.90,-0.069,-0.081,-0.101,0.648,-0.009,-0.030,21.487,9.909,-15.195
1747656498.91,-0.010,-0.078,-0.089,0.597,-0.003,-0.042,21.829,9.938,-15.278
1747656498.92,0.010,-0.098,-0.118,0.566,-0.012,-0.092,22.152,9.971,-15.382
1747656498.93,-0.011,-0.120,-0.115,0.496,-0.029,-0.090,22.440,10.001,-15.496
1747656498.94,-0.051,-0.079,-0.078,0.485,0.017,-0.075,22.706,10.036,-15.597
1747656498.95,-0.056,0.036,-0.059,0.474,0.029,-0.070,22.969,10.088,-15.693
1747656498.96,-0.031,0.060,-0.084,0.449,0.029,-0.060,23.222,10.138,-15.784
1747656498.97,-0.004,0.023,-0.105,0.431,0.026,-0.049,23.464,10.187,-15.865
1747656498.98,0.015,0.019,-0.113,0.408,0.012,-0.061,23.694,10.230,-15.945
1747656498.99,0.028,-0.002,-0.113,0.392,0.019,-0.075,23.911,10.271,-16.032
1747656499.00,0.034,-0.043,-0.104,0.355,0.023,-0.085,24.113,10.320,-16.121
1747656499.01,0.025,-0.061,-0.102,0.294,0.075,-0.102,24.287,10.380,-16.216
1747656499.02,0.024,-0.077,-0.064,0.173,0.083,-0.089,24.407,10.470,-16.303
1747656499.03,-0.006,-0.083,-0.010,0.169,0.007,-0.024,24.494,10.515,-16.358
1747656499.04,-0.019,-0.065,-0.002,0.120,-0.017,0.009,24.579,10.519,-16.376
1747656499.05,0.074,-0.048,-0.048,0.057,-0.095,-0.003,24.627,10.495,-16.385
1747656499.06,0.102,-0.046,-0.074,0.069,-0.125,0.017,24.663,10.432,-16.389
1747656499.07,0.045,-0.023,-0.046,0.068,-0.086,0.020,24.704,10.368,-16.386
1747656499.08,-0.023,0.011,-0.027,0.065,-0.023,0.028,24.744,10.335,-16.379
1747656499.09,-0.031,0.001,-0.037,0.055,0.028,0.036,24.781,10.332,-16.365
1747656499.10,-0.004,-0.027,-0.038,0.034,0.037,0.030,24.811,10.346,-16.349
1747656499.11,0.014,-0.035,-0.018,0.001,0.043,0.018,24.825,10.363,-16.337
1747656499.12,0.014,-0.060,0.018,-0.034,0.032,0.019,24.818,10.380,-16.324
1747656499.13,0.028,-0.073,0.027,-0.010,0.007,0.020,24.805,10.390,-16.310
1747656499.14,0.035,-0.042,0.005,0.028,-0.059,0.050,24.816,10.368,-16.292
1747656499.15,0.016,-0.025,-0.000,0.009,-0.055,0.065,24.833,10.320,-16.258
1747656499.16,0.053,-0.027,-0.042,-0.010,-0.050,0.060,24.839,10.273,-16.218
1747656499.17,0.059,-0.022,-0.038,-0.018,-0.039,0.063,24.835,10.227,-16.179
1747656499.18,0.005,0.016,0.012,0.006,0.007,0.092,24.839,10.196,-16.130
1747656499.19,-0.035,0.048,0.032,0.027,0.035,0.110,24.861,10.185,-16.069
1747656499.20,-0.029,0.037,0.016,0.010,0.028,0.099,24.887,10.179,-16.007
1747656499.21,0.009,0.015,0.005,0.013,-0.012,0.083,24.907,10.164,-15.954
1747656499.22,0.026,0.008,-0.011,0.011,-0.045,0.074,24.927,10.131,-15.908
1747656499.23,0.019,0.011,-0.022,0.015,-0.077,0.062,24.942,10.082,-15.869
1747656499.24,-0.021,0.020,-0.005,0.042,-0.066,0.059,24.964,10.030,-15.838
1747656499.25,-0.064,0.057,-0.010,0.064,0.007,0.045,25.000,10.008,-15.813
1747656499.26,-0.094,0.073,-0.046,0.059,0.006,0.028,25.039,10.009,-15.799
1747656499.27,-0.111,0.037,-0.076,0.056,-0.048,0.036,25.072,9.989,-15.785
1747656499.28,-0.089,0.025,-0.066,0.069,0.007,0.030,25.110,9.965,-15.768
1747656499.29,-0.029,-0.000,-0.049,0.022,0.104,-0.014,25.138,9.999,-15.768
1747656499.30,-0.015,-0.100,-0.042,-0.029,0.065,-0.028,25.133,10.059,-15.782
1747656499.31,-0.038,-0.138,-0.070,-0.105,-0.026,-0.029,25.092,10.075,-15.791
1747656499.32,-0.023,-0.094,-0.088,-0.157,-0.049,-0.062,25.012,10.054,-15.804
1747656499.33,-0.007,-0.077,-0.096,-0.200,0.003,-0.080,24.902,10.047,-15.829
1747656499.34,-0.014,-0.084,-0.137,-0.262,0.080,-0.061,24.766,10.075,-15.848
1747656499.35,-0.044,-0.088,-0.158,-0.399,0.214,-0.018,24.577,10.149,-15.834
1747656499.36,-0.029,-0.131,-0.141,-0.511,0.348,0.032,24.319,10.287,-15.778
1747656499.37,0.030,-0.148,-0.126,-0.587,0.343,0.103,24.018,10.448,-15.676
1747656499.38,0.094,-0.124,-0.170,-0.708,0.255,0.162,23.672,10.554,-15.517
1747656499.39,0.169,-0.135,-0.248,-0.836,0.187,0.138,23.253,10.607,-15.334
1747656499.40,0.195,-0.151,-0.226,-0.917,0.115,0.112,22.773,10.624,-15.159
1747656499.41,0.140,-0.139,-0.191,-1.012,0.045,0.117,22.244,10.601,-14.980
1747656499.42,0.058,-0.143,-0.215,-1.115,0.045,0.136,21.659,10.550,-14.784
1747656499.43,-0.021,-0.130,-0.199,-1.198,0.116,0.150,21.026,10.517,-14.567
1747656499.44,-0.066,-0.095,-0.193,-1.291,0.178,0.150,20.344,10.521,-14.339
1747656499.45,-0.060,-0.079,-0.212,-1.373,0.195,0.163,19.611,10.546,-14.097
1747656499.46,-0.016,-0.085,-0.207,-1.408,0.222,0.188,18.848,10.579,-13.838
1747656499.47,0.043,-0.067,-0.174,-1.481,0.216,0.185,18.059,10.620,-13.566
1747656499.48,0.071,-0.030,-0.150,-1.559,0.182,0.142,17.222,10.655,-13.300
1747656499.49,0.045,-0.026,-0.108,-1.605,0.141,0.124,16.347,10.672,-13.049
1747656499.50,0.011,-0.056,-0.084,-1.633,0.173,0.125,15.452,10.693,-12.798
1747656499.51,0.006,-0.081,-0.081,-1.660,0.194,0.108,14.539,10.734,-12.549
1747656499.52,-0.006,-0.077,-0.068,-1.672,0.216,0.091,13.615,10.792,-12.309
1747656499.53,-0.003,-0.057,-0.069,-1.702,0.230,0.076,12.679,10.866,-12.074
1747656499.54,-0.008,-0.032,-0.079,-1.730,0.243,0.066,11.724,10.951,-11.844
1747656499.55,-0.020,-0.022,-0.085,-1.773,0.274,0.067,10.750,11.054,-11.612
1747656499.56,-0.009,-0.037,-0.089,-1.814,0.219,0.083,9.753,11.155,-11.369
1747656499.57,0.016,-0.059,-0.105,-1.844,0.158,0.100,8.741,11.219,-11.112
1747656499.58,0.064,-0.078,-0.057,-1.898,0.121,0.107,7.703,11.261,-10.842
1747656499.59,0.097,-0.101,-0.004,-1.877,0.087,0.076,6.654,11.285,-10.576
1747656499.60,0.075,-0.096,-0.001,-1.865,0.062,0.007,5.612,11.304,-10.342
1747656499.61,0.003,-0.059,0.009,-1.838,0.076,-0.040,4.573,11.320,-10.144
1747656499.62,-0.075,-0.029,0.037,-1.864,0.230,-0.013,3.535,11.391,-9.953
1747656499.63,-0.068,-0.024,0.023,-1.886,0.294,0.050,2.486,11.534,-9.731
1747656499.64,-0.042,-0.022,-0.043,-1.928,0.369,0.133,1.432,11.711,-9.461
1747656499.65,0.045,-0.023,-0.061,-1.984,0.371,0.180,0.355,11.925,-9.142
1747656499.66,0.110,-0.022,-0.076,-1.995,0.288,0.171,-0.736,12.115,-8.805
1747656499.67,0.114,-0.018,-0.056,-2.006,0.220,0.111,-1.835,12.266,-8.485
1747656499.68,0.083,-0.015,-0.043,-2.045,0.112,0.032,-2.957,12.374,-8.199
1747656499.69,0.029,-0.023,-0.030,-2.067,0.097,0.013,-4.102,12.445,-7.937
1747656499.70,0.037,-0.056,-0.011,-2.084,0.146,0.029,-5.257,12.538,-7.668
1747656499.71,0.048,-0.080,-0.010,-2.073,0.155,0.033,-6.413,12.652,-7.390
1747656499.72,0.004,-0.078,0.012,-2.046,0.172,0.025,-7.556,12.779,-7.112
1747656499.73,-0.044,-0.055,-0.001,-2.060,0.176,0.002,-8.698,12.917,-6.841
1747656499.74,-0.093,-0.004,-0.004,-2.055,0.222,-0.025,-9.845,13.071,-6.580
1747656499.75,-0.094,0.045,0.048,-2.066,0.293,-0.015,-10.994,13.265,-6.321
1747656499.76,-0.028,0.072,0.035,-2.075,0.318,0.005,-12.144,13.497,-5.915
1747656499.77,0.019,0.084,0.007,-2.073,0.312,-0.030,-13.296,13.741,-5.634
1747656499.78,0.027,0.079,0.001,-2.064,0.239,-0.101,-14.452,13.962,-5.097
1747656499.79,0.017,0.044,-0.005,-2.073,0.151,-0.145,-15.614,14.129,-4.872
1747656499.80,0.018,-0.005,0.005,-2.042,0.157,-0.182,-16.777,14.272,-4.395
1747656499.81,0.017,-0.039,0.047,-2.032,0.153,-0.224,-17.932,14.419,-4.210
1747656499.82,-0.009,-0.056,0.055,-1.983,0.129,-0.259,-19.079,14.547,-3.794
1747656499.83,-0.042,-0.060,0.048,-1.975,0.177,-0.274,-20.209,14.682,-3.648
1747656499.84,-0.031,-0.056,0.055,-2.001,0.167,-0.260,-21.347,14.839,-3.260
1747656499.85,-0.013,-0.048,0.038,-2.000,0.111,-0.230,-22.487,14.979,-3.089
1747656499.86,-0.004,-0.023,0.072,-2.016,0.154,-0.180,-23.626,15.130,-2.683
1747656499.87,0.030,0.005,0.130,-2.052,0.115,-0.129,-24.769,15.311,-2.441
1747656499.88,0.042,0.035,0.093,-2.080,0.035,-0.092,-25.925,15.473,-1.963
1747656499.89,0.057,0.054,0.077,-2.054,-0.022,-0.083,-27.078,15.615,-1.660
1747656499.90,0.067,0.056,0.069,-1.968,-0.131,-0.118,-28.200,15.705,-1.194
1747656499.91,0.054,0.034,0.052,-1.925,-0.177,-0.157,-29.289,15.736,-0.939
1747656499.92,0.068,-0.026,0.041,-1.912,-0.226,-0.176,-30.372,15.741,-0.547
1747656499.93,0.071,-0.097,0.053,-1.889,-0.242,-0.156,-31.443,15.722,-0.312
1747656499.94,0.066,-0.157,0.089,-1.867,-0.166,-0.115,-32.496,15.740,0.084
1747656499.95,0.070,-0.189,0.083,-1.850,-0.119,-0.077,-33.532,15.814,0.365
1747656499.96,0.044,-0.188,0.063,-1.897,-0.130,-0.022,-34.567,15.922,0.821
1747656499.97,0.008,-0.170,0.080,-1.924,-0.155,0.075,-35.615,16.059,1.204
1747656499.98,0.010,-0.135,0.068,-1.921,-0.155,0.198,-36.647,16.250,1.795
1747656499.99,0.042,-0.087,0.083,-1.921,-0.166,0.286,-37.661,16.494,2.352
1747656500.00,0.092,-0.046,0.102,-1.869,-0.161,0.308,-38.651,16.774,3.079
1747656500.01,0.140,-0.017,0.097,-1.821,-0.211,0.249,-39.611,17.048,3.676
1747656500.02,0.138,0.006,0.037,-1.803,-0.327,0.129,-40.566,17.239,4.321
1747656500.03,0.106,0.005,-0.005,-1.805,-0.399,0.021,-41.538,17.330,4.779
1747656500.04,0.072,-0.017,0.025,-1.799,-0.448,-0.058,-42.525,17.356,5.295
1747656500.05,0.026,-0.037,0.031,-1.782,-0.537,-0.116,-43.516,17.315,5.646
1747656500.06,-0.027,-0.057,0.050,-1.793,-0.612,-0.102,-44.511,17.218,6.091
1747656500.07,-0.021,-0.072,0.065,-1.803,-0.589,-0.022,-45.504,17.140,6.469
1747656500.08,0.031,-0.086,0.049,-1.804,-0.543,0.056,-46.485,17.144,7.014
1747656500.09,0.044,-0.088,0.033,-1.773,-0.504,0.059,-47.452,17.205,7.508
1747656500.10,0.005,-0.069,0.011,-1.665,-0.450,-0.010,-48.385,17.272,8.063
1747656500.11,-0.063,-0.042,-0.040,-1.578,-0.412,-0.108,-49.277,17.305,8.432
1747656500.12,-0.143,-0.019,-0.057,-1.548,-0.356,-0.192,-50.154,17.298,8.804
1747656500.13,-0.185,-0.012,-0.020,-1.574,-0.250,-0.251,-51.039,17.296,9.027
1747656500.14,-0.176,-0.023,0.016,-1.664,-0.124,-0.290,-51.966,17.351,9.304
1747656500.15,-0.129,-0.049,0.038,-1.745,-0.147,-0.261,-52.944,17.458,9.529
1747656500.16,-0.039,-0.081,0.054,-1.775,-0.207,-0.152,-53.940,17.613,9.879
1747656500.17,0.090,-0.098,0.078,-1.759,-0.303,0.006,-54.915,17.843,10.341
1747656500.18,0.189,-0.074,0.038,-1.731,-0.380,0.096,-55.853,18.140,10.939
1747656500.19,0.233,-0.035,0.018,-1.641,-0.444,0.043,-56.756,18.424,11.563
1747656500.20,0.213,0.018,-0.023,-1.546,-0.532,-0.092,-57.622,18.575,12.075
1747656500.21,0.107,0.071,-0.040,-1.451,-0.593,-0.269,-58.466,18.534,12.408
1747656500.22,-0.050,0.099,-0.034,-1.376,-0.600,-0.445,-59.294,18.290,12.525
1747656500.23,-0.202,0.094,-0.022,-1.366,-0.525,-0.586,-60.128,17.899,12.449
1747656500.24,-0.311,0.045,0.035,-1.382,-0.423,-0.661,-60.985,17.442,12.233
1747656500.25,-0.348,-0.045,0.042,-1.365,-0.284,-0.628,-61.845,17.015,11.980
1747656500.26,-0.305,-0.132,0.023,-1.306,-0.084,-0.556,-62.675,16.712,11.756
1747656500.27,-0.248,-0.166,-0.003,-1.265,0.069,-0.465,-63.460,16.575,11.605
1747656500.28,-0.232,-0.147,-0.027,-1.262,0.224,-0.393,-64.221,16.601,11.541
1747656500.29,-0.234,-0.095,-0.028,-1.263,0.391,-0.346,-64.974,16.789,11.555
1747656500.30,-0.234,-0.029,-0.059,-1.220,0.526,-0.337,-65.711,17.100,11.609
1747656500.31,-0.234,0.028,-0.108,-1.124,0.667,-0.380,-66.412,17.448,11.619
1747656500.32,-0.230,0.051,-0.131,-0.982,0.809,-0.477,-67.061,17.754,11.494
1747656500.33,-0.215,0.018,-0.123,-0.877,0.898,-0.567,-67.654,17.947,11.171
1747656500.34,-0.155,-0.058,-0.135,-0.923,0.966,-0.602,-68.242,18.081,10.741
1747656500.35,-0.039,-0.133,-0.112,-1.024,0.989,-0.588,-68.879,18.258,10.328
1747656500.36,0.098,-0.172,-0.053,-1.064,0.976,-0.535,-69.546,18.512,9.999
1747656500.37,0.204,-0.158,-0.008,-1.126,0.975,-0.496,-70.230,18.855,9.772
1747656500.38,0.252,-0.088,0.025,-1.154,0.932,-0.455,-70.938,19.281,9.642
1747656500.39,0.229,-0.007,0.013,-1.085,0.731,-0.435,-71.627,19.686,9.564
1747656500.40,0.172,0.029,-0.016,-1.007,0.514,-0.407,-72.269,19.967,9.488
1747656500.41,0.172,0.014,-0.015,-0.986,0.316,-0.345,-72.875,20.183,9.466
1747656500.42,0.186,-0.001,-0.030,-1.029,0.156,-0.344,-73.480,20.377,9.532
1747656500.43,0.148,0.002,-0.020,-1.051,0.103,-0.458,-74.118,20.437,9.520
1747656500.44,0.074,0.020,-0.002,-1.030,0.073,-0.647,-74.785,20.163,9.183
1747656500.45,-0.011,0.043,0.005,-1.011,0.015,-0.764,-75.471,19.495,8.467
1747656500.46,-0.087,0.063,0.018,-0.974,0.039,-0.793,-76.154,18.564,7.494
1747656500.47,-0.122,0.079,0.024,-0.977,0.113,-0.749,-76.817,17.572,6.428
1747656500.48,-0.136,0.075,0.048,-1.093,0.116,-0.651,-77.498,16.718,5.485
1747656500.49,-0.147,0.035,0.045,-1.179,0.128,-0.548,-78.221,16.120,4.802
1747656500.50,-0.117,-0.040,0.023,-1.146,0.215,-0.432,-78.940,15.790,4.367
1747656500.51,-0.082,-0.118,0.000,-1.082,0.347,-0.324,-79.610,15.769,4.185
1747656500.52,-0.066,-0.168,0.006,-1.060,0.492,-0.264,-80.242,16.053,4.229
1747656500.53,-0.070,-0.149,-0.006,-1.058,0.595,-0.263,-80.865,16.525,4.393
1747656500.54,-0.079,-0.070,-0.037,-1.030,0.688,-0.304,-81.482,17.002,4.504
1747656500.55,-0.079,0.029,-0.049,-1.004,0.721,-0.345,-82.091,17.365,4.460
1747656500.56,-0.071,0.108,-0.041,-0.963,0.632,-0.369,-82.690,17.562,4.266
1747656500.57,-0.042,0.139,-0.036,-0.899,0.490,-0.381,-83.263,17.524,3.906
1747656500.58,0.017,0.111,-0.021,-0.817,0.373,-0.375,-83.795,17.234,3.368
1747656500.59,0.083,0.049,0.010,-0.766,0.290,-0.382,-84.289,16.717,2.660
1747656500.60,0.124,-0.021,0.045,-0.743,0.241,-0.400,-84.764,15.887,1.675
1747656500.61,0.133,-0.076,0.071,-0.710,0.213,-0.399,-85.225,14.747,0.400
1747656500.62,0.130,-0.107,0.051,-0.698,0.171,-0.389,-85.667,13.326,-1.136
1747656500.63,0.109,-0.114,0.032,-0.747,0.104,-0.356,-86.116,11.749,-2.797
1747656500.64,0.061,-0.105,0.030,-0.783,0.030,-0.303,-86.581,10.189,-4.398
1747656500.65,0.020,-0.077,-0.004,-0.801,0.013,-0.231,-87.053,8.819,-5.780
1747656500.66,-0.014,-0.030,-0.022,-0.804,0.060,-0.172,-87.524,7.838,-6.782
1747656500.67,-0.057,0.006,-0.006,-0.759,0.096,-0.134,-87.980,7.169,-7.499
1747656500.68,-0.102,0.015,0.004,-0.706,0.136,-0.119,-88.403,6.567,-8.166
1747656500.69,-0.121,0.010,0.022,-0.667,0.215,-0.138,-88.800,5.384,-9.449
1747656500.70,-0.108,0.003,0.032,-0.615,0.288,-0.169,-89.172,1.908,-13.070
1747656500.71,-0.079,0.002,0.022,-0.557,0.330,-0.201,-89.502,-8.853,-24.009
1747656500.72,-0.044,0.024,0.015,-0.476,0.342,-0.206,-89.726,-44.545,-59.895
1747656500.73,-0.019,0.054,-0.007,-0.373,0.360,-0.175,-89.695,-98.599,-114.150
1747656500.74,-0.018,0.071,-0.007,-0.291,0.376,-0.145,-89.544,-120.640,-136.403
1747656500.75,-0.048,0.050,0.012,-0.231,0.334,-0.132,-89.394,-128.747,-144.714
1747656500.76,-0.087,-0.000,0.006,-0.216,0.339,-0.119,-89.257,-132.619,-148.776
1747656500.77,-0.098,-0.053,0.010,-0.258,0.428,-0.098,-89.119,-136.046,-152.421
1747656500.78,-0.079,-0.085,0.030,-0.342,0.492,-0.080,-88.958,-140.254,-156.894
1747656500.79,-0.043,-0.077,0.028,-0.447,0.496,-0.060,-88.752,-145.290,-162.213
1747656500.80,-0.001,-0.052,0.060,-0.462,0.455,-0.034,-88.515,-149.988,-167.186
1747656500.81,0.052,-0.027,0.079,-0.388,0.355,-0.015,-88.293,-153.476,-170.907
1747656500.82,0.083,0.015,0.072,-0.311,0.205,-0.025,-88.108,-155.728,-173.323
1747656500.83,0.075,0.050,0.059,-0.236,0.039,-0.041,-87.957,-156.979,-174.643
1747656500.84,0.046,0.060,0.021,-0.142,-0.077,-0.049,-87.847,-157.477,-175.128
1747656500.85,0.018,0.048,-0.042,-0.057,-0.092,-0.053,-87.785,-157.377,-174.975
1747656500.86,-0.004,0.028,-0.058,-0.033,-0.013,-0.051,-87.752,-156.938,-174.503
1747656500.87,-0.007,0.002,-0.007,-0.038,0.085,-0.047,-87.722,-156.448,-174.036
1747656500.88,-0.001,-0.025,0.031,-0.031,0.082,-0.031,-87.694,-156.097,-173.738
1747656500.89,0.003,-0.037,0.028,-0.023,0.005,-0.007,-87.677,-155.989,-173.655
1747656500.90,0.009,-0.037,0.030,-0.034,-0.020,0.004,-87.662,-156.149,-173.810
1747656500.91,0.008,-0.029,0.050,-0.045,-0.040,0.011,-87.643,-156.485,-174.129
1747656500.92,-0.007,-0.026,0.053,-0.033,-0.030,0.051,-87.629,-157.084,-174.706
1747656500.93,0.007,-0.022,0.051,-0.012,0.040,0.097,-87.632,-158.161,-175.786
1747656500.94,0.043,-0.020,0.065,0.027,0.055,0.120,-87.662,-159.461,-177.119
1747656500.95,0.076,-0.013,0.048,0.073,-0.007,0.134,-87.715,-160.904,-178.576
1747656500.96,0.087,0.002,0.039,0.079,-0.068,0.098,-87.776,-162.233,-179.886
1747656500.97,0.063,0.020,0.052,0.079,-0.155,0.028,-87.827,-162.876,179.533
1747656500.98,0.023,0.031,0.037,0.100,-0.261,-0.028,-87.871,-162.634,179.895
1747656500.99,-0.014,0.030,0.024,0.164,-0.325,-0.056,-87.928,-161.598,-178.898
1747656501.00,-0.039,0.032,0.014,0.207,-0.296,-0.068,-88.011,-159.870,-176.987
1747656501.01,-0.052,0.028,0.030,0.212,-0.227,-0.068,-88.104,-157.725,-174.690
1747656501.02,-0.060,0.013,0.049,0.182,-0.161,-0.064,-88.189,-155.526,-172.378
1747656501.03,-0.065,-0.007,0.062,0.152,-0.106,-0.045,-88.260,-153.546,-170.322
1747656501.04,-0.056,-0.027,0.073,0.133,-0.048,-0.005,-88.326,-152.085,-168.816
1747656501.05,-0.050,-0.033,0.084,0.101,-0.016,0.025,-88.386,-151.333,-168.046
1747656501.06,-0.057,-0.023,0.084,0.083,-0.014,0.037,-88.439,-151.124,-167.829
1747656501.07,-0.061,-0.002,0.056,0.105,-0.018,0.037,-88.493,-150.928,-167.623
1747656501.08,-0.058,0.023,0.039,0.133,-0.019,0.022,-88.560,-150.180,-166.864
1747656501.09,-0.048,0.042,0.039,0.152,-0.025,0.005,-88.632,-148.723,-165.394
1747656501.10,-0.033,0.046,0.040,0.167,-0.054,0.003,-88.705,-146.709,-163.357
1747656501.11,-0.015,0.029,0.034,0.181,-0.052,0.012,-88.782,-144.273,-160.888
1747656501.12,0.006,-0.008,0.041,0.203,-0.053,0.025,-88.866,-141.449,-158.036
1747656501.13,0.021,-0.046,0.039,0.171,-0.124,0.038,-88.944,-138.719,-155.258
1747656501.14,0.022,-0.072,0.029,0.123,-0.239,0.047,-89.009,-136.846,-153.279
1747656501.15,0.007,-0.077,0.013,0.118,-0.301,0.029,-89.064,-135.278,-151.556
1747656501.16,-0.014,-0.060,0.015,0.185,-0.343,0.008,-89.121,-132.052,-148.144
1747656501.17,-0.031,-0.025,0.004,0.305,-0.353,0.004,-89.204,-124.970,-140.862
1747656501.18,-0.041,0.025,-0.015,0.452,-0.293,0.009,-89.303,-110.834,-126.538
1747656501.19,-0.045,0.071,-0.019,0.566,-0.211,0.017,-89.353,-86.477,-102.036
1747656501.20,-0.059,0.102,-0.020,0.567,-0.116,0.025,-89.268,-60.000,-75.463
1747656501.21,-0.085,0.099,-0.001,0.476,-0.017,0.046,-89.095,-42.693,-58.117
1747656501.22,-0.111,0.057,0.031,0.369,0.056,0.075,-88.926,-32.641,-48.074
1747656501.23,-0.130,0.001,0.045,0.339,0.140,0.098,-88.776,-25.595,-41.081
1747656501.24,-0.138,-0.039,0.053,0.360,0.280,0.100,-88.614,-19.830,-35.433
1747656501.25,-0.125,-0.064,0.089,0.359,0.438,0.110,-88.434,-15.057,-30.865
1747656501.26,-0.089,-0.074,0.122,0.331,0.528,0.144,-88.258,-10.841,-26.927
1747656501.27,-0.043,-0.059,0.102,0.303,0.517,0.182,-88.094,-6.752,-23.138
1747656501.28,0.004,-0.020,0.059,0.337,0.433,0.192,-87.923,-2.937,-19.593
1747656501.29,0.039,0.027,0.034,0.400,0.278,0.163,-87.714,0.096,-16.765
1747656501.30,0.055,0.065,0.036,0.447,0.031,0.135,-87.470,2.089,-14.858
1747656501.31,0.049,0.073,0.025,0.466,-0.160,0.115,-87.206,3.293,-13.612
1747656501.32,0.044,0.038,0.030,0.448,-0.226,0.114,-86.939,4.123,-12.668
1747656501.33,0.034,-0.010,0.060,0.407,-0.209,0.112,-86.690,4.837,-11.826
1747656501.34,0.010,-0.042,0.076,0.401,-0.236,0.083,-86.458,5.310,-11.229
1747656501.35,-0.024,-0.045,0.062,0.440,-0.324,0.049,-86.216,5.392,-10.986
1747656501.36,-0.049,-0.023,0.032,0.495,-0.389,0.021,-85.949,5.116,-11.058
1747656501.37,-0.064,0.006,0.021,0.594,-0.432,0.009,-85.642,4.627,-11.313
1747656501.38,-0.071,0.032,-0.005,0.736,-0.433,0.009,-85.262,4.069,-11.622
1747656501.39,-0.069,0.043,-0.006,0.785,-0.313,0.023,-84.823,3.622,-11.854
1747656501.40,-0.057,0.030,0.051,0.704,-0.184,0.057,-84.393,3.438,-11.898
1747656501.41,-0.063,-0.004,0.079,0.571,-0.127,0.091,-84.028,3.551,-11.698
1747656501.42,-0.081,-0.049,0.042,0.479,-0.111,0.106,-83.727,3.842,-11.336
1747656501.43,-0.096,-0.057,-0.015,0.446,-0.081,0.083,-83.461,4.111,-11.011
1747656501.44,-0.107,-0.025,-0.049,0.411,-0.051,0.074,-83.212,4.293,-10.788
1747656501.45,-0.091,0.001,-0.049,0.374,0.055,0.089,-82.987,4.529,-10.549
1747656501.46,-0.039,0.014,-0.005,0.448,0.138,0.107,-82.753,4.886,-10.249
1747656501.47,0.012,0.020,-0.017,0.715,0.075,0.116,-82.425,5.219,-9.979
1747656501.48,0.057,0.027,-0.106,1.058,0.019,0.129,-81.910,5.406,-9.811
1747656501.49,0.103,0.039,-0.101,1.107,0.225,0.123,-81.273,5.544,-9.731
1747656501.50,0.122,0.025,0.056,0.888,0.524,0.132,-80.694,5.853,-9.640
1747656501.51,0.097,-0.032,0.146,0.667,0.477,0.139,-80.249,6.342,-9.449
1747656501.52,-0.041,-0.096,0.039,0.672,0.292,0.101,-79.870,6.712,-9.291
1747656501.53,-0.148,-0.130,-0.103,0.707,0.276,0.065,-79.468,6.856,-9.303
1747656501.54,-0.146,-0.125,-0.048,0.546,0.440,0.118,-79.102,7.072,-9.284
1747656501.55,-0.054,-0.091,0.094,0.475,0.660,0.220,-78.812,7.698,-8.971
1747656501.56,0.054,-0.034,0.099,0.742,0.599,0.283,-78.455,8.550,-8.480
1747656501.57,0.099,0.043,-0.038,1.012,0.383,0.264,-77.929,9.209,-8.094
1747656501.58,0.102,0.095,-0.082,1.067,0.157,0.170,-77.316,9.478,-8.057
1747656501.59,0.088,0.093,-0.092,1.045,0.056,0.073,-76.710,9.390,-8.200
1747656501.60,0.081,0.045,-0.070,1.048,0.168,0.018,-76.117,9.147,-8.602
1747656501.61,0.075,-0.023,0.016,0.977,0.258,0.011,-75.539,8.930,-8.955
1747656501.62,0.032,-0.080,0.063,0.802,0.272,0.037,-75.035,8.838,-9.309
1747656501.63,-0.041,-0.105,0.072,0.698,0.083,0.063,-74.612,8.813,-9.449
1747656501.64,-0.124,-0.080,-0.011,0.652,-0.169,0.092,-74.225,8.725,-9.601
1747656501.65,-0.125,-0.033,-0.070,0.592,-0.132,0.151,-73.862,8.679,-9.549
1747656501.66,-0.015,0.005,0.018,0.538,0.006,0.215,-73.529,8.836,-9.450
1747656501.67,0.097,0.018,0.066,0.614,-0.046,0.242,-73.190,9.101,-9.169
1747656501.68,0.145,0.022,-0.014,0.892,-0.224,0.221,-72.750,9.230,-9.051
1747656501.69,0.152,0.026,-0.106,1.104,-0.231,0.183,-72.159,9.160,-8.977
1747656501.70,0.136,0.021,-0.065,1.069,-0.079,0.121,-71.525,9.037,-9.117
1747656501.71,0.067,-0.002,0.028,0.929,-0.028,0.069,-70.954,8.903,-9.228
1747656501.72,-0.031,-0.037,0.004,0.797,0.046,0.056,-70.462,8.786,-9.446
1747656501.73,-0.107,-0.077,0.026,0.668,0.066,0.105,-70.044,8.766,-9.504
1747656501.74,-0.155,-0.106,0.030,0.585,0.102,0.216,-69.676,8.904,-9.487
1747656501.75,-0.144,-0.090,0.012,0.491,0.165,0.326,-69.349,9.266,-9.181
1747656501.76,-0.090,-0.034,-0.009,0.490,0.261,0.385,-69.042,9.799,-8.820
1747656501.77,-0.005,0.001,-0.006,0.641,0.301,0.384,-68.690,10.388,-8.367
1747656501.78,0.069,0.008,-0.032,0.837,0.171,0.320,-68.238,10.835,-8.126
1747656501.79,0.082,0.012,-0.103,0.985,0.019,0.239,-67.691,11.025,-7.977
1747656501.80,0.062,0.013,-0.084,0.929,-0.003,0.154,-67.126,11.038,-8.062
1747656501.81,-0.002,0.002,0.092,0.799,-0.023,0.055,-66.634,10.952,-8.153
1747656501.82,-0.101,-0.014,0.131,0.780,-0.071,0.029,-66.187,10.774,-8.375
1747656501.83,-0.120,-0.013,-0.004,0.654,-0.120,0.079,-65.774,10.613,-8.493
1747656501.84,-0.057,0.011,-0.019,0.507,-0.120,0.157,-65.441,10.552,-8.480
1747656501.85,0.038,0.025,0.054,0.569,-0.095,0.244,-65.127,10.618,-8.342
1747656501.86,0.139,0.020,0.098,0.782,-0.171,0.299,-64.721,10.721,-8.148
1747656501.87,0.195,0.028,0.070,0.971,-0.306,0.313,-64.191,10.751,-7.964
1747656501.88,0.184,0.050,0.050,0.999,-0.405,0.283,-63.602,10.670,-7.823
1747656501.89,0.138,0.058,0.071,0.963,-0.338,0.278,-63.020,10.557,-7.704
1747656501.89,0.082,0.051,0.133,0.857,-0.138,0.265,-62.478,10.534,-7.575
1747656501.91,-0.025,0.043,0.194,0.764,-0.070,0.228,-62.000,10.586,-7.459
1747656501.91,-0.135,0.036,0.041,0.642,-0.150,0.235,-61.577,10.618,-7.350
1747656501.92,-0.165,0.032,-0.032,0.491,-0.134,0.336,-61.232,10.713,-7.144
1747656501.93,-0.107,0.034,0.032,0.510,-0.111,0.410,-60.918,10.934,-6.813
1747656501.94,-0.049,0.070,-0.000,0.692,-0.073,0.371,-60.541,11.163,-6.489
1747656501.95,-0.044,0.111,0.011,0.889,-0.054,0.237,-60.063,11.277,-6.318
1747656501.96,-0.102,0.139,-0.010,0.979,-0.104,0.089,-59.516,11.208,-6.346
1747656501.97,-0.169,0.131,-0.085,1.007,-0.049,-0.027,-58.958,11.000,-6.529
1747656501.98,-0.169,0.086,-0.052,1.014,0.163,-0.104,-58.395,10.788,-6.813
1747656501.99,-0.135,0.020,0.081,0.979,0.378,-0.148,-57.850,10.658,-7.149
1747656502.00,-0.119,-0.057,0.173,0.942,0.539,-0.125,-57.324,10.641,-7.485
1747656502.01,-0.082,-0.111,0.105,0.860,0.469,-0.034,-56.827,10.716,-7.747
1747656502.02,-0.030,-0.126,-0.103,0.742,0.373,0.109,-56.371,10.854,-7.864
1747656502.03,0.066,-0.108,-0.084,0.622,0.342,0.234,-55.972,11.095,-7.820
1747656502.04,0.162,-0.072,0.017,0.631,0.225,0.292,-55.599,11.380,-7.677
1747656502.05,0.226,-0.027,0.025,0.763,0.040,0.299,-55.176,11.584,-7.522
1747656502.06,0.260,0.020,0.024,0.901,-0.152,0.286,-54.676,11.649,-7.404
1747656502.07,0.247,0.051,0.029,0.997,-0.252,0.243,-54.112,11.582,-7.335
1747656502.08,0.191,0.061,0.088,1.054,-0.231,0.148,-53.515,11.434,-7.348
1747656502.09,0.110,0.042,0.145,1.098,-0.224,0.084,-52.898,11.228,-7.446
1747656502.10,-0.005,0.003,0.069,1.081,-0.250,0.069,-52.278,10.990,-7.575
1747656502.11,-0.102,-0.023,-0.090,0.975,-0.248,0.086,-51.689,10.760,-7.686
1747656502.12,-0.110,-0.038,-0.128,0.803,-0.189,0.103,-51.182,10.583,-7.751
1747656502.13,-0.099,-0.046,-0.029,0.760,-0.126,0.112,-50.738,10.474,-7.781
1747656502.14,-0.115,-0.050,0.021,0.855,-0.112,0.118,-50.276,10.382,-7.811
1747656502.15,-0.134,-0.033,-0.005,0.983,-0.063,0.114,-49.747,10.295,-7.856
1747656502.16,-0.149,0.002,-0.034,1.045,0.054,0.086,-49.163,10.239,-7.928
1747656502.17,-0.171,0.034,0.014,1.030,0.214,0.037,-48.572,10.232,-8.035
1747656502.18,-0.181,0.052,0.170,1.097,0.380,-0.049,-47.979,10.284,-8.200
1747656502.19,-0.162,0.064,0.159,1.191,0.428,-0.102,-47.341,10.336,-8.441
1747656502.20,-0.125,0.077,-0.037,1.097,0.410,-0.072,-46.700,10.399,-8.689
1747656502.21,-0.066,0.066,-0.118,0.900,0.271,-0.011,-46.143,10.458,-8.879
1747656502.22,0.042,0.025,-0.074,0.808,0.155,0.127,-45.664,10.524,-8.961
1747656502.23,0.201,-0.033,0.062,0.883,-0.018,0.231,-45.174,10.582,-8.937
1747656502.24,0.295,-0.062,0.095,0.994,-0.172,0.271,-44.619,10.569,-8.875
1747656502.25,0.284,-0.051,0.064,1.045,-0.310,0.256,-44.016,10.474,-8.815
1747656502.26,0.190,-0.021,0.085,1.073,-0.387,0.219,-43.397,10.293,-8.781
1747656502.27,0.091,0.005,0.154,1.138,-0.304,0.233,-42.756,10.102,-8.762
1747656502.28,0.039,0.029,0.150,1.189,-0.125,0.265,-42.072,10.003,-8.730
1747656502.29,-0.011,0.063,0.016,1.099,-0.042,0.262,-41.398,9.992,-8.681
1747656502.30,-0.091,0.082,-0.073,0.953,-0.033,0.267,-40.795,10.007,-8.622
1747656502.31,-0.126,0.069,-0.058,0.851,0.038,0.366,-40.259,10.079,-8.509
1747656502.32,-0.059,0.033,-0.006,0.826,0.116,0.461,-39.748,10.251,-8.312
1747656502.33,-0.011,0.021,0.047,0.890,0.142,0.516,-39.217,10.483,-8.069
1747656502.34,-0.021,0.035,0.048,0.960,0.083,0.517,-38.642,10.706,-7.819
1747656502.35,-0.045,0.066,0.046,0.994,0.007,0.485,-38.039,10.872,-7.592
1747656502.36,-0.028,0.090,0.113,1.075,-0.033,0.433,-37.413,10.978,-7.407
1747656502.37,0.039,0.100,0.128,1.191,-0.037,0.376,-36.731,11.035,-7.278
1747656502.38,0.115,0.094,0.026,1.191,-0.082,0.291,-36.022,11.047,-7.207
1747656502.39,0.097,0.062,-0.112,1.091,-0.175,0.186,-35.355,10.982,-7.196
1747656502.40,-0.034,0.002,-0.111,1.033,-0.201,0.170,-34.743,10.854,-7.220
1747656502.41,-0.132,-0.069,-0.051,1.001,-0.085,0.250,-34.151,10.776,-7.211
1747656502.42,-0.175,-0.109,0.001,0.982,0.046,0.301,-33.566,10.801,-7.150
1747656502.43,-0.205,-0.085,0.020,0.981,0.144,0.283,-32.984,10.895,-7.078
1747656502.44,-0.180,-0.025,0.016,1.004,0.199,0.232,-32.402,11.017,-7.034
1747656502.45,-0.098,0.031,0.041,1.102,0.209,0.181,-31.791,11.135,-7.034
1747656502.46,0.010,0.066,0.055,1.188,0.136,0.146,-31.129,11.214,-7.076
1747656502.47,0.105,0.078,0.024,1.175,0.003,0.112,-30.450,11.219,-7.146
1747656502.48,0.155,0.065,-0.035,1.103,-0.132,0.075,-29.801,11.137,-7.232
1747656502.49,0.152,0.035,-0.078,1.084,-0.252,0.069,-29.183,10.982,-7.324
1747656502.50,0.112,-0.007,-0.071,1.082,-0.306,0.114,-28.565,10.780,-7.401
1747656502.51,0.078,-0.052,-0.026,1.037,-0.310,0.146,-27.957,10.584,-7.445
1747656502.52,0.043,-0.072,0.068,1.037,-0.299,0.131,-27.363,10.394,-7.476
1747656502.53,-0.010,-0.058,0.138,1.130,-0.243,0.106,-26.745,10.216,-7.526
1747656502.54,-0.037,-0.033,0.120,1.268,-0.153,0.086,-26.061,10.068,-7.601
1747656502.55,-0.044,-0.017,0.072,1.295,-0.061,0.065,-25.327,9.967,-7.695
1747656502.56,-0.042,-0.006,0.010,1.248,-0.037,0.031,-24.608,9.895,-7.805
1747656502.57,-0.052,-0.008,-0.030,1.210,-0.049,0.014,-23.914,9.821,-7.924
1747656502.58,-0.075,-0.017,-0.005,1.180,-0.007,0.030,-23.240,9.757,-8.039
1747656502.59,-0.065,-0.023,0.037,1.170,0.039,0.065,-22.574,9.731,-8.133
1747656502.60,-0.037,-0.009,0.043,1.143,0.048,0.092,-21.915,9.728,-8.205
1747656502.61,0.005,0.023,0.048,1.140,0.048,0.104,-21.264,9.736,-8.264
1747656502.62,0.066,0.046,0.076,1.170,-0.024,0.124,-20.604,9.727,-8.315
1747656502.63,0.121,0.054,0.071,1.208,-0.136,0.147,-19.922,9.668,-8.356
1747656502.64,0.150,0.044,0.080,1.291,-0.218,0.153,-19.206,9.552,-8.392
1747656502.65,0.136,0.031,0.088,1.371,-0.248,0.143,-18.440,9.403,-8.435
1747656502.66,0.078,0.027,0.067,1.411,-0.230,0.127,-17.642,9.248,-8.491
1747656502.67,0.005,0.028,0.031,1.387,-0.151,0.111,-16.841,9.118,-8.556
1747656502.68,-0.049,-0.002,0.002,1.349,-0.038,0.132,-16.059,9.048,-8.612
1747656502.69,-0.104,-0.022,-0.013,1.327,0.069,0.161,-15.292,9.047,-8.652
1747656502.70,-0.148,-0.033,-0.002,1.301,0.130,0.195,-14.534,9.100,-8.670
1747656502.71,-0.117,-0.030,0.008,1.301,0.148,0.204,-13.784,9.179,-8.675
1747656502.72,-0.032,0.006,0.018,1.350,0.116,0.213,-13.019,9.256,-8.678
1747656502.73,0.045,0.035,0.035,1.402,0.110,0.199,-12.226,9.316,-8.690
1747656502.74,0.077,0.032,0.023,1.613,0.076,0.179,-11.363,9.367,-8.724
1747656502.75,0.025,0.023,-0.022,1.621,0.123,0.125,-10.420,9.397,-8.790
1747656502.76,0.018,0.004,0.008,1.393,0.288,0.068,-9.568,9.512,-8.881
1747656502.77,0.015,-0.015,-0.011,1.346,0.258,0.118,-8.792,9.656,-8.962
1747656502.78,-0.060,0.043,-0.033,1.328,0.264,0.201,-8.020,9.796,-9.003
1747656502.79,-0.102,0.114,-0.046,1.230,0.290,0.279,-7.277,9.956,-8.992
1747656502.80,-0.077,0.143,-0.041,1.243,0.295,0.324,-6.555,10.131,-8.945
1747656502.81,0.007,0.131,-0.021,1.278,0.254,0.359,-5.810,10.295,-8.876
1747656502.82,0.109,0.097,0.017,1.366,0.171,0.296,-5.033,10.427,-8.830
1747656502.83,0.150,0.053,0.039,1.430,0.040,0.279,-4.216,10.488,-8.814
1747656502.84,0.103,-0.015,0.038,1.386,-0.013,0.236,-3.395,10.493,-8.816
1747656502.85,0.033,-0.116,-0.017,1.311,0.020,0.184,-2.616,10.487,-8.840
1747656502.86,-0.014,-0.199,-0.110,1.245,0.097,0.191,-1.881,10.523,-8.870
1747656502.87,-0.061,-0.162,-0.119,1.217,0.120,0.236,-1.168,10.585,-8.880
1747656502.88,-0.160,0.011,-0.037,1.239,0.143,0.283,-0.454,10.660,-8.863
1747656502.89,-0.208,0.230,0.065,1.310,0.091,0.324,0.295,10.730,-8.827
1747656502.90,-0.155,0.358,0.081,1.274,-0.032,0.316,1.057,10.749,-8.783
1747656502.91,-0.051,0.309,0.014,1.271,-0.232,0.245,1.797,10.678,-8.760
1747656502.92,0.045,0.095,-0.023,1.282,-0.474,0.171,2.537,10.475,-8.777
1747656502.93,0.114,-0.169,0.010,1.318,-0.592,0.035,3.277,10.169,-8.845
1747656502.94,0.093,-0.378,0.069,1.295,-0.631,-0.144,4.009,9.824,-9.007
1747656502.95,-0.026,-0.404,0.002,1.259,-0.419,-0.241,4.706,9.533,-9.242
1747656502.96,-0.164,-0.313,-0.016,1.291,-0.066,-0.235,5.403,9.414,-9.500
1747656502.97,-0.217,-0.183,-0.008,1.233,0.257,-0.190,6.096,9.499,-9.739
1747656502.98,-0.140,-0.077,-0.067,1.207,0.320,-0.142,6.764,9.695,-9.951
1747656502.99,-0.064,0.026,-0.038,1.231,0.303,-0.014,7.442,9.895,-10.119
1747656503.00,0.039,0.141,0.050,1.245,0.238,0.059,8.141,10.068,-10.222
1747656503.01,0.125,0.241,0.103,1.239,0.073,0.029,8.845,10.174,-10.325
1747656503.02,0.143,0.234,0.079,1.246,-0.103,0.036,9.546,10.181,-10.434
1747656503.03,0.142,0.092,0.014,1.263,-0.277,0.035,10.255,10.091,-10.541
1747656503.04,0.124,-0.025,-0.031,1.282,-0.358,-0.056,10.972,9.930,-10.674
1747656503.05,0.120,-0.081,-0.057,1.258,-0.353,-0.132,11.674,9.761,-10.853
1747656503.06,0.061,-0.061,-0.063,1.264,-0.241,-0.178,12.370,9.632,-11.069
1747656503.07,-0.044,-0.041,-0.107,1.243,-0.094,-0.156,13.059,9.590,-11.290
1747656503.08,-0.106,0.036,-0.119,1.273,-0.010,-0.089,13.755,9.604,-11.483
1747656503.09,-0.107,0.131,-0.071,1.258,0.098,-0.061,14.462,9.671,-11.648
1747656503.10,-0.043,0.189,-0.027,1.257,0.026,-0.094,15.160,9.758,-11.819
1747656503.11,0.000,0.184,-0.027,1.276,-0.089,-0.094,15.864,9.787,-12.003
1747656503.12,0.066,0.109,-0.077,1.266,-0.208,-0.110,16.569,9.755,-12.189
1747656503.13,0.095,0.025,-0.129,1.245,-0.270,-0.173,17.266,9.683,-12.404
1747656503.14,0.074,-0.022,-0.153,1.196,-0.271,-0.201,17.933,9.597,-12.636
1747656503.15,0.043,-0.111,-0.160,1.138,-0.193,-0.218,18.571,9.536,-12.879
1747656503.16,-0.002,-0.155,-0.145,1.079,-0.067,-0.208,19.177,9.540,-13.117
1747656503.17,-0.040,-0.144,-0.113,0.991,0.030,-0.190,19.740,9.606,-13.342
1747656503.18,-0.062,-0.044,-0.108,0.945,0.055,-0.104,20.270,9.700,-13.529
1747656503.19,0.014,0.052,-0.142,0.895,-0.016,-0.027,20.782,9.758,-13.662
1747656503.20,0.097,0.061,-0.147,0.876,-0.059,0.006,21.277,9.771,-13.757
1747656503.21,0.117,0.056,-0.135,0.888,-0.121,-0.003,21.774,9.752,-13.846
1747656503.22,0.079,0.039,-0.156,0.856,-0.096,-0.032,22.267,9.723,-13.947
1747656503.23,0.028,-0.005,-0.147,0.755,-0.097,-0.088,22.716,9.718,-14.069
1747656503.24,-0.075,-0.054,-0.111,0.667,-0.052,-0.051,23.108,9.717,-14.187
1747656503.25,-0.088,-0.086,-0.123,0.573,0.018,-0.048,23.455,9.744,-14.280
1747656503.26,-0.043,-0.110,-0.123,0.507,0.042,-0.062,23.750,9.801,-14.370
1747656503.27,-0.035,-0.111,-0.076,0.477,0.042,-0.053,24.022,9.862,-14.460
1747656503.28,-0.028,-0.074,-0.088,0.445,0.004,-0.053,24.275,9.909,-14.540
1747656503.29,-0.009,-0.037,-0.132,0.421,0.011,-0.075,24.515,9.947,-14.626
1747656503.30,0.017,-0.033,-0.117,0.392,-0.024,-0.107,24.732,9.987,-14.728
1747656503.31,0.004,-0.021,-0.113,0.375,-0.051,-0.128,24.936,10.013,-14.843
1747656503.32,-0.029,-0.018,-0.122,0.341,0.011,-0.129,25.124,10.046,-14.963
1747656503.33,-0.070,-0.064,-0.082,0.226,0.166,-0.132,25.276,10.150,-15.077
1747656503.34,-0.107,-0.110,-0.040,0.114,0.129,-0.076,25.354,10.273,-15.163
1747656503.35,-0.133,-0.119,-0.013,0.102,0.111,-0.028,25.411,10.358,-15.204
1747656503.36,0.002,-0.111,-0.008,0.040,0.070,-0.058,25.447,10.428,-15.239
1747656503.37,0.146,-0.101,-0.036,-0.003,-0.062,-0.060,25.449,10.448,-15.279
1747656503.38,0.174,-0.073,-0.078,-0.014,-0.149,-0.039,25.438,10.396,-15.308
1747656503.39,0.108,-0.016,-0.071,-0.032,-0.101,-0.007,25.423,10.325,-15.321
1747656503.40,0.036,0.012,-0.041,-0.044,0.004,0.030,25.401,10.292,-15.308
1747656503.41,-0.001,0.005,-0.016,-0.050,0.074,0.071,25.381,10.300,-15.271
1747656503.42,0.006,-0.038,-0.018,-0.095,0.093,0.098,25.350,10.324,-15.210
1747656503.43,0.032,-0.067,-0.008,-0.130,0.086,0.102,25.299,10.341,-15.132
1747656503.44,0.042,-0.062,0.019,-0.128,0.050,0.105,25.237,10.347,-15.054
1747656503.45,0.053,-0.051,0.037,-0.140,0.022,0.112,25.177,10.337,-14.972
1747656503.46,0.074,-0.065,-0.006,-0.172,-0.015,0.117,25.102,10.305,-14.885
1747656503.47,0.058,-0.070,-0.035,-0.191,-0.018,0.132,25.011,10.255,-14.789
1747656503.48,0.014,-0.036,-0.023,-0.177,0.011,0.146,24.921,10.207,-14.682
1747656503.49,-0.014,0.005,-0.018,-0.167,0.035,0.146,24.839,10.174,-14.572
1747656503.50,-0.025,0.012,-0.010,-0.153,0.065,0.136,24.764,10.157,-14.467
1747656503.51,-0.040,-0.005,0.013,-0.154,0.090,0.115,24.694,10.164,-14.373
1747656503.52,-0.043,-0.013,0.010,-0.152,0.117,0.093,24.620,10.193,-14.292
1747656503.53,-0.031,-0.029,0.013,-0.152,0.096,0.086,24.547,10.228,-14.221
1747656503.54,-0.017,-0.025,0.008,-0.158,0.072,0.071,24.473,10.254,-14.157
1747656503.55,-0.006,-0.004,-0.004,-0.149,0.026,0.048,24.398,10.268,-14.108
1747656503.56,-0.023,0.009,-0.007,-0.146,0.016,0.049,24.325,10.260,-14.063
1747656503.57,-0.025,0.017,-0.008,-0.156,0.013,0.033,24.244,10.249,-14.019
1747656503.58,-0.022,0.019,-0.021,-0.144,0.013,0.024,24.160,10.237,-13.983
1747656503.59,-0.028,0.022,-0.004,-0.099,0.079,0.020,24.097,10.245,-13.953
1747656503.60,-0.011,0.042,-0.010,-0.087,0.119,0.000,24.051,10.289,-13.934
1747656503.61,-0.002,0.038,-0.025,-0.072,0.159,-0.004,24.011,10.364,-13.927
1747656503.62,-0.019,0.012,0.002,-0.086,0.155,-0.003,23.973,10.450,-13.919
1747656503.63,-0.029,0.018,0.003,-0.095,0.128,0.007,23.922,10.522,-13.906
1747656503.64,-0.008,0.036,-0.024,-0.103,0.103,0.007,23.870,10.573,-13.886
1747656503.65,0.030,0.009,-0.068,-0.162,0.085,0.008,23.792,10.608,-13.863
1747656503.66,0.048,-0.031,-0.102,-0.193,0.098,0.028,23.693,10.640,-13.829
1747656503.67,0.047,-0.006,-0.114,-0.221,0.152,0.034,23.579,10.689,-13.784
1747656503.68,0.036,-0.019,-0.094,-0.262,0.196,0.065,23.445,10.765,-13.727
1747656503.69,0.005,-0.039,-0.071,-0.287,0.235,0.118,23.299,10.850,-13.639
1747656503.70,-0.007,-0.008,-0.076,-0.350,0.251,0.141,23.136,10.944,-13.519
1747656503.71,0.026,-0.020,-0.135,-0.413,0.209,0.122,22.936,11.024,-13.392
1747656503.72,0.047,-0.094,-0.144,-0.475,0.164,0.110,22.697,11.083,-13.270
1747656503.73,0.058,-0.121,-0.138,-0.540,0.106,0.096,22.425,11.114,-13.147
1747656503.74,0.064,-0.095,-0.173,-0.633,0.073,0.078,22.105,11.116,-13.026
1747656503.75,0.037,-0.075,-0.164,-0.695,0.116,0.088,21.740,11.120,-12.898
1747656503.76,0.009,-0.053,-0.134,-0.752,0.185,0.120,21.348,11.153,-12.750
1747656503.77,0.014,-0.006,-0.148,-0.799,0.224,0.148,20.927,11.210,-12.577
1747656503.78,0.032,0.022,-0.190,-0.857,0.176,0.167,20.483,11.257,-12.384
1747656503.79,0.044,-0.018,-0.228,-0.926,0.169,0.182,20.004,11.280,-12.173
1747656503.80,0.057,-0.084,-0.199,-1.004,0.155,0.167,19.483,11.300,-11.954
1747656503.81,0.051,-0.095,-0.157,-1.087,0.130,0.167,18.918,11.308,-11.732
1747656503.82,0.071,-0.076,-0.152,-1.172,0.101,0.168,18.303,11.300,-11.500
1747656503.83,0.073,-0.051,-0.134,-1.209,0.055,0.195,17.655,11.269,-11.254
1747656503.84,0.035,-0.025,-0.112,-1.249,0.087,0.230,16.990,11.227,-10.986
1747656503.85,0.037,-0.009,-0.119,-1.321,0.091,0.226,16.297,11.201,-10.702
1747656503.86,0.044,-0.007,-0.138,-1.344,0.063,0.215,15.572,11.167,-10.421
1747656503.87,0.031,-0.008,-0.089,-1.357,0.089,0.225,14.842,11.136,-10.138
1747656503.88,0.028,-0.010,-0.076,-1.398,0.116,0.212,14.094,11.123,-9.853
1747656503.89,-0.004,-0.008,-0.101,-1.422,0.168,0.164,13.326,11.138,-9.584
1747656503.90,-0.073,-0.013,-0.090,-1.466,0.289,0.105,12.530,11.214,-9.344
1747656503.91,-0.120,-0.039,-0.053,-1.482,0.401,0.072,11.713,11.368,-9.124
1747656503.92,-0.111,-0.066,-0.057,-1.506,0.379,0.037,10.884,11.555,-8.921
1747656503.93,-0.031,-0.085,-0.099,-1.555,0.301,0.020,10.032,11.715,-8.726
1747656503.94,0.079,-0.083,-0.090,-1.581,0.158,0.023,9.155,11.815,-8.530
1747656503.95,0.117,-0.045,-0.084,-1.578,0.043,0.019,8.275,11.839,-8.331
1747656503.96,0.071,0.003,-0.063,-1.577,-0.011,-0.004,7.394,11.820,-8.139
1747656503.97,-0.027,0.035,-0.030,-1.543,0.025,-0.052,6.518,11.800,-7.970
1747656503.98,-0.128,0.052,-0.018,-1.524,0.114,-0.137,5.652,11.824,-7.842
1747656503.99,-0.197,0.040,-0.018,-1.560,0.257,-0.219,4.769,11.921,-7.763
1747656504.00,-0.188,-0.013,-0.019,-1.596,0.360,-0.235,3.860,12.096,-7.704
1747656504.01,-0.099,-0.076,-0.042,-1.640,0.326,-0.200,2.931,12.291,-7.630
1747656504.02,0.016,-0.110,-0.078,-1.645,0.257,-0.193,1.988,12.454,-7.537
1747656504.03,0.106,-0.091,-0.054,-1.606,0.116,-0.233,1.057,12.562,-7.454
1747656504.04,0.102,-0.035,-0.019,-1.591,0.002,-0.299,0.135,12.593,-7.402
1747656504.05,0.027,0.026,0.008,-1.562,0.003,-0.377,-0.787,12.591,-7.394
1747656504.06,-0.071,0.059,0.026,-1.535,0.048,-0.440,-1.700,12.603,-7.432
1747656504.07,-0.138,0.043,0.028,-1.559,0.174,-0.416,-2.614,12.662,-7.481
1747656504.08,-0.082,-0.021,-0.011,-1.622,0.288,-0.318,-3.547,12.796,-7.486
1747656504.09,0.033,-0.081,-0.056,-1.660,0.308,-0.236,-4.499,12.973,-7.430
1747656504.10,0.103,-0.113,-0.030,-1.670,0.268,-0.178,-5.451,13.148,-7.329
1747656504.11,0.119,-0.119,-0.010,-1.693,0.217,-0.191,-6.411,13.299,-7.208
1747656504.12,0.085,-0.094,0.000,-1.683,0.164,-0.262,-7.381,13.418,-7.109
1747656504.13,0.030,-0.070,0.024,-1.646,0.152,-0.332,-8.345,13.515,-7.053
1747656504.14,-0.009,-0.060,0.013,-1.640,0.172,-0.356,-9.302,13.612,-7.025
1747656504.15,-0.026,-0.047,0.007,-1.692,0.181,-0.307,-10.270,13.718,-6.987
1747656504.16,0.007,-0.036,0.017,-1.728,0.240,-0.213,-11.258,13.853,-6.897
1747656504.17,0.056,-0.008,0.057,-1.696,0.324,-0.141,-12.232,14.042,-6.755
1747656504.18,0.058,0.045,0.057,-1.708,0.358,-0.111,-13.190,14.279,-6.580
1747656504.19,0.031,0.092,-0.032,-1.721,0.278,-0.119,-14.156,14.506,-6.395
1747656504.20,0.004,0.105,-0.059,-1.707,0.268,-0.125,-15.121,14.705,-6.210
1747656504.21,0.039,0.072,-0.003,-1.749,0.259,-0.129,-16.092,14.909,-6.021
1747656504.22,0.069,0.021,-0.003,-1.759,0.145,-0.166,-17.083,15.077,-5.708
1747656504.23,0.048,-0.022,0.047,-1.720,0.128,-0.194,-18.069,15.202,-5.541
1747656504.24,0.040,-0.051,0.115,-1.683,0.128,-0.205,-19.036,15.328,-5.208
1747656504.25,0.019,-0.061,0.040,-1.683,0.048,-0.204,-19.992,15.426,-5.060
1747656504.26,0.005,-0.049,-0.024,-1.697,0.058,-0.167,-20.952,15.512,-4.722
1747656504.27,0.034,-0.029,0.001,-1.700,0.051,-0.109,-21.907,15.615,-4.525
1747656504.28,0.062,-0.009,0.011,-1.734,0.040,-0.057,-22.864,15.733,-4.132
1747656504.29,0.072,0.003,0.044,-1.743,0.026,-0.041,-23.828,15.857,-3.864
1747656504.30,0.045,0.004,0.080,-1.711,0.015,-0.058,-24.784,15.979,-3.459
1747656504.31,0.009,-0.006,0.103,-1.645,0.052,-0.107,-25.720,16.100,-3.214
1747656504.32,-0.009,-0.023,0.049,-1.601,0.116,-0.176,-26.629,16.233,-2.882
1747656504.33,-0.032,-0.046,-0.021,-1.674,0.160,-0.213,-27.557,16.396,-2.710
1747656504.34,-0.057,-0.095,-0.076,-1.685,0.098,-0.210,-28.514,16.551,-2.433
1747656504.35,-0.082,-0.140,-0.061,-1.710,0.157,-0.171,-29.472,16.715,-2.237
1747656504.36,-0.032,-0.170,0.061,-1.727,0.207,-0.133,-30.438,16.939,-1.905
1747656504.37,0.023,-0.175,0.108,-1.726,0.210,-0.111,-31.401,17.191,-1.646
1747656504.38,0.062,-0.144,0.118,-1.743,0.192,-0.095,-32.363,17.455,-1.272
1747656504.39,0.094,-0.088,0.072,-1.742,0.096,-0.104,-33.330,17.702,-0.977
1747656504.40,0.061,-0.016,0.013,-1.755,-0.031,-0.147,-34.302,17.876,-0.623
1747656504.41,-0.007,0.046,0.017,-1.704,-0.079,-0.189,-35.276,17.991,-0.363
1747656504.42,-0.059,0.090,0.012,-1.633,-0.132,-0.230,-36.217,18.060,-0.074
1747656504.43,-0.106,0.109,0.005,-1.643,-0.147,-0.243,-37.147,18.095,0.124
1747656504.44,-0.085,0.082,0.022,-1.667,-0.115,-0.211,-38.087,18.152,0.383
1747656504.45,-0.008,0.020,0.015,-1.653,-0.104,-0.178,-39.024,18.243,0.629
1747656504.46,0.061,-0.047,0.011,-1.609,-0.134,-0.155,-39.938,18.342,0.876
1747656504.47,0.108,-0.102,0.017,-1.604,-0.138,-0.123,-40.832,18.445,1.157
1747656504.48,0.143,-0.137,0.022,-1.615,-0.183,-0.100,-41.724,18.561,1.464
1747656504.49,0.124,-0.148,-0.010,-1.658,-0.272,-0.092,-42.628,18.653,1.797
1747656504.50,0.075,-0.140,-0.011,-1.665,-0.285,-0.084,-43.543,18.731,2.150
1747656504.51,0.040,-0.125,0.010,-1.654,-0.322,-0.101,-44.458,18.810,2.507
1747656504.52,0.007,-0.100,0.013,-1.660,-0.411,-0.111,-45.372,18.846,2.856
1747656504.53,0.020,-0.089,0.021,-1.678,-0.428,-0.090,-46.293,18.865,3.220
1747656504.54,0.078,-0.095,0.064,-1.694,-0.424,-0.077,-47.219,18.908,3.602
1747656504.55,0.119,-0.096,0.091,-1.677,-0.512,-0.086,-48.145,18.937,4.000
1747656504.56,0.133,-0.079,0.046,-1.671,-0.568,-0.092,-49.063,18.920,4.387
1747656504.57,0.142,-0.059,0.037,-1.712,-0.582,-0.096,-49.995,18.900,4.793
1747656504.58,0.124,-0.033,0.035,-1.720,-0.646,-0.072,-50.938,18.880,5.213
1747656504.59,0.083,-0.012,-0.022,-1.738,-0.745,-0.012,-51.881,18.852,5.686
1747656504.60,0.050,-0.005,-0.015,-1.766,-0.813,0.081,-52.821,18.847,6.238
1747656504.61,0.037,-0.005,0.018,-1.800,-0.832,0.164,-53.764,18.908,6.904
1747656504.62,0.020,-0.008,0.034,-1.723,-0.818,0.188,-54.686,19.028,7.621
1747656504.63,0.001,-0.012,0.032,-1.622,-0.843,0.141,-55.556,19.133,8.325
1747656504.64,-0.039,-0.006,0.014,-1.626,-0.837,0.065,-56.410,19.185,8.969
1747656504.65,-0.063,-0.008,0.033,-1.596,-0.837,-0.041,-57.279,19.185,9.534
1747656504.66,-0.072,-0.015,0.020,-1.549,-0.885,-0.100,-58.139,19.095,10.011
1747656504.67,-0.071,-0.021,-0.003,-1.527,-0.848,-0.116,-58.990,18.969,10.447
1747656504.68,-0.036,-0.037,0.024,-1.481,-0.810,-0.116,-59.825,18.858,10.866
1747656504.69,-0.021,-0.057,0.015,-1.460,-0.832,-0.067,-60.635,18.776,11.311
1747656504.70,-0.038,-0.072,-0.018,-1.473,-0.824,-0.054,-61.439,18.730,11.802
1747656504.71,-0.062,-0.078,-0.016,-1.490,-0.729,-0.068,-62.251,18.730,12.307
1747656504.72,-0.122,-0.068,-0.009,-1.507,-0.624,-0.099,-63.078,18.790,12.810
1747656504.73,-0.192,-0.052,-0.010,-1.482,-0.477,-0.120,-63.907,18.909,13.295
1747656504.74,-0.213,-0.037,0.013,-1.460,-0.343,-0.132,-64.724,19.101,13.766
1747656504.75,-0.193,-0.018,0.017,-1.426,-0.232,-0.139,-65.528,19.366,14.238
1747656504.76,-0.150,0.006,0.004,-1.401,-0.168,-0.139,-66.314,19.688,14.713
1747656504.77,-0.086,0.022,0.024,-1.406,-0.129,-0.152,-67.097,20.058,15.209
1747656504.78,-0.004,0.027,0.073,-1.339,-0.142,-0.146,-67.867,20.450,15.711
1747656504.79,0.051,0.031,0.035,-1.213,-0.252,-0.127,-68.574,20.798,16.207
1747656504.80,0.080,0.032,-0.025,-1.200,-0.366,-0.125,-69.240,21.081,16.700
1747656504.81,0.084,0.020,0.005,-1.221,-0.398,-0.140,-69.912,21.345,17.219
1747656504.82,0.032,-0.010,-0.002,-1.211,-0.383,-0.183,-70.593,21.591,17.718
1747656504.83,-0.032,-0.049,-0.019,-1.176,-0.304,-0.208,-71.268,21.814,18.165
1747656504.84,-0.057,-0.081,-0.011,-1.154,-0.187,-0.202,-71.928,22.094,18.608
1747656504.85,-0.057,-0.081,0.011,-1.175,-0.123,-0.222,-72.588,22.447,19.067
1747656504.86,-0.056,-0.057,-0.002,-1.185,-0.137,-0.266,-73.265,22.802,19.515
1747656504.87,-0.035,-0.027,-0.021,-1.146,-0.159,-0.303,-73.943,23.091,19.903
1747656504.88,0.009,0.006,-0.005,-1.010,-0.209,-0.304,-74.582,23.284,20.212
1747656504.89,0.028,0.039,-0.006,-0.898,-0.294,-0.308,-75.146,23.343,20.420
1747656504.90,-0.015,0.063,0.006,-0.892,-0.350,-0.330,-75.686,23.288,20.555
1747656504.91,-0.093,0.069,-0.008,-0.907,-0.376,-0.332,-76.234,23.187,20.667
1747656504.92,-0.158,0.041,-0.048,-0.920,-0.267,-0.299,-76.784,23.161,20.834
1747656504.93,-0.154,-0.010,-0.044,-1.003,-0.140,-0.288,-77.352,23.318,21.114
1747656504.94,-0.120,-0.047,-0.020,-1.102,-0.025,-0.297,-77.972,23.670,21.521
1747656504.95,-0.097,-0.067,0.037,-1.064,0.132,-0.312,-78.613,24.144,21.976
1747656504.96,-0.095,-0.057,0.064,-0.960,0.269,-0.319,-79.214,24.644,22.367
1747656504.97,-0.127,-0.011,0.060,-0.817,0.376,-0.365,-79.757,25.024,22.566
1747656504.98,-0.196,0.040,0.003,-0.732,0.486,-0.394,-80.246,25.212,22.507
1747656504.99,-0.254,0.063,-0.076,-0.744,0.579,-0.423,-80.724,25.327,22.317
1747656505.00,-0.269,0.051,-0.094,-0.802,0.777,-0.454,-81.229,25.481,22.082
1747656505.01,-0.228,0.016,-0.039,-0.838,0.952,-0.463,-81.767,25.749,21.851
1747656505.02,-0.147,-0.026,-0.006,-0.861,1.125,-0.431,-82.315,26.210,21.717
1747656505.03,-0.048,-0.042,0.044,-0.908,1.241,-0.394,-82.871,27.015,21.843
1747656505.04,0.012,-0.013,0.058,-0.929,1.206,-0.348,-83.436,28.182,22.308
1747656505.04,0.028,0.013,0.018,-0.912,1.107,-0.323,-83.989,29.637,23.106
1747656505.05,0.059,0.010,-0.005,-0.927,1.055,-0.308,-84.530,31.352,24.211
1747656505.06,0.104,-0.000,0.029,-0.992,1.010,-0.319,-85.088,33.524,25.799
1747656505.08,0.135,-0.009,0.073,-1.005,0.937,-0.326,-85.664,36.244,27.970
1747656505.08,0.160,-0.024,0.052,-0.990,0.847,-0.315,-86.226,39.664,30.885
1747656505.09,0.189,-0.042,0.040,-0.966,0.695,-0.271,-86.755,44.149,34.937
1747656505.10,0.219,-0.063,0.016,-0.920,0.535,-0.200,-87.220,50.282,40.728
1747656505.11,0.249,-0.074,0.001,-0.889,0.439,-0.164,-87.604,58.538,48.715
1747656505.12,0.237,-0.058,0.039,-0.864,0.272,-0.185,-87.913,69.134,59.110
1747656505.13,0.154,-0.019,0.024,-0.802,0.027,-0.263,-88.157,81.836,71.733
1747656505.14,0.034,0.010,-0.039,-0.675,-0.178,-0.373,-88.349,95.565,85.513
1747656505.15,-0.069,0.012,-0.083,-0.568,-0.281,-0.444,-88.502,109.879,99.971
1747656505.16,-0.108,0.007,-0.094,-0.541,-0.233,-0.439,-88.583,125.354,115.600
1747656505.17,-0.102,0.006,-0.060,-0.552,-0.144,-0.380,-88.541,140.778,131.138
1747656505.18,-0.100,0.013,-0.049,-0.555,0.008,-0.295,-88.381,153.210,143.615
1747656505.19,-0.078,0.026,-0.061,-0.550,0.152,-0.207,-88.144,161.629,151.989
1747656505.20,-0.058,0.021,-0.064,-0.491,0.208,-0.146,-87.883,166.826,157.083
1747656505.21,-0.047,0.000,-0.063,-0.435,0.196,-0.103,-87.641,170.059,160.203
1747656505.22,-0.034,-0.028,-0.009,-0.424,0.260,-0.066,-87.407,172.151,162.170
1747656505.23,-0.005,-0.041,0.057,-0.410,0.351,-0.052,-87.175,173.644,163.489
1747656505.24,0.008,-0.028,0.064,-0.388,0.393,-0.052,-86.950,174.867,164.498
1747656505.25,0.006,-0.001,0.055,-0.318,0.346,-0.056,-86.750,175.953,165.369
1747656505.26,0.006,0.027,0.006,-0.261,0.292,-0.044,-86.588,176.807,166.045
1747656505.27,0.024,0.039,0.010,-0.246,0.265,-0.040,-86.446,177.474,166.553
1747656505.28,0.039,0.033,0.029,-0.206,0.218,-0.049,-86.316,178.079,167.022
1747656505.29,0.032,0.010,0.013,-0.172,0.238,-0.061,-86.210,178.723,167.540
1747656505.30,0.027,-0.017,0.014,-0.160,0.283,-0.070,-86.115,179.455,168.123
1747656505.31,0.020,-0.030,-0.004,-0.146,0.298,-0.070,-86.027,-179.786,168.717
1747656505.32,0.017,-0.023,-0.024,-0.121,0.322,-0.067,-85.948,-179.060,169.270
1747656505.33,0.015,0.007,-0.017,-0.075,0.368,-0.072,-85.893,-178.315,169.819
1747656505.34,0.012,0.025,0.010,-0.065,0.326,-0.067,-85.853,-177.586,170.347
1747656505.35,-0.006,0.011,0.039,-0.096,0.209,-0.054,-85.807,-176.987,170.793
1747656505.36,-0.032,-0.014,0.062,-0.150,0.109,-0.043,-85.735,-176.576,171.115
1747656505.37,-0.027,-0.025,0.054,-0.156,0.059,-0.034,-85.644,-176.323,171.323
1747656505.38,0.008,-0.014,0.021,-0.113,0.056,-0.030,-85.566,-176.123,171.492
1747656505.39,0.051,0.006,0.014,-0.074,0.059,-0.027,-85.513,-175.938,171.643
1747656505.40,0.072,0.020,0.032,-0.048,0.023,-0.013,-85.478,-175.802,171.756
1747656505.41,0.058,0.003,0.028,-0.041,-0.029,-0.013,-85.454,-175.751,171.809
1747656505.42,0.026,0.018,0.037,-0.094,-0.080,-0.038,-85.416,-175.695,171.898
1747656505.43,-0.017,0.007,0.083,-0.161,-0.129,-0.065,-85.336,-175.455,172.198
1747656505.44,-0.053,-0.031,0.108,-0.199,-0.149,-0.078,-85.220,-175.111,172.624
1747656505.45,-0.063,-0.050,0.084,-0.194,-0.097,-0.093,-85.097,-174.701,173.108
1747656505.46,-0.053,-0.048,0.059,-0.165,-0.027,-0.106,-84.986,-174.209,173.636
1747656505.47,-0.031,-0.033,0.042,-0.134,0.053,-0.107,-84.895,-173.683,174.159
1747656505.48,-0.012,-0.011,0.042,-0.103,0.120,-0.098,-84.820,-173.159,174.634
1747656505.49,-0.010,0.015,0.040,-0.075,0.133,-0.082,-84.762,-172.660,175.061
1747656505.50,-0.012,0.030,0.024,-0.067,0.141,-0.061,-84.715,-172.239,175.405
1747656505.51,-0.017,0.029,0.026,-0.059,0.126,-0.042,-84.667,-171.906,175.662
1747656505.52,-0.035,0.018,0.020,-0.036,0.065,-0.031,-84.625,-171.627,175.886
1747656505.53,-0.053,0.003,0.012,-0.014,0.003,-0.012,-84.601,-171.446,176.048
1747656505.54,-0.053,-0.014,0.011,0.006,0.010,0.004,-84.594,-171.387,176.107
1747656505.55,-0.041,-0.028,0.021,-0.005,0.092,0.007,-84.591,-171.365,176.101
1747656505.56,-0.022,-0.037,0.042,-0.013,0.162,0.016,-84.579,-171.372,176.018
1747656505.57,-0.008,-0.036,0.038,-0.011,0.195,0.024,-84.566,-171.406,175.880
1747656505.58,-0.009,-0.023,0.040,-0.006,0.193,0.015,-84.557,-171.397,175.775
1747656505.59,-0.010,-0.007,0.044,0.007,0.129,0.007,-84.552,-171.327,175.751
1747656505.60,-0.001,0.006,0.035,0.041,0.029,0.015,-84.561,-171.234,175.798
1747656505.61,0.008,0.018,0.020,0.088,-0.034,0.030,-84.593,-171.151,175.882
1747656505.62,0.016,0.019,0.015,0.097,-0.036,0.037,-84.643,-171.102,175.953
1747656505.63,0.015,0.006,0.027,0.076,-0.027,0.028,-84.683,-171.086,175.985
1747656505.64,-0.002,-0.003,0.023,0.048,-0.040,0.004,-84.700,-171.082,176.007
1747656505.65,-0.021,-0.002,0.003,0.012,-0.011,-0.015,-84.698,-171.022,176.085
1747656505.66,-0.024,-0.003,0.008,0.014,0.032,-0.022,-84.684,-170.871,176.230
1747656505.67,-0.017,-0.006,0.014,0.060,0.078,-0.014,-84.684,-170.679,176.393
1747656505.68,-0.006,-0.005,0.028,0.103,0.157,0.007,-84.716,-170.514,176.490
1747656505.69,-0.001,-0.004,0.060,0.099,0.173,0.027,-84.769,-170.474,176.432
1747656505.70,-0.023,-0.005,0.073,0.065,0.060,0.044,-84.814,-170.627,176.210
1747656505.71,-0.058,-0.005,0.036,0.039,-0.045,0.042,-84.836,-170.943,175.892
1747656505.72,-0.069,0.001,0.005,0.048,-0.062,0.020,-84.853,-171.144,175.725
1747656505.73,-0.048,0.004,-0.007,0.072,0.018,0.001,-84.885,-171.087,175.796
1747656505.74,-0.013,-0.005,0.005,0.096,0.114,-0.001,-84.927,-170.884,175.961
1747656505.75,0.014,-0.010,0.022,0.135,0.166,0.018,-84.986,-170.686,176.077
1747656505.76,0.024,-0.009,0.018,0.187,0.151,0.043,-85.071,-170.616,176.054
1747656505.77,0.019,-0.009,0.006,0.227,0.090,0.056,-85.179,-170.686,175.915
1747656505.78,0.002,-0.003,-0.002,0.213,0.027,0.041,-85.292,-170.716,175.850
1747656505.79,-0.010,0.003,0.019,0.148,-0.079,0.032,-85.384,-170.597,175.983
1747656505.80,-0.017,0.003,0.016,0.117,-0.115,0.044,-85.453,-170.550,176.088
1747656505.81,-0.007,-0.007,-0.013,0.131,-0.124,0.049,-85.525,-170.652,176.053
1747656505.82,0.003,-0.009,-0.014,0.188,-0.100,0.055,-85.614,-170.864,175.905
1747656505.83,0.016,-0.005,0.016,0.237,-0.069,0.062,-85.733,-171.144,175.672
1747656505.84,0.027,-0.003,0.045,0.241,-0.053,0.071,-85.870,-171.468,175.382
1747656505.85,0.022,-0.010,0.057,0.199,-0.046,0.070,-85.997,-171.837,175.040
1747656505.86,0.006,-0.030,0.049,0.192,-0.070,0.063,-86.109,-172.207,174.701
1747656505.87,-0.015,-0.047,0.027,0.259,-0.166,0.045,-86.231,-172.442,174.532
1747656505.88,-0.043,-0.042,0.031,0.320,-0.246,0.035,-86.390,-172.483,174.610
1747656505.89,-0.054,-0.021,0.036,0.355,-0.267,0.019,-86.581,-172.434,174.808
1747656505.90,-0.037,0.003,0.012,0.372,-0.241,-0.006,-86.786,-172.160,175.228
1747656505.91,-0.003,0.015,0.007,0.409,-0.210,-0.031,-87.004,-171.492,176.025
1747656505.92,0.026,0.026,0.009,0.459,-0.234,-0.027,-87.247,-170.477,177.168
1747656505.93,0.034,0.058,-0.020,0.487,-0.251,0.002,-87.513,-169.392,178.394
1747656505.94,0.006,0.072,-0.017,0.515,-0.214,0.055,-87.796,-168.550,179.374
1747656505.95,-0.044,0.032,0.046,0.506,-0.036,0.131,-88.094,-168.453,179.546
1747656505.96,-0.109,-0.028,0.102,0.417,0.132,0.175,-88.372,-169.641,178.328
1747656505.97,-0.187,-0.058,0.090,0.312,0.258,0.178,-88.593,-172.096,175.761
1747656505.98,-0.223,-0.049,0.084,0.274,0.393,0.150,-88.767,-175.176,172.493
1747656505.99,-0.195,-0.009,0.094,0.298,0.474,0.119,-88.933,-178.182,169.236
1747656506.00,-0.137,0.031,0.097,0.334,0.475,0.097,-89.114,178.544,165.688
1747656506.01,-0.072,0.050,0.095,0.368,0.428,0.080,-89.310,174.165,161.046
1747656506.02,-0.024,0.049,0.078,0.414,0.327,0.052,-89.527,167.119,153.784
1747656506.03,-0.002,0.031,0.068,0.414,0.282,0.039,-89.743,149.938,136.432
1747656506.04,0.013,0.002,0.077,0.415,0.297,0.042,-89.849,85.410,71.739
1747656506.05,0.020,-0.020,0.052,0.412,0.329,0.060,-89.691,35.827,21.980
1747656506.06,0.012,-0.032,0.039,0.320,0.408,0.084,-89.488,25.899,11.840
1747656506.07,0.003,-0.041,0.079,0.266,0.406,0.093,-89.319,24.007,9.712
1747656506.08,-0.008,-0.044,0.061,0.328,0.320,0.094,-89.145,22.889,8.386
1747656506.09,-0.013,-0.025,0.040,0.423,0.228,0.076,-88.927,20.996,6.336
1747656506.10,-0.010,0.012,0.031,0.501,0.125,0.042,-88.666,18.362,3.599
1747656506.11,-0.010,0.035,0.009,0.552,0.024,0.011,-88.375,15.583,0.778
1747656506.12,-0.006,0.042,-0.026,0.587,-0.000,-0.003,-88.057,13.067,-1.742
1747656506.13,-0.007,0.028,-0.022,0.577,0.028,-0.007,-87.732,11.099,-3.719
1747656506.14,-0.017,-0.006,0.013,0.575,0.072,0.014,-87.409,9.772,-5.075
1747656506.15,-0.028,-0.031,0.009,0.589,0.162,0.043,-87.079,9.044,-5.870
1747656506.16,-0.044,-0.036,0.008,0.637,0.227,0.047,-86.731,8.646,-6.384
1747656506.17,-0.066,-0.024,-0.019,0.710,0.268,0.053,-86.347,8.300,-6.870
1747656506.18,-0.064,-0.004,-0.033,0.712,0.321,0.063,-85.937,8.080,-7.262
1747656506.19,-0.041,0.007,0.008,0.695,0.340,0.092,-85.534,8.094,-7.437
1747656506.20,-0.012,0.009,0.033,0.699,0.407,0.122,-85.131,8.358,-7.385
1747656506.21,0.011,0.011,0.070,0.707,0.414,0.139,-84.724,8.764,-7.216
1747656506.22,0.002,0.009,0.040,0.724,0.368,0.136,-84.307,9.145,-7.057
1747656506.23,-0.023,-0.002,-0.026,0.723,0.390,0.102,-83.887,9.374,-7.040
1747656506.24,-0.025,-0.019,-0.029,0.740,0.451,0.067,-83.468,9.432,-7.225
1747656506.25,-0.009,-0.029,-0.029,0.804,0.510,0.052,-83.029,9.371,-7.560
1747656506.26,0.019,-0.027,-0.028,0.871,0.641,0.056,-82.550,9.320,-7.941
1747656506.27,0.057,-0.005,0.006,0.839,0.660,0.060,-82.058,9.344,-8.384
1747656506.28,0.057,0.023,0.049,0.718,0.532,0.081,-81.613,9.455,-8.617
1747656506.29,0.012,0.031,0.054,0.650,0.418,0.054,-81.223,9.565,-8.862
1747656506.30,-0.030,0.026,0.013,0.607,0.296,0.010,-80.866,9.500,-9.137
1747656506.31,-0.038,0.012,-0.030,0.539,0.187,0.007,-80.541,9.321,-9.534
1747656506.32,0.001,-0.016,-0.034,0.507,0.203,0.040,-80.247,9.230,-9.737
1747656506.33,0.076,-0.045,-0.000,0.607,0.226,0.054,-79.934,9.222,-9.958
1747656506.34,0.136,-0.053,-0.016,0.815,0.188,0.039,-79.530,9.132,-10.170
1747656506.35,0.173,-0.038,-0.060,0.927,0.183,0.006,-79.031,8.883,-10.625
1747656506.36,0.184,-0.017,-0.008,0.917,0.135,-0.018,-78.510,8.555,-11.059
1747656506.37,0.130,-0.003,0.059,0.920,-0.043,-0.052,-77.994,8.123,-11.616
1747656506.38,-0.009,0.003,0.032,0.935,-0.124,-0.101,-77.475,7.539,-12.158
1747656506.39,-0.135,0.002,-0.009,0.935,-0.108,-0.134,-76.951,6.879,-12.861
1747656506.40,-0.215,0.008,-0.062,0.821,-0.087,-0.120,-76.457,6.264,-13.433
1747656506.41,-0.233,0.010,-0.070,0.685,0.079,-0.050,-76.038,5.871,-13.932
1747656506.42,-0.164,-0.018,-0.029,0.693,0.246,0.035,-75.654,5.793,-14.113
1747656506.43,-0.052,-0.058,-0.044,0.891,0.272,0.115,-75.206,5.936,-14.218
1747656506.44,0.060,-0.071,-0.107,1.141,0.323,0.143,-74.619,6.155,-14.161
1747656506.45,0.143,-0.053,-0.099,1.250,0.517,0.087,-73.927,6.367,-14.286
1747656506.46,0.158,-0.041,0.035,1.274,0.686,-0.041,-73.208,6.493,-14.519
1747656506.47,0.044,-0.048,0.064,1.208,0.603,-0.186,-72.504,6.404,-15.115
1747656506.48,-0.182,-0.046,-0.062,1.026,0.411,-0.308,-71.885,6.032,-15.809
1747656506.49,-0.357,-0.044,-0.121,0.864,0.342,-0.311,-71.368,5.529,-16.672
1747656506.50,-0.382,-0.042,-0.111,0.712,0.537,-0.155,-70.933,5.245,-17.226
1747656506.51,-0.248,-0.030,-0.003,0.633,0.811,0.101,-70.557,5.489,-17.491
1747656506.52,-0.022,-0.020,0.070,0.729,0.822,0.332,-70.165,6.210,-17.230
1747656506.53,0.185,-0.014,0.014,1.026,0.658,0.436,-69.646,7.092,-16.847
1747656506.54,0.315,-0.004,-0.025,1.300,0.433,0.385,-68.950,7.800,-16.424
1747656506.55,0.376,-0.007,-0.011,1.355,0.216,0.257,-68.166,8.178,-16.325
1747656506.56,0.365,-0.050,0.039,1.252,-0.011,0.162,-67.412,8.259,-16.301
1747656506.57,0.252,-0.111,0.020,1.182,-0.291,0.091,-66.715,8.112,-16.489
1747656506.58,0.087,-0.147,-0.093,1.077,-0.429,0.046,-66.067,7.770,-16.624
1747656506.59,-0.017,-0.145,-0.095,0.866,-0.236,0.068,-65.510,7.476,-16.731
1747656506.60,-0.040,-0.100,0.043,0.664,-0.124,0.110,-65.076,7.370,-16.743
1747656506.61,-0.033,-0.028,0.088,0.754,-0.219,0.217,-64.677,7.359,-16.648
1747656506.62,0.045,0.037,0.058,1.136,-0.232,0.340,-64.124,7.416,-16.437
1747656506.63,0.137,0.094,0.048,1.386,-0.211,0.305,-63.375,7.484,-16.222
1747656506.64,0.139,0.127,0.049,1.418,-0.184,0.126,-62.559,7.410,-16.180
1747656506.65,0.061,0.104,0.058,1.323,-0.205,-0.007,-61.775,7.167,-16.332
1747656506.66,-0.034,0.033,0.039,1.235,-0.256,0.022,-61.054,6.868,-16.523
1747656506.67,-0.068,-0.043,-0.016,1.100,-0.173,0.163,-60.380,6.692,-16.578
1747656506.68,-0.050,-0.084,-0.016,0.876,-0.026,0.243,-59.807,6.728,-16.470
1747656506.69,-0.039,-0.084,0.056,0.810,0.035,0.278,-59.319,6.888,-16.293
1747656506.70,-0.015,-0.069,0.064,0.867,0.006,0.381,-58.823,7.113,-16.044
1747656506.71,0.037,-0.044,0.049,0.947,-0.044,0.439,-58.279,7.378,-15.721
1747656506.72,0.074,-0.008,0.031,1.010,-0.075,0.448,-57.690,7.631,-15.382
1747656506.73,0.066,0.017,0.019,1.112,-0.087,0.404,-57.061,7.836,-15.080
1747656506.74,0.048,0.041,0.055,1.261,-0.070,0.324,-56.358,7.963,-14.875
1747656506.75,0.007,0.064,0.151,1.272,-0.050,0.262,-55.615,8.022,-14.763
1747656506.76,-0.063,0.071,0.210,1.223,-0.025,0.208,-54.890,8.053,-14.701
1747656506.77,-0.159,0.064,0.062,1.166,-0.084,0.101,-54.202,8.016,-14.713
1747656506.78,-0.257,0.054,-0.110,1.071,-0.140,0.060,-53.559,7.881,-14.794
1747656506.79,-0.237,0.036,-0.164,0.904,-0.004,0.140,-52.993,7.802,-14.836
1747656506.80,-0.127,0.026,-0.024,0.870,0.045,0.270,-52.483,7.889,-14.753
1747656506.81,-0.038,0.040,0.059,1.049,-0.093,0.333,-51.919,8.003,-14.595
1747656506.82,0.002,0.085,0.017,1.230,-0.210,0.350,-51.244,8.045,-14.428
1747656506.83,0.010,0.118,0.017,1.314,-0.209,0.325,-50.494,8.031,-14.285
1747656506.84,-0.008,0.120,0.069,1.313,-0.073,0.229,-49.727,8.011,-14.202
1747656506.85,-0.039,0.074,0.158,1.268,0.005,0.136,-48.983,7.994,-14.204
1747656506.86,-0.050,-0.002,0.102,1.212,-0.021,0.110,-48.269,7.955,-14.252
1747656506.87,-0.019,-0.064,-0.078,1.092,-0.060,0.157,-47.604,7.911,-14.279
1747656506.88,0.048,-0.099,-0.086,0.954,-0.087,0.308,-47.010,7.919,-14.205
1747656506.89,0.096,-0.120,0.014,0.956,-0.010,0.360,-46.449,8.016,-14.035
1747656506.90,0.148,-0.103,0.098,1.096,-0.028,0.384,-45.841,8.143,-13.851
1747656506.91,0.122,-0.060,0.046,1.167,-0.138,0.416,-45.163,8.231,-13.661
1747656506.92,0.076,-0.008,-0.017,1.122,-0.185,0.441,-44.478,8.284,-13.451
1747656506.93,0.056,0.014,0.062,1.084,-0.165,0.460,-43.821,8.339,-13.224
1747656506.94,0.067,0.004,0.169,1.136,-0.072,0.495,-43.157,8.440,-12.979
1747656506.95,0.102,-0.003,0.127,1.177,-0.022,0.496,-42.458,8.585,-12.729
1747656506.96,0.103,0.010,-0.002,1.127,-0.078,0.441,-41.766,8.711,-12.505
1747656506.97,0.037,0.025,-0.043,1.088,-0.164,0.405,-41.106,8.764,-12.318
1747656506.98,-0.028,0.029,-0.005,1.099,-0.163,0.443,-40.454,8.792,-12.129
1747656506.99,-0.048,0.035,0.021,1.124,-0.113,0.486,-39.785,8.854,-11.911
1747656507.00,-0.070,0.058,0.020,1.148,-0.081,0.481,-39.101,8.943,-11.685
1747656507.01,-0.106,0.081,0.044,1.222,-0.054,0.431,-38.392,9.025,-11.490
1747656507.02,-0.126,0.090,0.117,1.296,-0.005,0.375,-37.644,9.099,-11.345
1747656507.03,-0.119,0.085,0.105,1.327,0.046,0.284,-36.873,9.163,-11.259
1747656507.04,-0.105,0.071,0.023,1.314,0.004,0.193,-36.104,9.188,-11.244
1747656507.05,-0.101,0.042,-0.006,1.277,-0.034,0.163,-35.358,9.162,-11.269
1747656507.06,-0.071,0.015,0.007,1.271,-0.038,0.281,-34.620,9.143,-11.263
1747656507.07,-0.012,0.005,0.003,1.245,-0.016,0.258,-33.887,9.160,-11.211
1747656507.08,0.078,0.026,0.013,1.248,-0.088,0.267,-33.161,9.152,-11.173
1747656507.09,0.101,0.026,-0.011,1.272,-0.172,0.319,-32.426,9.109,-11.111
1747656507.10,0.093,0.014,0.062,1.348,-0.221,0.353,-31.657,9.043,-11.024
1747656507.11,0.036,0.014,0.093,1.376,-0.247,0.291,-30.856,8.946,-10.950
1747656507.12,-0.033,0.023,0.018,1.380,-0.269,0.176,-30.056,8.806,-10.938
1747656507.13,-0.089,0.015,0.010,1.342,-0.176,0.124,-29.275,8.648,-10.980
1747656507.14,-0.095,-0.022,0.053,1.328,0.042,0.132,-28.510,8.587,-11.028
1747656507.15,-0.071,-0.058,0.056,1.303,0.222,0.128,-27.756,8.643,-11.073
1747656507.16,-0.038,-0.067,0.050,1.327,0.322,0.147,-27.004,8.783,-11.115
1747656507.17,0.007,-0.045,0.068,1.350,0.305,0.208,-26.232,8.956,-11.138
1747656507.18,0.051,0.004,0.067,1.343,0.200,0.296,-25.449,9.114,-11.114
1747656507.19,0.105,0.069,0.054,1.364,0.068,0.374,-24.658,9.219,-11.040
1747656507.20,0.153,0.117,0.097,1.443,0.006,0.386,-23.831,9.278,-10.943
1747656507.21,0.176,0.148,0.093,1.505,0.016,0.340,-22.965,9.312,-10.867
1747656507.22,0.154,0.150,0.007,1.538,-0.033,0.269,-22.079,9.326,-10.833
1747656507.23,0.041,0.121,-0.084,1.600,-0.090,0.217,-21.174,9.282,-10.844
1747656507.24,-0.090,0.069,-0.063,1.655,0.050,0.240,-20.234,9.255,-10.870
1747656507.25,-0.153,0.002,0.038,1.574,0.289,0.296,-19.294,9.354,-10.867
1747656507.26,-0.178,-0.045,0.047,1.448,0.465,0.333,-18.415,9.585,-10.829
1747656507.27,-0.162,-0.039,-0.005,1.402,0.565,0.377,-17.580,9.900,-10.763
1747656507.28,-0.057,0.036,0.017,1.427,0.585,0.408,-16.748,10.259,-10.677
1747656507.29,0.088,0.116,0.052,1.465,0.404,0.395,-15.893,10.572,-10.596
1747656507.30,0.171,0.145,0.058,1.466,0.070,0.399,-15.031,10.728,-10.527
1747656507.31,0.201,0.113,0.078,1.532,-0.182,0.366,-14.151,10.700,-10.468
1747656507.32,0.206,0.059,0.123,1.627,-0.123,0.317,-13.227,10.609,-10.441
1747656507.33,0.181,0.012,0.095,1.632,0.027,0.202,-12.278,10.579,-10.466
1747656507.34,0.017,-0.055,-0.038,1.495,0.113,0.096,-11.384,10.599,-10.554
1747656507.35,-0.184,-0.154,-0.112,1.414,0.241,0.202,-10.558,10.685,-10.629
1747656507.36,-0.229,-0.187,-0.059,1.412,0.402,0.353,-9.735,10.871,-10.621
1747656507.37,-0.153,-0.092,0.014,1.392,0.415,0.444,-8.905,11.123,-10.549
1747656507.38,0.011,0.070,0.043,1.361,0.258,0.518,-8.080,11.337,-10.431
1747656507.39,0.216,0.179,0.054,1.364,0.001,0.547,-7.260,11.433,-10.284
1747656507.40,0.324,0.191,0.087,1.438,-0.302,0.546,-6.417,11.363,-10.134
1747656507.41,0.308,0.132,0.145,1.559,-0.501,0.522,-5.515,11.144,-10.000
1747656507.42,0.219,0.038,0.188,1.579,-0.502,0.451,-4.581,10.855,-9.896
1747656507.43,0.131,-0.063,0.133,1.589,-0.314,0.390,-3.643,10.627,-9.830
1747656507.44,0.062,-0.154,-0.037,1.475,-0.119,0.346,-2.744,10.505,-9.784
1747656507.45,-0.074,-0.217,-0.185,1.435,0.065,0.345,-1.894,10.491,-9.743
1747656507.46,-0.227,-0.217,-0.157,1.368,0.318,0.437,-1.065,10.598,-9.672
1747656507.47,-0.252,-0.125,-0.043,1.367,0.464,0.511,-0.252,10.834,-9.547
1747656507.48,-0.204,0.064,0.028,1.396,0.419,0.521,0.582,11.090,-9.407
1747656507.49,-0.084,0.222,0.035,1.391,0.265,0.478,1.417,11.288,-9.279
1747656507.50,0.058,0.252,0.003,1.423,-0.038,0.407,2.254,11.353,-9.189
1747656507.51,0.139,0.182,-0.054,1.401,-0.343,0.329,3.089,11.241,-9.141
1747656507.52,0.168,0.041,-0.061,1.397,-0.548,0.253,3.901,10.980,-9.132
1747656507.53,0.105,-0.098,-0.019,1.435,-0.544,0.166,4.721,10.662,-9.166
1747656507.54,-0.011,-0.219,-0.018,1.390,-0.364,0.109,5.530,10.406,-9.238
1747656507.55,-0.132,-0.253,-0.078,1.306,-0.185,0.101,6.298,10.260,-9.321
1747656507.56,-0.246,-0.179,-0.114,1.306,-0.025,0.143,7.040,10.207,-9.386
1747656507.57,-0.288,-0.027,-0.066,1.348,0.114,0.174,7.803,10.242,-9.430
1747656507.58,-0.247,0.159,0.038,1.385,0.094,0.163,8.589,10.312,-9.473
1747656507.59,-0.154,0.249,0.043,1.408,0.029,0.106,9.388,10.357,-9.539
1747656507.60,-0.039,0.215,0.016,1.409,-0.057,-0.001,10.187,10.369,-9.656
1747656507.61,0.040,0.101,-0.016,1.385,-0.195,-0.089,10.967,10.331,-9.827
1747656507.62,0.083,-0.094,-0.056,1.364,-0.306,-0.163,11.728,10.226,-10.043
1747656507.63,0.109,-0.262,-0.062,1.298,-0.345,-0.250,12.457,10.094,-10.299
1747656507.64,0.090,-0.314,-0.098,1.239,-0.372,-0.275,13.142,9.949,-10.583
1747656507.65,-0.009,-0.263,-0.089,1.209,-0.276,-0.249,13.805,9.824,-10.858
1747656507.66,-0.106,-0.124,-0.066,1.204,-0.126,-0.210,14.461,9.771,-11.112
1747656507.67,-0.137,0.061,-0.058,1.214,-0.005,-0.174,15.122,9.794,-11.345
1747656507.68,-0.119,0.185,-0.011,1.240,0.089,-0.122,15.798,9.876,-11.556
1747656507.69,-0.048,0.232,-0.006,1.271,0.121,-0.086,16.494,9.993,-11.745
1747656507.70,0.039,0.212,-0.060,1.294,0.038,-0.080,17.208,10.094,-11.928
1747656507.71,0.122,0.109,-0.108,1.258,-0.082,-0.125,17.918,10.141,-12.120
1747656507.72,0.212,-0.082,-0.134,1.191,-0.221,-0.193,18.592,10.130,-12.347
1747656507.73,0.244,-0.169,-0.166,1.116,-0.404,-0.198,19.222,10.027,-12.589
1747656507.74,0.212,-0.211,-0.197,0.991,-0.444,-0.172,19.798,9.852,-12.806
1747656507.75,0.095,-0.216,-0.147,0.879,-0.340,-0.178,20.305,9.692,-13.007
1747656507.76,-0.032,-0.200,-0.074,0.822,-0.173,-0.142,20.766,9.611,-13.193
1747656507.77,-0.070,-0.118,-0.079,0.808,-0.001,-0.064,21.215,9.610,-13.338
1747656507.78,-0.061,0.072,-0.085,0.822,0.105,-0.027,21.668,9.686,-13.449
1747656507.79,-0.074,0.153,-0.054,0.822,0.187,0.016,22.129,9.804,-13.539
1747656507.80,-0.034,0.104,-0.060,0.771,0.154,0.035,22.582,9.934,-13.606
1747656507.81,0.039,0.020,-0.099,0.700,0.006,0.035,23.000,10.002,-13.664
1747656507.82,0.084,-0.059,-0.111,0.644,-0.087,-0.004,23.379,10.002,-13.725
1747656507.83,0.091,-0.088,-0.111,0.605,-0.124,-0.070,23.728,9.978,-13.817
1747656507.84,0.043,-0.107,-0.125,0.561,-0.090,-0.086,24.047,9.964,-13.931
1747656507.85,-0.029,-0.080,-0.138,0.483,-0.053,-0.044,24.337,9.966,-14.029
1747656507.86,-0.065,-0.065,-0.158,0.409,-0.054,-0.012,24.582,9.963,-14.093
1747656507.87,-0.072,-0.044,-0.140,0.380,-0.041,-0.022,24.802,9.956,-14.145
1747656507.88,-0.044,-0.039,-0.085,0.371,-0.008,-0.079,25.008,9.974,-14.217
1747656507.89,-0.047,-0.017,-0.046,0.395,0.015,-0.095,25.215,10.016,-14.313
1747656507.90,-0.070,0.037,-0.041,0.364,0.058,-0.084,25.423,10.081,-14.413
1747656507.91,-0.098,0.031,-0.040,0.336,0.058,-0.062,25.608,10.148,-14.498
1747656507.92,-0.091,-0.020,-0.010,0.320,0.069,-0.046,25.790,10.217,-14.567
1747656507.93,0.032,-0.076,-0.056,0.215,0.004,-0.077,25.936,10.272,-14.635
1747656507.94,0.113,-0.124,-0.101,0.142,-0.118,-0.072,26.025,10.265,-14.703
1747656507.95,0.084,-0.139,-0.057,0.116,-0.119,-0.062,26.091,10.218,-14.759
1747656507.96,0.024,-0.077,-0.031,0.100,-0.069,-0.055,26.146,10.185,-14.808
1747656507.97,-0.030,0.022,-0.050,0.112,0.001,-0.016,26.200,10.181,-14.843
1747656507.98,-0.043,0.059,-0.052,0.129,0.075,0.019,26.269,10.208,-14.856
1747656507.99,-0.015,0.031,-0.027,0.129,0.125,0.036,26.344,10.265,-14.852
1747656508.00,0.040,0.001,-0.020,0.104,0.145,0.021,26.415,10.341,-14.848
1747656508.01,0.070,-0.027,-0.010,0.064,0.121,0.019,26.463,10.417,-14.846
1747656508.02,0.046,-0.054,-0.008,0.056,0.088,0.037,26.501,10.474,-14.838
1747656508.03,0.036,-0.058,-0.025,0.036,0.083,0.053,26.536,10.515,-14.816
1747656508.04,0.051,-0.050,-0.050,-0.033,0.063,0.077,26.545,10.539,-14.776
1747656508.05,0.043,-0.034,-0.039,-0.025,-0.010,0.116,26.532,10.523,-14.710
1747656508.06,0.017,-0.002,-0.025,-0.013,0.011,0.131,26.534,10.481,-14.626
1747656508.07,0.057,0.002,-0.038,-0.057,0.002,0.093,26.524,10.452,-14.552
1747656508.08,0.040,-0.022,-0.032,-0.054,-0.003,0.104,26.500,10.421,-14.486
1747656508.09,-0.025,0.010,-0.000,-0.021,0.039,0.112,26.492,10.401,-14.414
1747656508.10,-0.066,0.056,-0.001,-0.019,0.077,0.101,26.496,10.407,-14.347
1747656508.11,-0.060,0.034,-0.031,-0.032,0.080,0.087,26.494,10.429,-14.285
1747656508.12,-0.036,0.026,-0.044,-0.020,0.042,0.099,26.489,10.440,-14.227
1747656508.13,-0.022,0.043,-0.036,-0.009,0.045,0.104,26.493,10.438,-14.162
1747656508.14,0.006,0.025,-0.027,-0.016,0.043,0.082,26.495,10.438,-14.102
1747656508.14,0.003,0.005,-0.017,0.021,0.048,0.067,26.500,10.449,-14.058
1747656508.16,-0.015,0.023,0.001,0.036,0.042,0.050,26.524,10.465,-14.027
1747656508.17,-0.034,0.047,-0.005,0.038,0.029,0.026,26.547,10.472,-14.006
1747656508.18,-0.056,0.034,-0.003,0.050,0.026,0.032,26.569,10.476,-13.990
1747656508.19,-0.064,0.018,0.012,0.072,0.052,0.029,26.603,10.484,-13.975
1747656508.19,-0.021,0.029,-0.005,0.076,0.048,0.013,26.642,10.507,-13.968
1747656508.20,0.025,0.027,-0.033,0.083,0.026,0.010,26.681,10.525,-13.968
1747656508.21,0.016,0.020,-0.035,0.096,0.022,0.008,26.728,10.540,-13.973
1747656508.22,-0.004,0.039,-0.028,0.110,0.038,0.012,26.785,10.559,-13.978
1747656508.23,-0.011,0.038,-0.028,0.117,0.067,0.016,26.845,10.586,-13.980
1747656508.24,-0.007,0.011,-0.006,0.128,0.110,0.023,26.905,10.627,-13.978
1747656508.25,-0.022,0.008,0.040,0.132,0.157,0.036,26.973,10.686,-13.968
1747656508.26,-0.004,0.011,0.012,0.110,0.136,0.046,27.042,10.743,-13.946
1747656508.27,0.043,-0.018,-0.048,0.099,0.117,0.072,27.097,10.794,-13.919
1747656508.28,0.058,-0.016,-0.025,0.122,0.218,0.099,27.162,10.872,-13.878
1747656508.29,0.062,0.021,-0.026,0.074,0.257,0.094,27.226,10.991,-13.830
1747656508.30,0.048,-0.011,-0.095,-0.018,0.250,0.116,27.247,11.105,-13.767
1747656508.31,0.017,-0.075,-0.092,-0.038,0.288,0.151,27.238,11.212,-13.677
1747656508.32,0.005,-0.054,-0.057,-0.064,0.336,0.159,27.229,11.341,-13.570
1747656508.33,0.052,-0.042,-0.092,-0.180,0.283,0.133,27.178,11.470,-13.461
1747656508.34,0.084,-0.109,-0.137,-0.263,0.206,0.159,27.068,11.553,-13.342
1747656508.35,0.088,-0.150,-0.109,-0.321,0.185,0.193,26.926,11.596,-13.193
1747656508.36,0.099,-0.107,-0.117,-0.412,0.163,0.179,26.743,11.624,-13.027
1747656508.37,0.100,-0.076,-0.152,-0.499,0.121,0.149,26.505,11.631,-12.866
1747656508.38,0.072,-0.115,-0.168,-0.584,0.141,0.146,26.219,11.632,-12.706
1747656508.39,0.049,-0.148,-0.145,-0.682,0.156,0.147,25.881,11.643,-12.533
1747656508.40,0.037,-0.138,-0.158,-0.780,0.127,0.153,25.490,11.644,-12.346
1747656508.41,0.050,-0.133,-0.194,-0.893,0.134,0.166,25.040,11.631,-12.142
1747656508.42,0.081,-0.133,-0.185,-1.029,0.127,0.193,24.523,11.610,-11.911
1747656508.43,0.096,-0.138,-0.193,-1.143,0.076,0.244,23.939,11.556,-11.639
1747656508.44,0.112,-0.143,-0.202,-1.234,0.057,0.285,23.304,11.468,-11.329
1747656508.45,0.147,-0.124,-0.183,-1.328,0.034,0.304,22.621,11.364,-10.992
1747656508.46,0.164,-0.081,-0.170,-1.387,-0.024,0.305,21.892,11.234,-10.642
1747656508.47,0.127,-0.034,-0.137,-1.406,-0.011,0.291,21.143,11.093,-10.297
1747656508.48,0.082,-0.032,-0.096,-1.463,0.035,0.277,20.371,10.980,-9.959
1747656508.49,0.046,-0.070,-0.122,-1.527,0.095,0.281,19.562,10.902,-9.621
1747656508.50,0.011,-0.101,-0.119,-1.574,0.179,0.297,18.725,10.866,-9.272
1747656508.51,-0.018,-0.092,-0.092,-1.641,0.214,0.291,17.854,10.869,-8.915
1747656508.52,-0.030,-0.057,-0.140,-1.668,0.200,0.270,16.956,10.883,-8.562
1747656508.53,-0.032,-0.006,-0.163,-1.662,0.188,0.227,16.050,10.899,-8.229
1747656508.54,-0.038,0.042,-0.142,-1.706,0.180,0.182,15.130,10.922,-7.922
1747656508.55,-0.042,0.046,-0.123,-1.749,0.154,0.143,14.178,10.946,-7.635
1747656508.56,-0.047,0.015,-0.095,-1.759,0.165,0.114,13.206,10.972,-7.364
1747656508.57,-0.036,-0.033,-0.059,-1.755,0.181,0.084,12.233,11.014,-7.110
1747656508.58,-0.018,-0.077,-0.037,-1.767,0.197,0.023,11.251,11.076,-6.882
1747656508.59,0.003,-0.100,-0.030,-1.757,0.181,-0.048,10.261,11.150,-6.691
1747656508.60,-0.015,-0.089,-0.043,-1.770,0.155,-0.068,9.267,11.217,-6.529
1747656508.61,-0.033,-0.052,-0.081,-1.803,0.131,-0.056,8.260,11.274,-6.362
1747656508.62,-0.064,-0.000,-0.103,-1.814,0.114,-0.057,7.241,11.319,-6.190
1747656508.63,-0.083,0.045,-0.066,-1.841,0.166,-0.059,6.213,11.378,-6.016
1747656508.64,-0.043,0.054,-0.056,-1.910,0.141,-0.058,5.155,11.451,-5.836
1747656508.65,-0.000,0.024,-0.066,-1.911,0.087,-0.056,4.077,11.499,-5.650
1747656508.66,0.018,-0.032,0.014,-1.871,0.069,-0.066,3.012,11.534,-5.466
1747656508.67,0.017,-0.093,0.063,-1.866,-0.035,-0.117,1.958,11.538,-5.304
1747656508.68,-0.043,-0.131,0.039,-1.846,-0.052,-0.158,0.900,11.505,-5.168
1747656508.69,-0.094,-0.147,0.029,-1.798,0.016,-0.206,-0.139,11.492,-5.063
1747656508.70,-0.129,-0.135,-0.018,-1.801,0.099,-0.249,-1.173,11.524,-4.985
1747656508.71,-0.158,-0.113,0.000,-1.789,0.203,-0.266,-2.206,11.615,-4.925
1747656508.72,-0.145,-0.081,0.017,-1.824,0.214,-0.265,-3.246,11.739,-4.866
1747656508.73,-0.108,-0.037,-0.023,-1.799,0.200,-0.280,-4.294,11.860,-4.805
1747656508.74,-0.075,0.009,0.024,-1.746,0.215,-0.311,-5.317,11.981,-4.761
1747656508.75,-0.053,0.036,0.078,-1.722,0.254,-0.369,-6.328,12.117,-4.741
1747656508.76,-0.055,0.040,0.054,-1.679,0.281,-0.449,-7.325,12.268,-4.764
1747656508.77,-0.093,0.021,0.033,-1.652,0.336,-0.508,-8.311,12.433,-4.830
1747656508.78,-0.119,-0.020,0.057,-1.669,0.419,-0.491,-9.298,12.638,-4.907
1747656508.79,-0.074,-0.073,0.007,-1.719,0.427,-0.389,-10.297,12.874,-4.941
1747656508.80,0.021,-0.119,-0.047,-1.761,0.461,-0.268,-11.309,13.133,-4.899
1747656508.81,0.132,-0.141,-0.005,-1.754,0.512,-0.196,-12.318,13.433,-4.792
1747656508.82,0.167,-0.130,0.075,-1.734,0.508,-0.179,-13.311,13.758,-4.659
1747656508.83,0.135,-0.113,0.047,-1.717,0.411,-0.193,-14.292,14.052,-4.520
1747656508.84,0.064,-0.101,-0.017,-1.701,0.370,-0.228,-15.269,14.305,-4.393
1747656508.85,0.002,-0.093,0.035,-1.699,0.377,-0.261,-16.243,14.549,-4.284
1747656508.86,-0.041,-0.087,0.077,-1.709,0.366,-0.245,-17.222,14.793,-4.173
1747656508.87,-0.049,-0.074,0.056,-1.729,0.368,-0.202,-18.202,15.045,-4.039
1747656508.88,-0.023,-0.036,0.045,-1.755,0.375,-0.147,-19.190,15.313,-3.865
1747656508.89,0.001,0.011,0.040,-1.736,0.371,-0.121,-20.173,15.595,-3.461
1747656508.90,0.019,0.068,0.064,-1.654,0.350,-0.102,-21.123,15.879,-3.246
1747656508.91,0.043,0.109,0.022,-1.646,0.291,-0.132,-22.042,16.140,-2.842
1747656508.92,0.050,0.134,-0.048,-1.678,0.224,-0.203,-22.982,16.360,-2.652
1747656508.93,0.027,0.111,0.005,-1.640,0.186,-0.271,-23.930,16.534,-2.326
1747656508.94,0.004,0.053,0.061,-1.639,0.190,-0.301,-24.871,16.688,-2.207
1747656508.95,0.011,-0.015,0.031,-1.678,0.162,-0.290,-25.827,16.843,-1.919
1747656508.96,0.020,-0.076,0.015,-1.700,0.125,-0.242,-26.795,16.991,-1.769
1747656508.97,0.054,-0.109,0.057,-1.685,0.095,-0.155,-27.753,17.147,-1.435
1747656508.98,0.090,-0.107,0.085,-1.645,-0.027,-0.080,-28.682,17.287,-1.186
1747656508.99,0.066,-0.066,0.074,-1.599,-0.143,-0.065,-29.576,17.369,-0.793
1747656509.00,0.011,-0.006,0.079,-1.544,-0.173,-0.126,-30.450,17.402,-0.539
1747656509.01,-0.060,0.054,0.073,-1.491,-0.114,-0.236,-31.305,17.414,-0.250
1747656509.02,-0.098,0.083,0.008,-1.540,-0.012,-0.297,-32.175,17.447,-0.119
1747656509.03,-0.079,0.065,-0.016,-1.574,0.032,-0.267,-33.075,17.529,0.124
1747656509.04,-0.052,0.009,0.019,-1.541,0.064,-0.198,-33.965,17.646,0.294
1747656509.05,-0.006,-0.044,0.082,-1.489,0.200,-0.132,-34.819,17.842,0.602
1747656509.06,0.054,-0.071,0.111,-1.450,0.215,-0.131,-35.637,18.099,0.833
1747656509.07,0.039,-0.072,0.037,-1.485,0.176,-0.167,-36.458,18.340,1.132
1747656509.08,0.010,-0.067,-0.002,-1.533,0.167,-0.207,-37.309,18.568,1.347
1747656509.09,-0.007,-0.059,-0.009,-1.553,0.088,-0.240,-38.186,18.767,1.608
1747656509.10,-0.016,-0.044,-0.023,-1.583,0.004,-0.255,-39.078,18.917,1.805
1747656509.11,0.009,-0.023,0.036,-1.640,-0.159,-0.224,-39.993,19.017,2.072
1747656509.12,0.067,-0.001,0.070,-1.659,-0.351,-0.161,-40.923,19.043,2.340
1747656509.13,0.156,0.020,0.051,-1.600,-0.492,-0.112,-41.829,19.007,2.688
1747656509.14,0.210,0.047,0.051,-1.508,-0.618,-0.163,-42.693,18.888,2.982
1747656509.15,0.172,0.069,0.051,-1.398,-0.681,-0.292,-43.521,18.650,3.218
1747656509.16,0.078,0.059,0.039,-1.327,-0.680,-0.408,-44.320,18.309,3.292
1747656509.17,-0.036,0.007,0.003,-1.337,-0.575,-0.440,-45.115,17.950,3.320
1747656509.18,-0.138,-0.058,-0.013,-1.405,-0.393,-0.418,-45.935,17.678,3.327
1747656509.19,-0.198,-0.104,-0.002,-1.493,-0.221,-0.386,-46.792,17.535,3.393
1747656509.20,-0.193,-0.116,0.016,-1.594,-0.094,-0.337,-47.696,17.522,3.494
1747656509.21,-0.121,-0.094,0.090,-1.621,-0.040,-0.273,-48.628,17.610,3.682
1747656509.22,-0.012,-0.044,0.144,-1.576,-0.045,-0.192,-49.539,17.760,3.895
1747656509.23,0.094,0.012,0.131,-1.508,-0.083,-0.102,-50.404,17.953,4.191
1747656509.24,0.171,0.053,0.076,-1.442,-0.215,-0.021,-51.213,18.152,4.542
1747656509.25,0.206,0.073,-0.016,-1.429,-0.358,0.009,-51.991,18.309,4.953
1747656509.26,0.205,0.046,-0.068,-1.417,-0.440,-0.030,-52.765,18.406,5.383
1747656509.27,0.176,-0.020,-0.061,-1.357,-0.495,-0.129,-53.532,18.417,5.731
1747656509.28,0.118,-0.080,-0.057,-1.303,-0.492,-0.256,-54.287,18.316,5.958
1747656509.29,0.063,-0.121,-0.039,-1.355,-0.476,-0.366,-55.060,18.133,6.072
1747656509.30,0.008,-0.135,-0.012,-1.438,-0.443,-0.403,-55.889,17.920,6.134
1747656509.31,-0.033,-0.130,0.031,-1.465,-0.435,-0.368,-56.749,17.737,6.212
1747656509.32,-0.056,-0.103,0.061,-1.403,-0.469,-0.290,-57.589,17.587,6.341
1747656509.33,-0.075,-0.054,0.035,-1.271,-0.508,-0.207,-58.359,17.461,6.521
1747656509.34,-0.103,0.000,-0.013,-1.174,-0.519,-0.169,-59.053,17.341,6.726
1747656509.35,-0.122,0.036,-0.062,-1.254,-0.417,-0.175,-59.743,17.265,6.951
1747656509.36,-0.113,0.030,-0.024,-1.310,-0.301,-0.243,-60.478,17.241,7.160
1747656509.37,-0.103,-0.008,-0.060,-1.354,-0.188,-0.294,-61.252,17.239,7.319
1747656509.38,-0.082,-0.057,-0.051,-1.296,-0.130,-0.311,-62.029,17.265,7.448
1747656509.39,-0.074,-0.082,-0.046,-1.257,-0.134,-0.327,-62.775,17.268,7.535
1747656509.40,-0.060,-0.083,-0.027,-1.281,-0.054,-0.296,-63.519,17.298,7.635
1747656509.41,-0.034,-0.066,0.010,-1.307,0.132,-0.297,-64.275,17.445,7.774
1747656509.42,-0.007,-0.022,0.049,-1.302,0.211,-0.358,-65.042,17.650,7.884
1747656509.43,-0.014,0.035,0.028,-1.296,0.126,-0.396,-65.815,17.789,7.930
1747656509.44,-0.041,0.081,0.002,-1.291,0.074,-0.406,-66.589,17.862,7.949
1747656509.45,-0.061,0.101,-0.000,-1.271,0.082,-0.408,-67.357,17.911,7.956
1747656509.46,-0.082,0.079,-0.001,-1.241,0.155,-0.408,-68.111,17.979,7.955
1747656509.47,-0.093,0.008,-0.000,-1.220,0.152,-0.401,-68.850,18.059,7.945
1747656509.48,-0.090,-0.087,-0.051,-1.266,0.104,-0.376,-69.590,18.151,7.966
1747656509.49,-0.024,-0.174,-0.095,-1.364,0.137,-0.324,-70.365,18.336,8.093
1747656509.50,0.097,-0.228,-0.051,-1.433,0.176,-0.260,-71.178,18.707,8.387
1747656509.51,0.200,-0.216,-0.006,-1.425,0.171,-0.207,-71.994,19.231,8.835
1747656509.52,0.244,-0.141,0.023,-1.384,0.156,-0.203,-72.790,19.830,9.365
1747656509.53,0.232,-0.034,0.056,-1.343,0.057,-0.258,-73.564,20.372,9.863
1747656509.54,0.187,0.064,0.057,-1.294,-0.093,-0.283,-74.326,20.771,10.290
1747656509.55,0.128,0.120,0.017,-1.219,-0.243,-0.277,-75.055,21.066,10.692
1747656509.56,0.058,0.117,-0.049,-1.168,-0.443,-0.277,-75.747,21.246,11.081
1747656509.57,-0.028,0.060,-0.129,-1.171,-0.565,-0.298,-76.427,21.312,11.449
1747656509.58,-0.091,-0.034,-0.142,-1.245,-0.606,-0.312,-77.131,21.352,11.836
1747656509.59,-0.121,-0.112,-0.098,-1.297,-0.535,-0.333,-77.877,21.452,12.272
1747656509.60,-0.137,-0.132,-0.043,-1.295,-0.465,-0.381,-78.638,21.567,12.679
1747656509.61,-0.201,-0.061,-0.047,-1.357,-0.373,-0.486,-79.433,21.585,12.945
1747656509.62,-0.309,0.067,-0.028,-1.379,-0.194,-0.592,-80.275,21.402,12.925
1747656509.63,-0.407,0.165,-0.008,-1.373,0.067,-0.598,-81.133,21.149,12.710
1747656509.64,-0.501,0.161,0.013,-1.365,0.399,-0.528,-81.979,21.148,12.576
1747656509.65,-0.531,0.063,-0.002,-1.388,0.748,-0.437,-82.810,21.696,12.797
1747656509.66,-0.461,-0.044,-0.046,-1.464,1.048,-0.377,-83.649,23.011,13.605
1747656509.67,-0.327,-0.100,-0.058,-1.521,1.344,-0.360,-84.516,25.224,15.142
1747656509.68,-0.172,-0.132,-0.041,-1.461,1.541,-0.359,-85.372,28.350,17.448
1747656509.69,-0.024,-0.156,-0.053,-1.349,1.598,-0.367,-86.170,32.304,20.510
1747656509.70,0.105,-0.156,-0.098,-1.253,1.588,-0.375,-86.900,37.341,24.644
1747656509.71,0.212,-0.140,-0.112,-1.193,1.538,-0.402,-87.574,44.197,30.612
1747656509.72,0.294,-0.102,-0.099,-1.125,1.456,-0.437,-88.190,54.441,40.006
1747656509.73,0.343,-0.036,-0.092,-1.082,1.341,-0.451,-88.707,71.711,56.480
1747656509.74,0.366,0.041,-0.054,-1.031,1.102,-0.428,-89.000,102.244,86.317
1747656509.75,0.336,0.092,-0.045,-0.929,0.784,-0.382,-88.921,136.554,120.094
1747656509.76,0.286,0.100,-0.066,-0.794,0.579,-0.329,-88.616,157.410,140.573
1747656509.77,0.285,0.072,-0.037,-0.751,0.552,-0.307,-88.248,168.689,151.538
1747656509.78,0.280,0.018,0.038,-0.774,0.508,-0.311,-87.840,175.792,158.337
1747656509.79,0.230,-0.028,0.017,-0.834,0.353,-0.325,-87.387,-179.279,163.023
1747656509.80,0.154,-0.040,-0.028,-0.885,0.204,-0.347,-86.887,-175.724,166.424
1747656509.81,0.080,-0.021,-0.054,-0.857,0.112,-0.374,-86.368,-173.014,169.054
1747656509.82,0.017,-0.001,-0.072,-0.751,0.072,-0.397,-85.880,-170.696,171.322
1747656509.83,-0.047,-0.022,-0.051,-0.615,0.019,-0.395,-85.456,-168.648,173.352
1747656509.84,-0.096,-0.047,-0.023,-0.558,0.034,-0.351,-85.088,-166.948,175.043
1747656509.85,-0.114,-0.049,0.019,-0.605,0.126,-0.290,-84.725,-165.777,176.175
1747656509.86,-0.121,-0.034,0.051,-0.693,0.241,-0.245,-84.328,-165.105,176.745
1747656509.87,-0.137,-0.012,0.068,-0.692,0.310,-0.204,-83.908,-164.747,176.945
1747656509.88,-0.160,0.005,0.059,-0.607,0.337,-0.143,-83.522,-164.581,176.923
1747656509.89,-0.185,0.015,0.051,-0.483,0.306,-0.087,-83.204,-164.578,176.739
1747656509.90,-0.191,0.008,0.059,-0.356,0.303,-0.071,-82.963,-164.582,176.561
1747656509.91,-0.149,-0.011,0.077,-0.306,0.341,-0.076,-82.773,-164.476,176.484
1747656509.92,-0.053,-0.026,0.092,-0.328,0.381,-0.074,-82.587,-164.330,176.424
1747656509.93,0.040,-0.022,0.073,-0.330,0.358,-0.076,-82.394,-164.193,176.347
1747656509.94,0.096,0.002,0.028,-0.290,0.273,-0.060,-82.210,-164.075,176.281
1747656509.95,0.116,-0.021,-0.003,-0.254,0.231,-0.049,-82.055,-164.037,176.178
1747656509.96,0.129,-0.027,0.016,-0.208,0.237,-0.078,-81.917,-163.919,176.163
1747656509.97,0.128,0.019,0.042,-0.170,0.194,-0.111,-81.798,-163.633,176.323
1747656509.98,0.104,0.094,0.045,-0.132,0.070,-0.090,-81.698,-163.330,176.552
1747656509.99,0.054,0.049,0.039,-0.082,-0.061,-0.024,-81.630,-163.237,176.644
1747656510.00,0.004,-0.005,0.025,-0.040,-0.167,0.027,-81.599,-163.388,176.556
1747656510.01,-0.049,-0.007,0.011,-0.029,-0.302,0.035,-81.587,-163.684,176.392
1747656510.02,-0.087,0.018,-0.016,-0.014,-0.430,0.014,-81.577,-164.017,176.273
1747656510.03,-0.107,0.027,-0.021,0.015,-0.430,0.015,-81.579,-164.313,176.225
1747656510.04,-0.111,0.013,0.007,0.058,-0.319,0.027,-81.602,-164.561,176.192
1747656510.05,-0.099,-0.011,0.040,0.087,-0.164,0.039,-81.648,-164.747,176.143
1747656510.06,-0.077,-0.023,0.056,0.089,-0.040,0.054,-81.704,-164.889,176.057
1747656510.07,-0.055,-0.035,0.044,0.081,0.043,0.073,-81.760,-165.031,175.912
1747656510.08,-0.023,-0.049,0.035,0.072,0.114,0.097,-81.814,-165.234,175.661
1747656510.09,0.014,-0.032,0.042,0.093,0.143,0.099,-81.873,-165.464,175.353
1747656510.10,0.031,0.007,0.047,0.136,0.170,0.085,-81.950,-165.608,175.118
1747656510.11,0.029,0.038,0.058,0.162,0.216,0.069,-82.044,-165.628,174.985
1747656510.12,0.018,0.038,0.077,0.158,0.204,0.062,-82.140,-165.573,174.917
1747656510.13,0.000,0.008,0.065,0.122,0.185,0.065,-82.224,-165.541,174.838
1747656510.14,-0.007,-0.025,0.050,0.070,0.160,0.058,-82.280,-165.563,174.716
1747656510.15,-0.001,-0.038,0.040,0.034,0.128,0.056,-82.310,-165.634,174.561
1747656510.16,0.014,-0.030,0.037,0.040,0.109,0.065,-82.334,-165.763,174.362
1747656510.17,0.030,-0.016,0.035,0.077,0.044,0.072,-82.372,-165.958,174.119
1747656510.18,0.028,-0.007,0.032,0.095,-0.091,0.051,-82.429,-166.162,173.926
1747656510.19,0.010,-0.010,0.031,0.061,-0.222,0.016,-82.474,-166.337,173.842
1747656510.20,0.003,-0.017,0.032,0.020,-0.283,-0.020,-82.487,-166.466,173.859
1747656510.21,0.003,-0.011,0.026,0.016,-0.295,-0.043,-82.479,-166.498,173.995
1747656510.22,0.000,0.010,0.014,0.053,-0.260,-0.048,-82.473,-166.438,174.217
1747656510.23,-0.007,0.023,0.019,0.094,-0.182,-0.044,-82.494,-166.301,174.482
1747656510.24,-0.017,0.023,0.032,0.112,-0.159,-0.036,-82.534,-166.180,174.701
1747656510.25,-0.031,0.010,0.019,0.060,-0.160,-0.031,-82.566,-166.155,174.821
1747656510.26,-0.046,-0.008,0.017,-0.009,-0.160,-0.023,-82.565,-166.216,174.855
1747656510.27,-0.055,-0.024,0.019,-0.040,-0.144,-0.018,-82.536,-166.298,174.862
1747656510.28,-0.057,-0.028,0.020,-0.026,-0.095,-0.015,-82.506,-166.352,174.878
1747656510.29,-0.056,-0.021,0.031,-0.004,-0.027,-0.010,-82.489,-166.373,174.893
1747656510.30,-0.049,-0.007,0.041,0.017,0.028,0.000,-82.489,-166.355,174.910
1747656510.31,-0.042,0.005,0.029,0.043,0.098,0.018,-82.505,-166.328,174.901
1747656510.32,-0.034,0.013,0.024,0.101,0.138,0.023,-82.539,-166.259,174.902
1747656510.33,-0.028,0.008,0.017,0.163,0.148,0.029,-82.611,-166.103,174.975
1747656510.34,-0.027,0.005,0.004,0.168,0.131,0.034,-82.698,-165.861,175.136
1747656510.35,-0.026,-0.001,0.002,0.128,0.094,0.042,-82.769,-165.621,175.308
1747656510.36,-0.021,-0.012,-0.004,0.085,0.042,0.048,-82.814,-165.490,175.399
1747656510.37,-0.015,-0.017,-0.016,0.080,-0.003,0.041,-82.841,-165.426,175.450
1747656510.38,-0.001,-0.006,-0.014,0.112,-0.041,0.032,-82.873,-165.366,175.520
1747656510.39,0.014,0.009,-0.003,0.143,-0.048,0.041,-82.931,-165.294,175.617
1747656510.40,0.024,0.014,0.013,0.158,-0.045,0.054,-83.010,-165.291,175.645
1747656510.41,0.017,0.010,0.029,0.150,-0.080,0.065,-83.097,-165.367,175.604
1747656510.42,-0.012,-0.000,0.046,0.126,-0.120,0.070,-83.179,-165.524,175.503
1747656510.43,-0.047,-0.019,0.059,0.127,-0.118,0.056,-83.253,-165.681,175.417
1747656510.44,-0.072,-0.032,0.057,0.117,-0.093,0.028,-83.325,-165.754,175.404
1747656510.45,-0.086,-0.031,0.049,0.087,-0.072,0.003,-83.384,-165.708,175.497
1747656510.46,-0.083,-0.032,0.043,0.078,-0.021,-0.003,-83.430,-165.620,175.612
1747656510.47,-0.056,-0.027,0.042,0.081,0.053,0.010,-83.473,-165.537,175.687
1747656510.48,-0.022,-0.013,0.043,0.095,0.116,0.024,-83.521,-165.498,175.678
1747656510.49,0.003,-0.004,0.046,0.119,0.149,0.032,-83.578,-165.458,175.641
1747656510.50,0.017,0.001,0.049,0.150,0.152,0.029,-83.650,-165.346,175.667
1747656510.51,0.022,0.005,0.037,0.154,0.150,0.028,-83.730,-165.170,175.758
1747656510.52,0.025,0.004,0.045,0.162,0.144,0.023,-83.811,-164.950,175.892
1747656510.53,0.020,-0.004,0.037,0.173,0.077,0.021,-83.898,-164.686,176.091
1747656510.54,0.013,-0.012,0.012,0.162,-0.027,0.027,-83.987,-164.483,176.281
1747656510.55,0.012,-0.015,0.005,0.143,-0.093,0.042,-84.069,-164.433,176.366
1747656510.56,0.023,-0.016,0.015,0.145,-0.152,0.060,-84.148,-164.566,176.302
1747656510.57,0.029,-0.009,0.007,0.176,-0.214,0.080,-84.241,-164.844,176.130
1747656510.58,0.024,0.005,0.001,0.229,-0.248,0.086,-84.359,-165.165,175.941
1747656510.59,0.012,0.013,0.005,0.280,-0.244,0.078,-84.508,-165.429,175.819
1747656510.60,-0.013,0.013,0.009,0.328,-0.213,0.058,-84.680,-165.541,175.838
1747656510.61,-0.042,0.014,0.005,0.358,-0.148,0.037,-84.871,-165.456,176.030
1747656510.62,-0.064,0.012,-0.007,0.370,-0.076,0.024,-85.072,-165.129,176.421
1747656510.63,-0.071,0.004,-0.011,0.345,-0.052,0.025,-85.269,-164.707,176.880
1747656510.64,-0.063,-0.005,-0.009,0.287,-0.036,0.050,-85.449,-164.380,177.233
1747656510.65,-0.036,-0.011,0.021,0.268,-0.007,0.081,-85.610,-164.319,177.306
1747656510.66,-0.014,-0.015,0.042,0.301,-0.021,0.110,-85.781,-164.436,177.194
1747656510.67,-0.005,-0.020,0.045,0.356,-0.059,0.130,-85.980,-164.690,176.962
1747656510.68,0.011,-0.024,0.032,0.399,-0.062,0.155,-86.211,-165.061,176.626
1747656510.69,0.028,-0.023,0.015,0.423,-0.036,0.168,-86.462,-165.562,176.153
1747656510.70,0.034,-0.011,0.000,0.457,-0.019,0.163,-86.728,-166.098,175.631
1747656510.71,0.028,0.002,-0.014,0.489,-0.028,0.132,-87.011,-166.426,175.314
1747656510.72,0.020,0.011,-0.015,0.497,-0.061,0.110,-87.301,-166.457,175.309
1747656510.73,0.025,0.007,-0.005,0.506,-0.082,0.119,-87.595,-166.403,175.405
1747656510.74,0.045,-0.010,0.004,0.561,-0.112,0.146,-87.906,-166.539,175.323
1747656510.75,0.053,-0.020,-0.003,0.661,-0.149,0.154,-88.265,-166.734,175.203
1747656510.76,0.044,-0.008,-0.015,0.737,-0.188,0.142,-88.674,-166.458,175.573
1747656510.77,0.032,0.028,-0.016,0.767,-0.253,0.132,-89.112,-164.931,177.227
1747656510.78,0.008,0.046,-0.004,0.758,-0.290,0.126,-89.550,-159.823,-177.509
1747656510.79,-0.016,0.035,0.023,0.745,-0.280,0.135,-89.916,-84.665,-102.188
1747656510.80,-0.034,0.005,0.060,0.726,-0.245,0.148,-89.574,0.080,-17.290
1747656510.81,-0.047,-0.033,0.089,0.726,-0.164,0.149,-89.154,5.834,-11.418
1747656510.82,-0.044,-0.056,0.094,0.712,-0.110,0.139,-88.737,7.565,-9.611
1747656510.83,-0.030,-0.049,0.077,0.697,-0.062,0.135,-88.327,8.334,-8.792
1747656510.84,-0.007,-0.023,0.062,0.630,-0.033,0.145,-87.938,8.951,-8.150
1747656510.85,0.007,0.010,0.077,0.558,-0.079,0.143,-87.592,9.629,-7.442
1747656510.86,-0.006,0.034,0.090,0.596,-0.198,0.134,-87.257,10.059,-6.933
1747656510.87,-0.016,0.043,0.063,0.693,-0.276,0.122,-86.881,10.084,-6.770
1747656510.88,-0.021,0.047,0.045,0.742,-0.290,0.099,-86.464,9.779,-6.912
1747656510.89,-0.043,0.047,0.063,0.746,-0.258,0.064,-86.037,9.239,-7.294
1747656510.90,-0.070,0.037,0.076,0.738,-0.167,0.038,-85.612,8.618,-7.793
1747656510.91,-0.100,0.018,0.069,0.720,-0.075,0.003,-85.197,7.952,-8.394
1747656510.92,-0.137,0.002,0.032,0.690,-0.051,-0.025,-84.799,7.224,-9.093
1747656510.93,-0.157,-0.006,-0.005,0.639,-0.071,-0.030,-84.422,6.526,-9.758
1747656510.94,-0.144,-0.005,-0.023,0.580,-0.071,-0.020,-84.080,5.956,-10.343
1747656510.95,-0.092,-0.002,-0.023,0.572,-0.032,-0.002,-83.754,5.549,-10.722
1747656510.96,-0.028,0.001,-0.001,0.587,0.017,0.004,-83.426,5.276,-11.044
1747656510.97,0.002,0.014,0.034,0.661,0.085,-0.008,-83.073,5.032,-11.318
1747656510.98,-0.013,0.025,0.027,0.769,0.127,-0.035,-82.667,4.723,-11.750
1747656510.99,-0.074,0.024,-0.001,0.819,0.128,-0.069,-82.213,4.297,-12.255
1747656511.00,-0.138,0.007,-0.039,0.751,0.162,-0.092,-81.765,3.818,-12.877
1747656511.01,-0.163,-0.025,-0.057,0.639,0.263,-0.090,-81.374,3.414,-13.407
1747656511.02,-0.138,-0.056,-0.069,0.602,0.480,-0.073,-81.026,3.186,-13.907
1747656511.03,-0.076,-0.060,-0.061,0.556,0.859,-0.038,-80.695,3.253,-14.225
1747656511.04,-0.001,-0.036,0.040,0.480,1.112,0.001,-80.400,3.657,-14.460
1747656511.05,0.043,-0.005,0.093,0.442,1.064,0.027,-80.139,4.234,-14.515
1747656511.06,0.046,0.013,0.048,0.452,0.869,0.067,-79.884,4.826,-14.528
1747656511.07,0.072,0.007,-0.012,0.476,0.651,0.126,-79.615,5.430,-14.353
1747656511.08,0.121,-0.010,-0.032,0.490,0.558,0.160,-79.333,6.070,-14.119
1747656511.09,0.151,-0.018,-0.004,0.539,0.512,0.129,-79.033,6.647,-13.842
1747656511.10,0.131,-0.012,0.004,0.616,0.463,0.045,-78.700,6.982,-13.859
1747656511.11,0.080,-0.005,-0.021,0.701,0.397,-0.037,-78.324,7.000,-14.089
1747656511.12,0.038,0.003,-0.051,0.716,0.403,-0.079,-77.923,6.825,-14.566
1747656511.13,0.012,0.008,-0.035,0.675,0.498,-0.092,-77.533,6.640,-15.017
1747656511.14,-0.022,0.002,0.010,0.580,0.548,-0.097,-77.181,6.520,-15.522
1747656511.15,-0.067,-0.011,0.014,0.493,0.494,-0.095,-76.883,6.433,-15.919
1747656511.16,-0.102,-0.013,-0.005,0.439,0.425,-0.103,-76.626,6.333,-16.367
1747656511.17,-0.099,-0.001,-0.006,0.414,0.350,-0.102,-76.391,6.202,-16.729
1747656511.18,-0.066,0.019,-0.008,0.417,0.279,-0.075,-76.162,6.069,-17.127
1747656511.19,-0.006,0.014,-0.018,0.491,0.254,-0.045,-75.910,5.977,-17.378
1747656511.20,0.064,-0.012,-0.027,0.637,0.265,-0.038,-75.592,5.907,-17.672
1747656511.21,0.111,-0.028,-0.040,0.736,0.251,-0.085,-75.203,5.776,-17.961
1747656511.22,0.106,-0.035,-0.070,0.765,0.210,-0.180,-74.781,5.465,-18.506
1747656511.23,0.059,-0.036,-0.109,0.751,0.369,-0.292,-74.361,4.992,-19.160
1747656511.24,0.013,-0.036,-0.032,0.732,0.587,-0.396,-73.955,4.450,-20.093
1747656511.25,-0.074,-0.012,0.047,0.701,0.625,-0.465,-73.564,3.857,-21.080
1747656511.26,-0.211,0.045,0.014,0.645,0.505,-0.491,-73.196,3.182,-22.166
1747656511.27,-0.327,0.100,-0.034,0.543,0.509,-0.449,-72.870,2.519,-23.154
1747656511.28,-0.337,0.100,0.010,0.478,0.712,-0.328,-72.591,2.103,-23.950
1747656511.28,-0.225,0.046,0.065,0.527,0.917,-0.151,-72.313,2.105,-24.440
1747656511.29,-0.051,-0.020,0.043,0.618,1.005,-0.004,-71.986,2.490,-24.616
1747656511.31,0.099,-0.069,0.008,0.634,0.973,0.034,-71.626,3.046,-24.630
1747656511.31,0.196,-0.088,-0.023,0.657,0.866,-0.029,-71.260,3.522,-24.683
1747656511.32,0.229,-0.086,-0.055,0.699,0.697,-0.153,-70.873,3.749,-24.917
1747656511.34,0.147,-0.060,-0.043,0.611,0.494,-0.284,-70.505,3.664,-25.369
1747656511.35,-0.028,-0.023,-0.026,0.513,0.332,-0.385,-70.198,3.298,-26.002
1747656511.35,-0.173,0.001,-0.047,0.488,0.358,-0.402,-69.928,2.819,-26.715
1747656511.37,-0.208,0.004,-0.039,0.551,0.442,-0.318,-69.643,2.447,-27.356
1747656511.38,-0.151,-0.000,-0.061,0.573,0.511,-0.165,-69.324,2.308,-27.795
1747656511.38,-0.005,-0.020,-0.074,0.516,0.548,0.015,-69.015,2.464,-27.954
1747656511.40,0.194,-0.065,-0.060,0.500,0.510,0.160,-68.726,2.872,-27.844
1747656511.40,0.359,-0.102,-0.061,0.614,0.335,0.176,-68.409,3.331,-27.615
1747656511.41,0.419,-0.097,-0.077,0.795,0.114,0.075,-68.001,3.583,-27.482
1747656511.42,0.366,-0.068,-0.066,0.868,0.005,-0.017,-67.521,3.578,-27.518
1747656511.43,0.239,-0.050,-0.027,0.773,-0.136,-0.081,-67.051,3.407,-27.668
1747656511.44,0.085,-0.035,-0.048,0.666,-0.266,-0.092,-66.644,3.112,-27.861
1747656511.45,-0.024,-0.018,-0.097,0.561,-0.268,-0.057,-66.295,2.813,-28.017
1747656511.46,-0.051,-0.009,-0.080,0.429,-0.231,0.047,-66.013,2.625,-28.065
1747656511.47,0.018,-0.016,-0.063,0.358,-0.183,0.204,-65.789,2.642,-27.916
1747656511.48,0.149,-0.032,-0.034,0.429,-0.202,0.341,-65.564,2.861,-27.560
1747656511.49,0.239,-0.040,-0.006,0.652,-0.341,0.321,-65.248,3.099,-27.132
1747656511.50,0.243,-0.013,-0.036,0.804,-0.516,0.250,-64.817,3.153,-26.801
1747656511.51,0.162,0.007,-0.017,0.786,-0.551,0.216,-64.354,3.065,-26.554
1747656511.52,0.053,-0.001,0.050,0.756,-0.521,0.206,-63.910,2.962,-26.330
1747656511.53,-0.062,-0.008,0.002,0.736,-0.502,0.163,-63.476,2.835,-26.143
1747656511.54,-0.130,-0.004,-0.034,0.614,-0.344,0.129,-63.084,2.714,-26.003
1747656511.55,-0.096,-0.007,0.033,0.546,-0.162,0.130,-62.755,2.686,-25.877
1747656511.56,-0.020,-0.020,0.054,0.621,-0.152,0.164,-62.421,2.732,-25.731
1747656511.57,0.032,-0.021,0.062,0.657,-0.299,0.243,-62.047,2.789,-25.525
1747656511.58,0.072,-0.009,0.070,0.675,-0.417,0.355,-61.660,2.864,-25.204
1747656511.59,0.097,0.003,0.048,0.727,-0.456,0.414,-61.249,2.991,-24.774
1747656511.60,0.080,0.022,0.049,0.760,-0.491,0.386,-60.812,3.093,-24.346
1747656511.61,0.009,0.042,0.047,0.776,-0.428,0.363,-60.361,3.163,-23.960
1747656511.62,-0.069,0.055,0.033,0.749,-0.285,0.304,-59.914,3.252,-23.622
1747656511.63,-0.171,0.073,-0.001,0.725,-0.108,0.166,-59.488,3.332,-23.399
1747656511.64,-0.274,0.078,-0.033,0.704,0.060,0.023,-59.074,3.367,-23.343
1747656511.65,-0.333,0.054,0.017,0.633,0.155,-0.055,-58.695,3.376,-23.408
1747656511.66,-0.340,0.008,0.045,0.645,0.152,-0.063,-58.336,3.373,-23.516
1747656511.67,-0.298,-0.039,0.017,0.668,0.165,-0.041,-57.962,3.380,-23.609
1747656511.68,-0.209,-0.061,0.025,0.705,0.239,-0.069,-57.575,3.404,-23.717
1747656511.69,-0.140,-0.051,0.014,0.810,0.337,-0.111,-57.147,3.461,-23.845
1747656511.70,-0.075,-0.018,0.002,0.897,0.333,-0.252,-56.664,3.447,-24.093
1747656511.71,-0.050,0.030,-0.023,0.912,0.321,-0.240,-56.156,3.379,-24.393
1747656511.72,-0.005,0.061,0.003,0.970,0.298,-0.304,-55.629,3.281,-24.731
1747656511.73,0.021,0.087,0.027,0.960,0.199,-0.216,-55.082,3.150,-25.066
1747656511.74,0.005,0.071,-0.011,0.862,0.133,-0.155,-54.567,3.070,-25.281
1747656511.75,0.004,0.043,0.010,0.835,0.058,-0.217,-54.092,2.939,-25.507
1747656511.76,-0.074,0.006,0.018,0.866,-0.034,-0.141,-53.613,2.757,-25.740
1747656511.77,-0.070,-0.028,0.006,0.892,0.015,-0.120,-53.113,2.629,-25.893
1747656511.78,0.056,-0.014,0.080,0.913,0.014,-0.008,-52.601,2.547,-26.013
1747656511.79,0.091,-0.009,0.121,0.934,-0.067,0.019,-52.075,2.522,-26.029
1747656511.80,0.193,0.034,0.073,0.938,-0.111,0.021,-51.538,2.454,-26.054
1747656511.81,0.170,0.044,0.059,0.907,-0.218,0.086,-51.011,2.369,-26.041
1747656511.82,0.113,0.013,0.025,0.894,-0.353,0.126,-50.496,2.254,-25.975
1747656511.83,0.076,-0.016,-0.002,0.950,-0.393,0.121,-49.969,2.096,-25.895
1747656511.84,0.083,-0.043,0.006,0.996,-0.396,0.147,-49.408,1.940,-25.807
1747656511.85,0.144,-0.050,-0.069,0.957,-0.345,0.174,-48.845,1.816,-25.695
1747656511.86,0.176,-0.060,-0.097,0.921,-0.384,0.199,-48.305,1.713,-25.560
1747656511.87,0.190,-0.076,-0.038,0.906,-0.408,0.321,-47.779,1.628,-25.365
1747656511.88,0.277,-0.076,0.009,0.919,-0.299,0.430,-47.254,1.643,-25.065
1747656511.89,0.304,-0.083,0.065,0.986,-0.174,0.469,-46.702,1.776,-24.710
1747656511.90,0.189,-0.093,0.039,1.008,-0.173,0.457,-46.121,1.940,-24.351
1747656511.91,0.033,-0.100,-0.026,0.968,-0.178,0.448,-45.546,2.086,-24.011
1747656511.92,-0.063,-0.114,-0.033,0.918,-0.205,0.463,-44.999,2.216,-23.670
1747656511.93,-0.043,-0.104,-0.005,0.914,-0.114,0.468,-44.467,2.369,-23.323
1747656511.94,0.009,-0.069,0.070,0.949,0.039,0.430,-43.923,2.571,-22.999
1747656511.95,-0.002,-0.018,0.083,0.957,0.029,0.342,-43.369,2.780,-22.728
1747656511.96,-0.086,0.040,0.028,0.937,-0.074,0.245,-42.821,2.901,-22.537
1747656511.97,-0.154,0.069,0.025,0.960,-0.155,0.198,-42.275,2.919,-22.405
1747656511.98,-0.128,0.088,0.026,0.989,-0.174,0.184,-41.713,2.896,-22.297
1747656511.99,-0.065,0.102,0.026,1.010,-0.258,0.245,-41.136,2.848,-22.191
1747656512.00,-0.067,0.100,0.006,1.036,-0.279,0.272,-40.545,2.815,-22.006
1747656512.01,0.030,0.104,0.035,1.048,-0.249,0.190,-39.943,2.745,-21.877
1747656512.02,0.057,0.066,0.058,1.071,-0.130,0.218,-39.336,2.704,-21.765
1747656512.03,0.011,-0.016,0.055,1.122,-0.035,0.244,-38.701,2.747,-21.633
1747656512.04,-0.084,-0.062,-0.012,1.067,0.100,0.232,-38.068,2.844,-21.497
1747656512.05,-0.097,-0.065,-0.027,0.996,0.167,0.197,-37.473,2.994,-21.379
1747656512.06,-0.059,-0.055,0.001,0.981,0.261,0.168,-36.906,3.174,-21.286
1747656512.07,-0.023,-0.045,0.010,0.967,0.243,0.129,-36.344,3.363,-21.220
1747656512.08,-0.013,-0.024,0.027,0.969,0.206,0.104,-35.789,3.515,-21.180
1747656512.09,0.019,0.017,0.032,0.982,0.096,0.105,-35.228,3.629,-21.150
1747656512.10,0.072,0.078,0.044,1.024,-0.050,0.129,-34.653,3.661,-21.112
1747656512.11,0.085,0.117,0.101,1.067,-0.114,0.142,-34.051,3.638,-21.064
1747656512.12,0.061,0.120,0.137,1.144,-0.075,0.127,-33.417,3.609,-21.018
1747656512.13,-0.015,0.090,0.085,1.198,-0.050,0.077,-32.743,3.588,-20.998
1747656512.14,-0.107,0.055,-0.010,1.191,0.014,0.017,-32.058,3.565,-21.017
1747656512.15,-0.166,0.027,-0.080,1.114,0.218,-0.044,-31.401,3.597,-21.074
1747656512.16,-0.194,-0.006,-0.072,1.021,0.274,-0.218,-30.793,3.681,-21.190
1747656512.17,-0.211,-0.009,-0.019,1.014,0.393,-0.042,-30.221,3.809,-21.348
1747656512.18,-0.186,-0.062,0.063,1.003,0.452,0.317,-29.641,4.061,-21.287
1747656512.19,-0.065,-0.023,0.031,0.995,0.396,0.089,-29.065,4.354,-21.191
1747656512.20,0.170,0.105,0.009,1.034,0.206,-0.014,-28.489,4.508,-21.229
1747656512.21,0.206,0.088,0.026,1.086,-0.039,0.005,-27.887,4.529,-21.289
1747656512.22,0.156,0.068,0.069,1.127,-0.202,0.040,-27.254,4.436,-21.329
1747656512.23,0.094,0.058,0.148,1.208,-0.088,0.038,-26.588,4.329,-21.359
1747656512.24,0.027,0.015,0.150,1.242,0.185,-0.022,-25.886,4.332,-21.412
1747656512.25,-0.109,-0.072,0.005,1.156,0.468,-0.082,-25.204,4.483,-21.506
1747656512.26,-0.262,-0.173,-0.046,1.083,0.678,-0.039,-24.570,4.770,-21.606
1747656512.27,-0.257,-0.184,-0.036,1.053,0.906,0.078,-23.964,5.210,-21.652
1747656512.28,-0.055,-0.067,-0.069,1.016,0.865,0.085,-23.371,5.722,-21.655
1747656512.29,0.110,0.094,-0.100,1.054,0.641,-0.010,-22.784,6.140,-21.698
1747656512.30,0.153,0.185,-0.055,1.107,0.372,-0.044,-22.172,6.394,-21.790
1747656512.31,0.116,0.194,-0.016,1.138,0.135,-0.034,-21.536,6.497,-21.893
1747656512.32,0.053,0.175,0.053,1.169,0.028,-0.006,-20.883,6.505,-21.986
1747656512.33,0.034,0.149,0.118,1.204,-0.001,0.012,-20.209,6.484,-22.065
1747656512.34,0.028,0.116,0.148,1.247,0.082,-0.028,-19.516,6.474,-22.152
1747656512.35,-0.003,0.056,0.137,1.252,0.210,-0.080,-18.809,6.514,-22.270
1747656512.36,-0.061,-0.049,0.032,1.196,0.351,-0.103,-18.118,6.631,-22.411
1747656512.37,-0.090,-0.143,-0.082,1.139,0.445,-0.095,-17.467,6.814,-22.547
1747656512.38,-0.055,-0.131,-0.118,1.075,0.410,0.044,-16.841,7.029,-22.649
1747656512.39,0.091,-0.021,-0.073,1.049,0.366,0.156,-16.233,7.247,-22.664
1747656512.40,0.143,0.083,-0.034,1.067,0.262,0.128,-15.625,7.431,-22.659
