Time,AccX,AccY,AccZ,GyroX,GyroY,GyroZ,Pitch,Roll,Yaw
1747656561.14,0.013,0.018,-0.030,0.070,0.020,-0.023,-87.074,-108.874,-107.075
1747656561.15,0.024,0.006,-0.046,0.021,0.001,0.000,-87.081,-108.356,-106.563
1747656561.16,0.037,-0.004,-0.039,-0.012,-0.057,0.048,-87.097,-108.330,-106.525
1747656561.16,0.048,-0.027,-0.030,-0.007,-0.103,0.069,-87.135,-108.652,-106.798
1747656561.17,0.031,-0.042,-0.034,0.040,-0.096,0.039,-87.168,-108.431,-106.519
1747656561.18,-0.004,0.015,-0.022,0.054,-0.051,0.023,-87.192,-107.662,-105.706
1747656561.19,-0.022,0.025,-0.012,0.044,0.014,0.016,-87.211,-107.014,-105.049
1747656561.20,-0.036,0.021,-0.002,0.028,0.059,0.005,-87.223,-106.565,-104.620
1747656561.21,-0.055,0.007,0.000,0.008,0.124,-0.011,-87.229,-106.189,-104.298
1747656561.22,-0.066,-0.012,0.013,-0.011,0.157,-0.022,-87.224,-105.960,-104.152
1747656561.23,-0.058,-0.025,0.030,-0.005,0.139,-0.020,-87.218,-105.859,-104.136
1747656561.24,-0.037,-0.023,0.016,0.027,0.092,-0.006,-87.221,-105.606,-103.950
1747656561.25,-0.010,-0.011,0.000,0.037,0.056,-0.005,-87.230,-105.092,-103.478
1747656561.26,0.019,0.008,0.004,0.024,0.026,-0.005,-87.232,-104.652,-103.061
1747656561.27,0.042,0.025,0.011,0.044,-0.022,0.000,-87.234,-104.244,-102.654
1747656561.28,0.042,0.025,0.004,0.061,-0.108,-0.014,-87.235,-103.616,-101.987
1747656561.29,0.011,0.017,-0.012,0.047,-0.144,-0.045,-87.219,-102.937,-101.232
1747656561.30,-0.022,0.000,-0.002,0.019,-0.118,-0.076,-87.182,-102.477,-100.695
1747656561.31,-0.031,-0.019,0.012,0.008,-0.069,-0.086,-87.130,-102.244,-100.410
1747656561.32,-0.025,-0.038,0.019,0.009,-0.035,-0.075,-87.080,-102.023,-100.159
1747656561.33,-0.018,-0.028,0.017,0.002,-0.011,-0.063,-87.040,-101.801,-99.925
1747656561.34,-0.015,0.000,0.019,-0.016,-0.033,-0.044,-87.012,-101.797,-99.910
1747656561.35,-0.012,0.013,0.017,-0.026,-0.079,-0.024,-86.998,-102.050,-100.129
1747656561.36,-0.008,0.010,-0.004,-0.012,-0.080,0.004,-86.998,-102.308,-100.341
1747656561.37,-0.002,-0.004,-0.024,0.004,-0.048,0.004,-87.004,-102.356,-100.352
1747656561.38,0.006,-0.019,-0.032,-0.008,-0.010,-0.015,-86.996,-102.348,-100.328
1747656561.39,0.008,-0.016,-0.017,0.006,0.035,-0.014,-86.976,-102.373,-100.359
1747656561.40,-0.000,-0.003,-0.008,0.041,0.109,0.010,-86.967,-102.174,-100.201
1747656561.41,-0.012,0.003,-0.019,0.070,0.119,0.033,-86.978,-101.637,-99.732
1747656561.42,-0.035,-0.009,-0.027,0.076,0.075,0.050,-87.004,-100.982,-99.133
1747656561.43,-0.039,-0.030,-0.060,0.068,0.036,0.061,-87.038,-100.396,-98.577
1747656561.44,0.005,-0.037,-0.084,0.066,-0.009,0.076,-87.081,-99.786,-97.972
1747656561.45,0.051,-0.023,-0.106,0.086,-0.035,0.078,-87.132,-99.059,-97.232
1747656561.46,0.062,0.005,-0.099,0.130,-0.069,0.049,-87.178,-97.945,-96.086
1747656561.47,0.031,0.033,-0.074,0.191,-0.088,0.015,-87.207,-96.185,-94.278
1747656561.48,-0.009,0.044,-0.065,0.296,-0.057,-0.016,-87.218,-93.387,-91.432
1747656561.49,-0.059,0.039,-0.076,0.356,0.042,-0.036,-87.207,-89.481,-87.515
1747656561.50,-0.107,0.033,-0.083,0.351,0.226,-0.075,-87.162,-85.263,-83.371
1747656561.51,-0.136,0.021,-0.056,0.235,0.283,-0.075,-87.095,-81.783,-80.033
1747656561.52,-0.149,-0.016,-0.066,0.076,0.397,-0.032,-87.050,-79.951,-78.390
1747656561.53,-0.115,-0.046,-0.070,-0.025,0.538,0.008,-87.044,-79.427,-78.134
1747656561.54,-0.021,-0.070,-0.040,-0.038,0.580,0.041,-87.063,-79.365,-78.401
1747656561.55,0.086,-0.068,-0.023,-0.025,0.418,0.094,-87.104,-79.258,-78.582
1747656561.56,0.175,-0.045,-0.037,0.009,0.196,0.134,-87.169,-78.933,-78.435
1747656561.57,0.234,-0.014,-0.035,0.069,-0.014,0.130,-87.240,-78.155,-77.705
1747656561.58,0.253,0.019,-0.036,0.124,-0.186,0.092,-87.291,-76.770,-76.262
1747656561.59,0.231,0.045,-0.029,0.164,-0.348,0.025,-87.303,-75.059,-74.396
1747656561.60,0.184,0.053,-0.041,0.219,-0.492,-0.022,-87.274,-73.075,-72.167
1747656561.61,0.124,0.045,-0.054,0.250,-0.580,-0.053,-87.211,-70.829,-69.610
1747656561.62,0.041,0.037,-0.042,0.234,-0.569,-0.077,-87.128,-68.798,-67.244
1747656561.63,-0.052,0.030,0.011,0.238,-0.494,-0.086,-87.033,-67.016,-65.153
1747656561.64,-0.134,0.012,0.043,0.208,-0.367,-0.074,-86.938,-65.382,-63.267
1747656561.65,-0.195,-0.012,0.059,0.151,-0.175,-0.049,-86.862,-64.107,-61.834
1747656561.66,-0.220,-0.038,0.087,0.089,-0.009,-0.022,-86.814,-63.217,-60.891
1747656561.67,-0.218,-0.058,0.098,0.059,0.108,0.009,-86.791,-62.564,-60.268
1747656561.68,-0.189,-0.067,0.095,0.048,0.173,0.056,-86.792,-61.856,-59.641
1747656561.69,-0.127,-0.056,0.086,0.044,0.191,0.082,-86.815,-61.001,-58.889
1747656561.70,-0.059,-0.016,0.066,0.071,0.190,0.086,-86.843,-59.958,-57.954
1747656561.71,-0.013,0.037,0.040,0.106,0.169,0.073,-86.856,-58.629,-56.727
1747656561.72,0.009,0.072,0.033,0.119,0.140,0.063,-86.854,-57.181,-55.365
1747656561.73,0.014,0.066,0.039,0.143,0.130,0.055,-86.841,-55.644,-53.902
1747656561.74,0.013,0.027,0.024,0.150,0.119,0.042,-86.814,-54.024,-52.352
1747656561.75,0.007,-0.013,0.017,0.134,0.091,0.023,-86.779,-52.590,-50.978
1747656561.76,0.005,-0.030,0.023,0.129,0.037,0.011,-86.742,-51.408,-49.832
1747656561.77,0.011,-0.022,0.020,0.161,-0.037,0.008,-86.694,-50.261,-48.684
1747656561.78,0.027,-0.005,0.014,0.211,-0.092,0.018,-86.630,-48.865,-47.247
1747656561.79,0.049,0.006,0.021,0.234,-0.113,0.030,-86.554,-47.199,-45.518
1747656561.80,0.064,0.009,0.032,0.248,-0.138,0.033,-86.472,-45.436,-43.681
1747656561.81,0.056,0.005,0.040,0.278,-0.191,0.051,-86.382,-43.592,-41.739
1747656561.82,0.032,-0.007,0.035,0.289,-0.223,0.077,-86.288,-41.568,-39.591
1747656561.83,0.013,-0.014,0.020,0.281,-0.205,0.092,-86.197,-39.512,-37.407
1747656561.84,-0.001,-0.008,0.009,0.285,-0.169,0.093,-86.107,-37.550,-35.332
1747656561.85,-0.014,-0.006,0.009,0.336,-0.129,0.095,-86.004,-35.534,-33.226
1747656561.86,-0.019,-0.010,0.017,0.411,-0.105,0.102,-85.867,-33.266,-30.886
1747656561.87,-0.016,-0.009,-0.005,0.459,-0.111,0.108,-85.687,-30.832,-28.385
1747656561.88,-0.008,-0.004,-0.026,0.473,-0.113,0.111,-85.487,-28.483,-25.966
1747656561.89,-0.007,0.003,-0.035,0.538,-0.101,0.103,-85.260,-26.242,-23.655
1747656561.90,-0.014,0.007,-0.041,0.595,-0.086,0.120,-84.993,-24.013,-21.364
1747656561.91,-0.014,0.009,-0.028,0.634,-0.071,0.169,-84.701,-21.705,-19.001
1747656561.92,-0.015,0.010,-0.000,0.642,-0.041,0.203,-84.396,-19.341,-16.593
1747656561.93,-0.033,0.008,0.021,0.633,-0.032,0.219,-84.087,-17.091,-14.313
1747656561.94,-0.059,-0.000,0.048,0.626,-0.052,0.227,-83.778,-15.031,-12.217
1747656561.95,-0.065,-0.013,0.039,0.640,-0.040,0.219,-83.458,-13.162,-10.308
1747656561.96,-0.053,-0.018,0.019,0.675,-0.022,0.196,-83.118,-11.513,-8.629
1747656561.97,-0.037,-0.016,0.011,0.754,0.012,0.178,-82.738,-10.053,-7.155
1747656561.98,-0.012,-0.007,0.009,0.813,0.037,0.166,-82.312,-8.745,-5.851
1747656561.99,0.016,0.006,0.029,0.862,0.057,0.171,-81.851,-7.543,-4.666
1747656562.00,0.024,0.019,0.056,0.879,0.028,0.154,-81.367,-6.475,-3.613
1747656562.01,-0.001,0.027,0.019,0.878,0.053,0.146,-80.876,-5.583,-2.729
1747656562.02,-0.021,0.025,0.014,0.840,0.131,0.189,-80.395,-4.695,-1.882
1747656562.03,-0.000,0.003,0.065,0.816,0.130,0.253,-79.935,-3.688,-0.940
1747656562.04,0.008,-0.027,0.095,0.831,0.071,0.294,-79.473,-2.626,0.081
1747656562.05,-0.019,-0.041,0.052,0.835,0.075,0.337,-79.004,-1.553,1.133
1747656562.06,-0.039,-0.038,0.047,0.864,0.098,0.371,-78.523,-0.437,2.220
1747656562.07,-0.046,-0.031,0.039,0.908,0.103,0.390,-78.017,0.668,3.289
1747656562.08,-0.047,-0.022,0.014,0.994,0.062,0.395,-77.473,1.699,4.296
1747656562.09,-0.033,-0.009,-0.009,1.074,-0.001,0.368,-76.871,2.578,5.183
1747656562.10,-0.008,0.005,-0.055,0.964,0.090,0.278,-76.272,3.253,5.856
1747656562.11,0.012,0.018,-0.016,0.763,0.271,0.166,-75.774,3.747,6.256
1747656562.12,-0.005,0.024,0.125,0.736,0.285,0.116,-75.350,4.101,6.450
1747656562.13,-0.080,0.025,0.143,0.812,0.127,0.160,-74.903,4.382,6.614
1747656562.14,-0.145,0.022,0.016,0.827,-0.030,0.301,-74.423,4.739,6.945
1747656562.15,-0.113,0.017,-0.056,0.838,0.000,0.447,-73.932,5.340,7.584
1747656562.16,-0.004,0.015,0.015,0.917,0.080,0.470,-73.410,6.102,8.347
1747656562.17,0.064,0.024,0.079,1.060,0.091,0.380,-72.824,6.754,8.972
1747656562.18,0.049,0.035,0.049,1.225,0.048,0.258,-72.153,7.116,9.318
1747656562.19,-0.009,0.037,-0.015,1.250,0.039,0.151,-71.430,7.221,9.403
1747656562.20,-0.045,0.021,-0.039,1.110,0.153,0.097,-70.750,7.222,9.348
1747656562.21,-0.058,0.003,0.033,1.007,0.315,0.103,-70.147,7.302,9.287
1747656562.22,-0.088,-0.030,0.114,0.982,0.256,0.146,-69.575,7.457,9.257
1747656562.23,-0.143,-0.056,0.070,0.930,0.216,0.301,-69.016,7.718,9.400
1747656562.24,-0.138,-0.073,0.015,0.885,0.359,0.469,-68.473,8.266,9.808
1747656562.25,-0.053,-0.072,0.019,0.913,0.450,0.511,-67.926,9.015,10.360
1747656562.26,-0.024,-0.049,-0.018,1.015,0.419,0.444,-67.339,9.708,10.831
1747656562.27,-0.051,-0.029,-0.065,1.208,0.384,0.318,-66.680,10.191,11.107
1747656562.28,-0.089,-0.008,-0.102,1.430,0.358,0.114,-65.914,10.374,11.082
1747656562.29,-0.135,0.029,-0.124,1.534,0.376,-0.048,-65.072,10.281,10.754
1747656562.30,-0.162,0.053,-0.060,1.433,0.436,-0.204,-64.242,10.049,10.232
1747656562.31,-0.184,0.050,0.096,1.232,0.473,-0.292,-63.521,9.749,9.611
1747656562.32,-0.242,0.029,0.142,1.137,0.621,-0.236,-62.881,9.530,9.002
1747656562.33,-0.275,-0.019,0.005,1.019,0.727,-0.064,-62.288,9.555,8.591
1747656562.34,-0.230,-0.053,-0.051,0.928,0.746,0.137,-61.739,9.842,8.421
1747656562.35,-0.144,-0.068,-0.036,0.940,0.771,0.298,-61.197,10.335,8.488
1747656562.36,-0.004,-0.071,0.032,1.119,0.696,0.352,-60.589,10.905,8.649
1747656562.37,0.134,-0.045,0.056,1.390,0.494,0.262,-59.850,11.310,8.724
1747656562.38,0.213,0.018,-0.013,1.486,0.415,0.043,-59.018,11.437,8.555
1747656562.39,0.250,0.077,0.015,1.362,0.299,-0.158,-58.225,11.309,8.170
1747656562.40,0.216,0.084,0.097,1.315,0.251,-0.193,-57.499,11.067,7.675
1747656562.41,0.120,0.040,0.094,1.312,0.259,-0.133,-56.781,10.844,7.240
1747656562.42,-0.007,-0.009,0.054,1.277,0.272,-0.043,-56.060,10.712,6.871
1747656562.43,-0.082,-0.031,-0.050,1.161,0.262,0.042,-55.375,10.676,6.641
1747656562.44,-0.069,-0.041,-0.119,1.099,0.243,0.123,-54.735,10.715,6.491
1747656562.45,-0.003,-0.053,-0.054,1.116,0.222,0.218,-54.096,10.817,6.453
1747656562.46,0.077,-0.073,0.011,1.165,0.193,0.288,-53.429,10.964,6.468
1747656562.47,0.150,-0.083,0.051,1.233,0.185,0.329,-52.723,11.127,6.544
1747656562.48,0.217,-0.079,0.069,1.274,0.155,0.350,-51.981,11.294,6.629
1747656562.49,0.261,-0.066,0.107,1.236,0.058,0.359,-51.236,11.428,6.726
1747656562.50,0.249,-0.045,0.123,1.172,0.002,0.378,-50.523,11.523,6.841
1747656562.51,0.240,-0.035,0.070,1.082,-0.159,0.448,-49.842,11.582,7.011
1747656562.52,0.266,-0.046,-0.026,1.044,-0.219,0.595,-49.190,11.676,7.275
1747656562.53,0.313,-0.050,-0.012,1.106,-0.280,0.671,-48.518,11.795,7.650
1747656562.54,0.265,-0.067,-0.015,1.188,-0.317,0.674,-47.798,11.900,8.015
1747656562.55,0.193,-0.078,-0.002,1.236,-0.450,0.622,-47.042,11.921,8.344
1747656562.56,0.086,-0.070,-0.023,1.244,-0.505,0.577,-46.277,11.842,8.618
1747656562.57,-0.017,-0.054,-0.036,1.212,-0.424,0.511,-45.525,11.741,8.857
1747656562.58,-0.092,-0.034,0.003,1.157,-0.276,0.409,-44.809,11.661,9.029
1747656562.59,-0.161,-0.009,0.085,1.133,-0.108,0.320,-44.129,11.621,9.143
1747656562.60,-0.199,0.012,0.093,1.129,-0.026,0.291,-43.460,11.623,9.194
1747656562.61,-0.189,0.035,-0.011,1.002,-0.040,0.325,-42.825,11.646,9.287
1747656562.62,-0.161,0.059,-0.097,0.913,-0.005,0.411,-42.252,11.721,9.418
1747656562.63,-0.109,0.068,-0.021,0.981,0.012,0.489,-41.674,11.854,9.639
1747656562.64,-0.062,0.070,0.055,1.084,-0.028,0.511,-41.036,11.989,9.849
1747656562.65,-0.038,0.097,0.030,1.119,-0.074,0.464,-40.360,12.084,10.069
1747656562.66,-0.024,0.130,0.009,1.125,-0.160,0.395,-39.682,12.105,10.206
1747656562.67,-0.030,0.152,0.043,1.182,-0.153,0.338,-38.997,12.065,10.322
1747656562.68,-0.042,0.151,0.121,1.256,-0.021,0.285,-38.276,12.037,10.360
1747656562.69,-0.062,0.141,0.102,1.219,0.083,0.227,-37.551,12.053,10.377
1747656562.70,-0.126,0.142,-0.004,1.125,0.094,0.208,-36.871,12.088,10.349
1747656562.71,-0.216,0.110,-0.082,1.139,0.277,0.205,-36.223,12.166,10.369
1747656562.72,-0.260,0.053,-0.038,1.137,0.158,0.254,-35.564,12.266,10.357
1747656562.73,-0.227,0.011,-0.003,1.241,0.234,0.205,-34.872,12.370,10.386
1747656562.74,-0.159,0.038,0.020,1.310,0.245,0.027,-34.144,12.450,10.275
1747656562.75,-0.155,0.058,0.052,1.338,0.164,-0.086,-33.409,12.444,10.093
1747656562.76,-0.135,0.046,0.048,1.287,0.134,-0.080,-32.686,12.391,9.843
1747656562.77,-0.029,0.018,0.047,1.279,0.084,0.054,-31.976,12.348,9.677
1747656562.78,0.106,0.023,0.058,1.327,0.045,0.141,-31.236,12.325,9.566
1747656562.79,0.182,0.032,0.025,1.338,0.018,0.128,-30.472,12.287,9.496
1747656562.80,0.210,0.059,-0.014,1.324,0.030,0.164,-29.711,12.254,9.399
1747656562.81,0.136,0.040,-0.023,1.227,0.014,0.267,-28.972,12.245,9.390
1747656562.82,0.022,-0.004,-0.036,1.211,0.179,0.267,-28.260,12.328,9.390
1747656562.83,-0.099,-0.028,-0.039,1.395,0.262,0.317,-27.510,12.453,9.441
1747656562.84,-0.129,-0.004,-0.003,1.716,0.374,0.301,-26.600,12.628,9.420
1747656562.85,-0.172,0.048,0.053,1.815,0.452,0.210,-25.577,12.822,9.360
1747656562.86,-0.223,0.079,0.126,1.813,0.490,0.101,-24.547,13.028,9.200
1747656562.87,-0.210,0.067,0.124,1.796,0.405,0.121,-23.530,13.203,9.045
1747656562.88,-0.163,0.045,0.068,1.785,0.344,0.090,-22.518,13.348,8.856
1747656562.89,-0.067,0.031,0.054,1.714,0.215,0.078,-21.533,13.430,8.725
1747656562.90,0.008,0.028,0.015,1.600,0.103,0.032,-20.604,13.449,8.519
1747656562.91,0.066,0.016,-0.051,1.467,0.076,0.086,-19.748,13.432,8.390
1747656562.92,0.051,-0.044,-0.079,1.387,0.069,0.166,-18.938,13.432,8.265
1747656562.93,0.015,-0.095,-0.015,1.362,0.174,0.183,-18.156,13.467,8.230
1747656562.94,-0.046,-0.122,0.113,1.582,0.362,0.156,-17.323,13.590,8.126
1747656562.95,-0.041,-0.134,0.188,1.772,0.424,0.130,-16.364,13.776,8.008
1747656562.96,-0.007,-0.136,0.178,1.807,0.557,-0.051,-15.374,14.004,7.798
1747656562.97,0.065,-0.116,0.154,1.566,0.283,0.048,-14.451,14.155,7.581
1747656562.98,0.238,-0.096,0.091,1.504,0.112,0.293,-13.578,14.238,7.461
1747656562.99,0.350,-0.084,0.031,1.402,-0.087,0.420,-12.720,14.241,7.511
1747656563.00,0.310,-0.064,-0.017,1.326,-0.078,0.551,-11.901,14.204,7.592
1747656563.01,0.284,-0.070,-0.004,1.289,0.033,0.631,-11.093,14.221,7.807
1747656563.02,0.258,-0.076,-0.006,1.273,0.128,0.643,-10.296,14.304,7.986
1747656563.03,0.218,-0.078,0.014,1.293,0.176,0.616,-9.496,14.420,8.212
1747656563.04,0.183,-0.076,0.058,1.282,0.197,0.641,-8.694,14.556,8.377
1747656563.05,0.158,-0.050,0.120,1.268,0.113,0.673,-7.894,14.672,8.618
1747656563.06,0.093,-0.003,0.070,1.270,0.081,0.719,-7.093,14.751,8.821
1747656563.07,-0.003,0.043,0.025,1.309,0.097,0.746,-6.273,14.828,9.095
1747656563.08,-0.059,0.065,0.019,1.326,0.060,0.704,-5.439,14.897,9.306
1747656563.09,-0.100,0.079,0.002,1.361,-0.015,0.620,-4.600,14.925,9.520
1747656563.10,-0.116,0.070,-0.031,1.398,-0.078,0.538,-3.755,14.903,9.638
1747656563.11,-0.112,0.021,-0.031,1.432,0.026,0.448,-2.899,14.889,9.743
1747656563.12,-0.092,-0.054,0.030,1.375,0.112,0.336,-2.067,14.931,9.754
1747656563.13,-0.067,-0.046,-0.026,1.403,0.076,0.281,-1.258,14.986,9.761
1747656563.14,-0.076,0.010,-0.093,1.393,0.047,0.262,-0.445,15.013,9.704
1747656563.15,-0.111,0.082,-0.060,1.411,0.081,0.238,0.364,15.054,9.678
1747656563.16,-0.102,0.141,0.005,1.446,-0.015,0.225,1.188,15.075,9.592
1747656563.17,-0.080,0.197,-0.017,1.474,-0.102,0.208,2.025,15.044,9.543
1747656563.18,-0.029,0.228,-0.053,1.513,-0.175,0.174,2.879,14.967,9.427
1747656563.19,0.001,0.207,-0.055,1.496,-0.161,0.158,3.733,14.878,9.342
1747656563.20,-0.006,0.134,-0.021,1.479,-0.210,0.171,4.580,14.779,9.216
1747656563.21,-0.028,0.020,0.011,1.470,-0.095,0.124,5.417,14.700,9.117
1747656563.22,0.023,-0.048,0.009,1.436,0.014,0.072,6.234,14.695,8.958
1747656563.23,0.082,-0.064,-0.016,1.403,0.085,0.064,7.029,14.745,8.833
1747656563.24,0.089,-0.057,-0.102,1.360,0.076,0.069,7.801,14.814,8.668
1747656563.25,0.055,-0.008,-0.110,1.297,0.077,0.029,8.543,14.880,8.530
1747656563.26,0.014,0.019,-0.100,1.270,0.070,-0.013,9.249,14.955,8.344
1747656563.27,0.025,0.027,-0.107,1.283,-0.020,-0.037,9.949,15.005,8.170
1747656563.28,0.014,0.051,-0.133,1.296,-0.088,-0.067,10.656,15.011,7.947
1747656563.29,-0.020,0.082,-0.131,1.249,-0.073,-0.120,11.344,15.010,7.741
1747656563.30,-0.037,0.065,-0.084,1.230,-0.166,-0.179,12.006,15.001,7.519
1747656563.31,-0.047,0.032,-0.068,1.207,-0.185,-0.227,12.651,14.962,7.221
1747656563.32,-0.035,-0.020,-0.056,1.197,-0.175,-0.292,13.274,14.935,6.934
1747656563.33,0.014,0.029,-0.099,1.206,-0.211,-0.290,13.894,14.905,6.585
1747656563.34,0.005,0.074,-0.104,1.193,-0.201,-0.247,14.518,14.872,6.272
1747656563.35,0.037,0.111,-0.114,1.176,-0.270,-0.218,15.137,14.818,5.961
1747656563.36,0.100,0.147,-0.129,1.126,-0.329,-0.196,15.743,14.725,5.701
1747656563.37,0.136,0.126,-0.119,1.202,-0.095,-0.283,16.342,14.642,5.410
1747656563.38,0.118,0.098,-0.103,0.994,-0.443,-0.251,16.914,14.542,5.090
1747656563.39,0.122,0.073,-0.098,1.035,-0.540,-0.141,17.447,14.340,4.835
1747656563.40,0.243,-0.019,-0.058,0.971,-0.546,-0.206,17.980,14.099,4.616
1747656563.41,0.160,-0.079,-0.114,1.023,-0.616,-0.216,18.503,13.858,4.345
1747656563.42,0.072,-0.121,-0.109,0.953,-0.562,-0.205,19.025,13.597,4.098
1747656563.43,-0.062,-0.195,-0.044,0.883,-0.362,-0.263,19.506,13.419,3.833
1747656563.44,-0.109,-0.236,0.000,0.835,-0.210,-0.281,19.942,13.356,3.568
1747656563.45,-0.101,-0.191,-0.016,0.795,-0.123,-0.252,20.361,13.356,3.297
1747656563.46,-0.054,-0.177,-0.043,0.720,-0.015,-0.276,20.749,13.409,3.037
1747656563.47,-0.007,-0.050,-0.037,0.726,-0.064,-0.292,21.106,13.485,2.766
1747656563.48,-0.031,0.081,0.015,0.821,-0.066,-0.258,21.499,13.552,2.489
1747656563.49,-0.057,0.155,0.007,0.820,-0.227,-0.218,21.925,13.559,2.227
1747656563.50,-0.043,0.127,-0.021,0.847,-0.288,-0.199,22.361,13.508,1.977
1747656563.51,0.006,0.038,-0.010,0.797,-0.481,-0.235,22.791,13.386,1.729
1747656563.52,0.126,-0.062,-0.120,0.750,-0.556,-0.273,23.188,13.185,1.470
1747656563.53,0.178,-0.059,-0.171,0.720,-0.481,-0.316,23.558,12.996,1.186
1747656563.54,0.057,-0.019,-0.073,0.664,-0.304,-0.303,23.904,12.888,0.917
1747656563.55,-0.102,-0.040,-0.012,0.642,-0.147,-0.234,24.230,12.863,0.663
1747656563.56,-0.186,-0.002,-0.005,0.649,-0.009,-0.181,24.564,12.911,0.466
1747656563.57,-0.178,0.046,-0.045,0.644,-0.014,-0.162,24.903,12.988,0.271
1747656563.58,-0.070,0.038,-0.107,0.612,-0.084,-0.158,25.232,13.035,0.092
1747656563.59,0.054,0.004,-0.132,0.548,-0.151,-0.208,25.532,13.049,-0.102
1747656563.60,0.115,-0.054,-0.106,0.479,-0.147,-0.255,25.789,13.054,-0.309
1747656563.61,0.080,-0.132,-0.048,0.416,-0.155,-0.224,26.004,13.064,-0.524
1747656563.62,-0.017,-0.158,0.034,0.345,-0.151,-0.136,26.194,13.043,-0.688
1747656563.63,-0.127,-0.124,0.036,0.275,-0.065,-0.117,26.351,13.038,-0.808
1747656563.64,-0.062,-0.128,-0.046,0.248,-0.099,-0.113,26.480,13.044,-0.911
1747656563.64,0.024,-0.148,-0.087,0.220,-0.179,-0.100,26.598,13.007,-1.010
1747656563.66,0.043,-0.114,-0.093,0.153,-0.197,-0.099,26.690,12.936,-1.091
1747656563.66,0.050,-0.073,-0.110,0.079,-0.150,-0.109,26.740,12.872,-1.173
1747656563.68,0.016,-0.098,-0.060,0.031,-0.079,-0.087,26.758,12.837,-1.239
1747656563.68,-0.041,-0.137,0.004,-0.004,-0.011,-0.067,26.756,12.835,-1.288
1747656563.69,-0.059,-0.113,0.007,-0.005,-0.012,-0.051,26.745,12.846,-1.317
1747656563.70,-0.045,-0.069,-0.032,-0.035,-0.060,-0.033,26.730,12.836,-1.339
1747656563.71,-0.004,-0.057,-0.050,-0.062,-0.095,-0.025,26.700,12.796,-1.350
1747656563.72,0.058,-0.040,-0.039,-0.094,-0.096,0.000,26.656,12.740,-1.349
1747656563.73,0.073,-0.049,-0.023,-0.146,-0.081,0.048,26.593,12.673,-1.295
1747656563.74,0.050,-0.092,-0.032,-0.197,-0.031,0.078,26.503,12.611,-1.231
1747656563.75,0.022,-0.088,-0.019,-0.200,0.015,0.098,26.405,12.571,-1.140
1747656563.76,-0.006,-0.016,-0.006,-0.217,0.020,0.128,26.306,12.538,-1.040
1747656563.77,-0.016,0.011,-0.036,-0.230,0.055,0.135,26.202,12.503,-0.919
1747656563.78,0.031,-0.019,-0.058,-0.229,0.193,0.131,26.093,12.523,-0.805
1747656563.79,0.053,-0.006,0.003,-0.274,0.289,0.141,25.972,12.613,-0.679
1747656563.80,0.025,-0.010,0.003,-0.336,0.272,0.170,25.823,12.716,-0.544
1747656563.81,-0.002,-0.118,-0.034,-0.366,0.339,0.216,25.650,12.816,-0.370
1747656563.82,0.000,-0.167,0.004,-0.437,0.386,0.192,25.461,12.948,-0.187
1747656563.83,0.048,-0.083,-0.042,-0.531,0.384,0.162,25.216,13.096,-0.008
1747656563.84,0.054,-0.086,-0.091,-0.556,0.377,0.203,24.934,13.231,0.181
1747656563.85,-0.010,-0.130,-0.086,-0.617,0.377,0.256,24.642,13.351,0.420
1747656563.86,-0.013,-0.125,-0.125,-0.717,0.431,0.261,24.304,13.476,0.676
1747656563.87,0.050,-0.098,-0.146,-0.774,0.428,0.268,23.926,13.612,0.946
1747656563.88,0.072,-0.078,-0.112,-0.833,0.414,0.290,23.517,13.735,1.234
1747656563.89,0.065,-0.114,-0.077,-0.905,0.376,0.274,23.077,13.843,1.534
1747656563.90,0.078,-0.149,-0.061,-1.017,0.306,0.194,22.574,13.927,1.820
1747656563.91,0.083,-0.142,-0.077,-1.060,0.223,0.129,22.020,13.985,2.060
1747656563.92,0.071,-0.081,-0.114,-1.091,0.144,0.123,21.441,14.001,2.294
1747656563.93,0.015,-0.044,-0.145,-1.147,0.146,0.132,20.840,13.994,2.544
1747656563.94,-0.046,-0.042,-0.192,-1.214,0.168,0.118,20.202,13.994,2.793
1747656563.95,-0.082,-0.045,-0.223,-1.269,0.276,0.099,19.529,14.036,3.054
1747656563.96,-0.082,-0.073,-0.199,-1.369,0.366,0.102,18.815,14.139,3.307
1747656563.97,-0.036,-0.114,-0.167,-1.475,0.354,0.081,18.039,14.265,3.604
1747656563.98,0.001,-0.127,-0.181,-1.507,0.251,0.018,17.220,14.364,3.857
1747656563.99,-0.001,-0.090,-0.161,-1.541,0.119,-0.076,16.373,14.411,4.081
1747656564.00,-0.017,-0.044,-0.123,-1.587,-0.051,-0.129,15.492,14.384,4.250
1747656564.01,0.040,-0.048,-0.162,-1.632,-0.161,-0.136,14.582,14.280,4.435
1747656564.02,0.097,-0.068,-0.147,-1.688,-0.234,-0.092,13.646,14.123,4.609
1747656564.03,0.110,-0.077,-0.076,-1.738,-0.261,-0.037,12.687,13.932,4.864
1747656564.04,0.117,-0.064,-0.114,-1.768,-0.204,0.007,11.713,13.747,5.100
1747656564.05,0.086,-0.022,-0.097,-1.818,-0.068,0.033,10.722,13.620,5.409
1747656564.06,0.007,0.002,-0.040,-1.849,0.051,0.042,9.709,13.563,5.682
1747656564.07,-0.064,-0.018,-0.043,-1.864,0.170,0.019,8.683,13.587,6.019
1747656564.08,-0.075,-0.048,-0.041,-1.920,0.199,0.024,7.635,13.657,6.286
1747656564.09,-0.005,-0.084,-0.059,-1.989,0.166,0.074,6.557,13.725,6.638
1747656564.10,0.118,-0.130,-0.100,-2.054,0.141,0.121,5.449,13.776,6.970
1747656564.11,0.205,-0.148,-0.068,-2.102,0.141,0.149,4.314,13.828,7.389
1747656564.12,0.199,-0.135,0.001,-2.125,0.107,0.152,3.162,13.874,7.763
1747656564.13,0.120,-0.110,0.008,-2.141,0.098,0.117,1.999,13.916,8.193
1747656564.14,0.040,-0.084,0.010,-2.135,0.119,0.058,0.823,13.968,8.553
1747656564.15,-0.027,-0.051,0.001,-2.144,0.091,0.004,-0.353,14.028,8.863
1747656564.16,-0.067,-0.018,-0.060,-2.214,0.105,-0.006,-1.564,14.085,9.185
1747656564.17,-0.051,0.003,-0.074,-2.229,0.117,0.030,-2.793,14.163,9.501
1747656564.18,-0.005,0.012,-0.066,-2.244,0.099,0.037,-4.027,14.243,9.890
1747656564.19,-0.008,0.020,-0.041,-2.249,0.116,-0.014,-5.268,14.332,10.217
1747656564.20,-0.027,0.023,0.014,-2.203,0.086,-0.119,-6.512,14.421,10.528
1747656564.21,-0.071,0.002,0.058,-2.126,0.070,-0.226,-7.732,14.488,10.742
1747656564.22,-0.112,-0.044,0.046,-2.084,0.086,-0.313,-8.933,14.555,10.954
1747656564.23,-0.119,-0.086,0.036,-2.077,0.109,-0.364,-10.132,14.629,11.066
1747656564.24,-0.121,-0.107,0.017,-2.084,0.141,-0.356,-11.333,14.719,11.230
1747656564.25,-0.097,-0.109,-0.014,-2.131,0.196,-0.327,-12.545,14.843,11.351
1747656564.26,-0.058,-0.079,-0.007,-2.126,0.196,-0.300,-13.768,14.991,11.569
1747656564.27,-0.039,-0.029,0.046,-2.101,0.157,-0.290,-14.976,15.130,11.726
1747656564.28,-0.031,0.022,0.076,-2.094,0.165,-0.291,-16.177,15.265,11.935
1747656564.29,0.005,0.051,0.083,-2.066,0.156,-0.306,-17.368,15.402,12.092
1747656564.30,0.058,0.045,0.036,-2.012,0.154,-0.336,-18.540,15.533,12.279
1747656564.31,0.099,0.011,-0.004,-2.001,0.188,-0.382,-19.696,15.669,12.396
1747656564.32,0.119,-0.042,-0.009,-2.026,0.137,-0.405,-20.865,15.800,12.550
1747656564.33,0.117,-0.102,0.011,-2.041,0.094,-0.382,-22.045,15.902,12.657
1747656564.34,0.113,-0.150,0.093,-2.024,0.121,-0.341,-23.218,16.015,12.832
1747656564.35,0.104,-0.159,0.151,-2.008,0.074,-0.330,-24.376,16.135,12.981
1747656564.36,0.036,-0.130,0.100,-1.995,-0.037,-0.347,-25.528,16.207,13.170
1747656564.37,-0.057,-0.088,0.040,-1.947,-0.061,-0.368,-26.668,16.232,13.302
1747656564.38,-0.115,-0.035,-0.006,-1.929,-0.000,-0.436,-27.792,16.259,13.440
1747656564.39,-0.156,0.029,-0.013,-1.926,0.094,-0.540,-28.929,16.311,13.488
1747656564.40,-0.204,0.079,-0.016,-1.911,0.091,-0.629,-30.074,16.359,13.511
1747656564.41,-0.232,0.102,-0.062,-1.916,0.086,-0.652,-31.227,16.380,13.459
1747656564.42,-0.201,0.100,-0.042,-1.903,0.154,-0.607,-32.376,16.423,13.452
1747656564.43,-0.097,0.076,0.060,-1.892,0.219,-0.550,-33.510,16.524,13.440
1747656564.44,0.023,0.044,0.125,-1.880,0.194,-0.518,-34.630,16.658,13.489
1747656564.45,0.109,0.017,0.094,-1.830,0.129,-0.526,-35.732,16.762,13.514
1747656564.46,0.135,-0.007,0.046,-1.804,0.126,-0.553,-36.809,16.837,13.543
1747656564.47,0.105,-0.031,0.042,-1.904,0.105,-0.553,-37.911,16.907,13.546
1747656564.48,0.067,-0.057,0.006,-2.035,0.102,-0.518,-39.078,16.991,13.606
1747656564.49,0.034,-0.081,0.013,-2.116,0.063,-0.440,-40.295,17.107,13.717
1747656564.50,0.023,-0.088,0.055,-2.105,0.046,-0.339,-41.514,17.264,13.917
1747656564.51,0.056,-0.066,0.062,-2.078,-0.066,-0.260,-42.704,17.438,14.178
1747656564.52,0.089,-0.031,0.093,-2.066,-0.215,-0.208,-43.874,17.571,14.506
1747656564.53,0.131,0.002,0.088,-2.037,-0.346,-0.176,-45.023,17.657,14.856
1747656564.54,0.220,0.016,0.042,-2.048,-0.495,-0.181,-46.164,17.682,15.222
1747656564.55,0.304,0.001,0.045,-2.036,-0.609,-0.237,-47.313,17.622,15.576
1747656564.56,0.334,-0.029,0.042,-2.033,-0.703,-0.334,-48.468,17.463,15.873
1747656564.57,0.297,-0.064,0.044,-2.092,-0.799,-0.382,-49.651,17.209,16.105
1747656564.58,0.220,-0.096,0.065,-2.183,-0.894,-0.313,-50.879,16.920,16.337
1747656564.59,0.181,-0.119,0.067,-2.247,-0.911,-0.147,-52.130,16.701,16.718
1747656564.60,0.190,-0.127,0.056,-2.289,-0.962,0.051,-53.381,16.624,17.267
1747656564.61,0.223,-0.121,0.067,-2.245,-1.063,0.236,-54.601,16.668,18.037
1747656564.62,0.257,-0.107,0.013,-2.098,-1.115,0.336,-55.744,16.790,18.924
1747656564.63,0.289,-0.104,-0.012,-1.940,-1.207,0.297,-56.793,16.895,19.846
1747656564.64,0.265,-0.109,0.000,-1.831,-1.317,0.155,-57.783,16.855,20.653
1747656564.65,0.166,-0.125,-0.002,-1.824,-1.312,-0.016,-58.767,16.645,21.296
1747656564.66,0.042,-0.152,-0.014,-1.842,-1.255,-0.180,-59.788,16.322,21.752
1747656564.67,-0.098,-0.170,-0.025,-1.797,-1.281,-0.311,-60.828,15.868,22.060
1747656564.68,-0.257,-0.167,-0.089,-1.762,-1.271,-0.388,-61.858,15.276,22.194
1747656564.69,-0.384,-0.146,-0.095,-1.831,-1.143,-0.394,-62.905,14.669,22.292
1747656564.70,-0.401,-0.120,0.027,-1.873,-0.864,-0.330,-63.986,14.215,22.426
1747656564.71,-0.326,-0.086,0.102,-1.837,-0.615,-0.219,-65.052,14.020,22.670
1747656564.72,-0.216,-0.039,0.038,-1.839,-0.572,-0.100,-66.091,14.052,23.066
1747656564.73,-0.109,-0.005,-0.002,-1.861,-0.666,0.033,-67.122,14.256,23.671
1747656564.74,-0.039,0.016,-0.003,-1.795,-0.740,0.130,-68.123,14.601,24.493
1747656564.75,0.015,0.015,-0.023,-1.658,-0.733,0.122,-69.059,15.011,25.388
1747656564.76,0.029,0.012,-0.035,-1.446,-0.671,-0.019,-69.908,15.317,26.164
1747656564.77,-0.037,0.026,-0.004,-1.239,-0.594,-0.218,-70.662,15.340,26.572
1747656564.78,-0.160,0.048,-0.038,-1.167,-0.473,-0.376,-71.366,15.070,26.634
1747656564.79,-0.258,0.042,-0.071,-1.167,-0.270,-0.451,-72.070,14.671,26.440
1747656564.80,-0.298,0.004,-0.073,-1.231,-0.068,-0.436,-72.795,14.334,26.203
1747656564.81,-0.257,-0.069,-0.075,-1.279,0.102,-0.376,-73.551,14.189,26.041
1747656564.82,-0.165,-0.139,-0.088,-1.269,0.205,-0.344,-74.304,14.213,25.977
1747656564.83,-0.069,-0.168,-0.088,-1.331,0.164,-0.325,-75.071,14.308,25.965
1747656564.84,-0.000,-0.145,-0.041,-1.296,0.180,-0.294,-75.847,14.465,26.038
1747656564.85,0.043,-0.076,0.008,-1.183,0.257,-0.293,-76.573,14.666,26.119
1747656564.86,0.021,0.017,0.062,-1.042,0.328,-0.335,-77.233,14.785,26.062
1747656564.87,-0.081,0.108,0.065,-0.915,0.320,-0.383,-77.825,14.722,25.806
1747656564.88,-0.199,0.156,-0.004,-0.808,0.374,-0.437,-78.359,14.431,25.307
1747656564.89,-0.260,0.139,-0.094,-0.782,0.539,-0.489,-78.859,13.960,24.563
1747656564.90,-0.235,0.072,-0.087,-0.817,0.736,-0.527,-79.371,13.407,23.622
1747656564.91,-0.154,0.000,-0.005,-0.870,0.918,-0.517,-79.908,12.881,22.604
1747656564.92,-0.039,-0.037,0.033,-0.967,0.982,-0.474,-80.480,12.495,21.655
1747656564.93,0.068,-0.031,0.077,-1.071,0.909,-0.418,-81.105,12.280,20.886
1747656564.94,0.136,-0.011,0.104,-1.131,0.780,-0.365,-81.768,12.193,20.293
1747656564.95,0.192,-0.012,0.096,-1.113,0.631,-0.286,-82.437,12.261,19.952
1747656564.96,0.273,-0.039,0.061,-1.011,0.349,-0.181,-83.061,12.549,19.943
1747656564.97,0.339,-0.087,-0.028,-0.888,0.087,-0.106,-83.606,13.036,20.311
1747656564.98,0.344,-0.117,-0.113,-0.798,-0.071,-0.140,-84.089,13.462,20.719
1747656564.99,0.266,-0.086,-0.115,-0.693,-0.149,-0.276,-84.531,13.257,20.578
1747656565.00,0.106,-0.004,-0.110,-0.630,-0.182,-0.477,-84.942,11.771,19.167
1747656565.01,-0.076,0.087,-0.095,-0.709,-0.140,-0.685,-85.371,8.566,15.991
1747656565.02,-0.213,0.148,-0.020,-0.896,-0.122,-0.741,-85.872,3.789,11.270
1747656565.03,-0.307,0.140,0.099,-0.959,-0.179,-0.689,-86.414,-2.311,5.210
1747656565.04,-0.396,0.079,0.105,-0.894,-0.031,-0.568,-86.906,-9.444,-1.866
1747656565.05,-0.426,-0.014,0.071,-0.909,0.257,-0.455,-87.335,-17.376,-9.901
1747656565.06,-0.330,-0.120,0.089,-1.003,0.509,-0.346,-87.756,-26.926,-19.680
1747656565.07,-0.168,-0.198,0.084,-1.033,0.692,-0.240,-88.157,-39.506,-32.653
1747656565.08,0.009,-0.225,0.067,-1.033,0.786,-0.179,-88.466,-56.638,-50.219
1747656565.09,0.132,-0.173,0.064,-1.056,0.741,-0.170,-88.601,-79.478,-73.551
1747656565.10,0.163,-0.060,0.096,-0.936,0.533,-0.177,-88.494,-101.926,-96.375
1747656565.11,0.133,0.053,0.067,-0.722,0.267,-0.220,-88.231,-116.093,-110.811
1747656565.12,0.071,0.123,-0.058,-0.623,0.204,-0.311,-87.911,-123.511,-118.360
1747656565.13,0.025,0.134,-0.072,-0.609,0.253,-0.356,-87.549,-127.722,-122.750
1747656565.14,0.031,0.096,-0.029,-0.627,0.207,-0.333,-87.172,-130.810,-125.977
1747656565.15,0.047,0.020,-0.068,-0.635,0.086,-0.291,-86.798,-133.532,-128.834
1747656565.16,0.046,-0.015,-0.108,-0.641,-0.017,-0.255,-86.430,-136.040,-131.364
1747656565.17,0.047,-0.029,-0.123,-0.612,-0.025,-0.230,-86.073,-138.238,-133.593
1747656565.18,0.065,-0.038,-0.089,-0.591,-0.041,-0.206,-85.733,-140.056,-135.400
1747656565.19,0.083,-0.036,-0.014,-0.541,-0.153,-0.180,-85.413,-141.650,-136.989
1747656565.20,0.083,-0.025,-0.003,-0.477,-0.354,-0.182,-85.120,-142.963,-138.161
1747656565.21,0.052,-0.012,-0.041,-0.417,-0.398,-0.196,-84.851,-143.937,-138.950
1747656565.22,0.035,-0.002,-0.068,-0.328,-0.272,-0.200,-84.609,-144.490,-139.311
1747656565.23,0.039,0.001,-0.035,-0.183,-0.153,-0.169,-84.429,-144.583,-139.324
1747656565.24,0.032,0.016,-0.047,-0.100,-0.056,-0.131,-84.316,-144.405,-139.085
1747656565.25,-0.007,0.052,-0.060,-0.065,0.057,-0.100,-84.242,-144.142,-138.869
1747656565.26,-0.060,0.077,-0.040,-0.070,0.089,-0.085,-84.181,-143.890,-138.661
1747656565.27,-0.109,0.070,-0.007,-0.093,0.072,-0.072,-84.116,-143.760,-138.606
1747656565.28,-0.132,0.036,0.012,-0.083,0.070,-0.050,-84.053,-143.750,-138.636
1747656565.29,-0.122,-0.004,0.010,0.003,0.104,-0.022,-84.022,-143.674,-138.643
1747656565.30,-0.096,-0.034,-0.012,0.074,0.174,-0.003,-84.038,-143.404,-138.451
1747656565.31,-0.079,-0.038,-0.011,0.035,0.270,0.007,-84.068,-143.091,-138.305
1747656565.32,-0.067,-0.017,0.027,-0.049,0.387,-0.001,-84.065,-142.956,-138.358
1747656565.33,-0.052,0.010,0.056,-0.065,0.473,-0.022,-84.033,-142.863,-138.565
1747656565.34,-0.043,0.018,0.059,-0.043,0.481,-0.045,-83.997,-142.616,-138.593
1747656565.35,-0.031,0.012,0.044,-0.030,0.451,-0.048,-83.964,-142.265,-138.547
1747656565.36,-0.004,-0.009,0.045,-0.035,0.408,-0.022,-83.937,-141.965,-138.493
1747656565.37,0.034,-0.037,0.054,-0.029,0.325,0.014,-83.921,-141.848,-138.628
1747656565.38,0.070,-0.050,0.053,-0.013,0.233,0.021,-83.919,-141.839,-138.778
1747656565.39,0.080,-0.038,0.033,-0.030,0.108,-0.014,-83.912,-141.831,-138.912
1747656565.40,0.065,-0.011,0.026,-0.051,-0.066,-0.051,-83.881,-141.816,-138.909
1747656565.41,0.044,0.009,0.008,-0.049,-0.150,-0.064,-83.834,-141.813,-138.883
1747656565.42,0.037,0.016,-0.002,-0.016,-0.186,-0.069,-83.792,-141.750,-138.723
1747656565.43,0.021,0.026,0.003,0.015,-0.190,-0.074,-83.764,-141.561,-138.464
1747656565.44,-0.004,0.027,0.004,0.018,-0.133,-0.058,-83.749,-141.319,-138.126
1747656565.45,-0.013,0.008,0.012,-0.007,-0.083,-0.057,-83.731,-141.121,-137.907
1747656565.46,-0.025,-0.025,0.026,-0.038,-0.069,-0.067,-83.699,-140.989,-137.732
1747656565.47,-0.031,-0.043,0.031,-0.062,-0.085,-0.069,-83.652,-140.918,-137.645
1747656565.48,-0.021,-0.038,0.028,-0.089,-0.115,-0.066,-83.596,-141.015,-137.682
1747656565.49,-0.017,-0.021,0.032,-0.061,-0.090,-0.044,-83.545,-141.154,-137.797
1747656565.50,-0.016,-0.004,0.027,-0.002,-0.083,-0.023,-83.523,-141.202,-137.796
1747656565.51,-0.025,0.012,-0.000,0.027,-0.103,-0.004,-83.527,-141.175,-137.749
1747656565.52,-0.045,0.023,-0.021,0.021,-0.051,0.000,-83.538,-141.137,-137.665
1747656565.53,-0.047,0.011,-0.020,0.023,0.041,0.000,-83.546,-141.080,-137.643
1747656565.54,-0.033,-0.006,-0.011,0.079,0.136,-0.002,-83.562,-140.872,-137.485
1747656565.55,-0.014,-0.009,-0.011,0.145,0.170,-0.003,-83.601,-140.397,-137.137
1747656565.56,-0.000,0.006,-0.021,0.162,0.133,0.005,-83.657,-139.798,-136.625
1747656565.57,0.001,0.018,-0.011,0.128,0.057,0.030,-83.710,-139.349,-136.270
1747656565.58,-0.002,0.019,-0.005,0.079,-0.018,0.068,-83.756,-139.228,-136.157
1747656565.59,-0.012,0.010,-0.017,0.066,-0.076,0.079,-83.805,-139.240,-136.183
1747656565.60,-0.029,-0.005,-0.028,0.070,-0.075,0.074,-83.856,-139.187,-136.084
1747656565.61,-0.041,-0.018,-0.019,0.086,0.007,0.069,-83.907,-139.062,-135.975
1747656565.62,-0.021,-0.029,0.010,0.114,0.116,0.064,-83.966,-138.821,-135.769
1747656565.63,0.008,-0.025,0.034,0.137,0.151,0.063,-84.041,-138.484,-135.550
1747656565.64,0.020,-0.006,0.032,0.159,0.122,0.048,-84.130,-138.036,-135.180
1747656565.65,0.012,0.010,0.019,0.165,0.055,0.026,-84.216,-137.500,-134.736
1747656565.66,0.002,0.018,0.017,0.135,-0.033,0.024,-84.287,-137.007,-134.246
1747656565.67,-0.002,0.013,0.022,0.128,-0.083,0.040,-84.352,-136.588,-133.823
1747656565.68,-0.002,-0.008,0.018,0.153,-0.101,0.059,-84.425,-136.108,-133.288
1747656565.69,-0.004,-0.029,0.013,0.174,-0.111,0.078,-84.508,-135.601,-132.761
1747656565.70,-0.005,-0.035,0.004,0.175,-0.095,0.089,-84.596,-135.274,-132.373
1747656565.71,0.001,-0.024,0.003,0.180,-0.090,0.098,-84.691,-135.160,-132.242
1747656565.72,0.006,0.005,0.002,0.199,-0.096,0.097,-84.797,-135.050,-132.077
1747656565.73,-0.002,0.033,-0.001,0.220,-0.091,0.087,-84.913,-134.718,-131.723
1747656565.74,-0.018,0.039,0.012,0.254,-0.053,0.080,-85.033,-134.124,-131.084
1747656565.75,-0.030,0.017,0.033,0.314,-0.037,0.081,-85.167,-133.236,-130.192
1747656565.76,-0.034,-0.011,0.026,0.368,-0.041,0.096,-85.326,-132.002,-128.930
1747656565.77,-0.031,-0.021,0.005,0.374,-0.066,0.121,-85.503,-130.611,-127.533
1747656565.78,-0.027,-0.016,-0.003,0.376,-0.068,0.135,-85.686,-129.178,-126.056
1747656565.79,-0.023,-0.007,-0.008,0.388,-0.033,0.151,-85.877,-127.655,-124.537
1747656565.80,-0.006,0.003,-0.006,0.400,0.024,0.175,-86.082,-125.974,-122.850
1747656565.81,0.021,0.007,-0.004,0.418,0.006,0.186,-86.300,-123.974,-120.888
1747656565.82,0.026,0.007,0.006,0.460,-0.082,0.204,-86.528,-121.604,-118.493
1747656565.83,0.012,0.011,0.000,0.528,-0.160,0.204,-86.770,-118.495,-115.330
1747656565.84,-0.003,0.006,-0.027,0.562,-0.176,0.192,-87.011,-114.364,-111.095
1747656565.85,-0.010,-0.009,-0.019,0.566,-0.126,0.190,-87.232,-109.302,-105.963
1747656565.86,-0.003,-0.025,0.003,0.593,-0.113,0.178,-87.426,-103.216,-99.807
1747656565.87,0.003,-0.037,-0.017,0.673,-0.150,0.174,-87.584,-95.512,-92.040
1747656565.88,-0.004,-0.029,-0.061,0.799,-0.156,0.165,-87.684,-85.443,-81.886
1747656565.89,-0.011,-0.012,-0.089,0.874,-0.096,0.159,-87.686,-73.338,-69.698
1747656565.90,-0.018,0.009,-0.086,0.860,0.032,0.170,-87.581,-61.413,-57.753
1747656565.91,-0.007,0.034,-0.051,0.895,0.121,0.193,-87.386,-50.613,-46.991
1747656565.92,-0.008,0.050,-0.038,0.958,0.116,0.191,-87.095,-41.053,-37.497
1747656565.93,-0.055,0.065,-0.052,0.973,0.156,0.165,-86.714,-33.268,-29.776
1747656565.94,-0.102,0.059,-0.035,0.912,0.268,0.146,-86.291,-27.434,-24.050
1747656565.95,-0.107,0.015,0.030,0.851,0.482,0.167,-85.874,-22.932,-19.751
1747656565.96,-0.071,-0.047,0.099,0.817,0.638,0.189,-85.466,-19.093,-16.244
1747656565.97,-0.049,-0.093,0.124,0.810,0.653,0.206,-85.058,-15.744,-13.256
1747656565.98,-0.062,-0.098,0.056,0.854,0.574,0.203,-84.627,-12.846,-10.718
1747656565.99,-0.078,-0.072,-0.009,0.889,0.493,0.190,-84.161,-10.404,-8.567
1747656566.00,-0.078,-0.033,-0.006,0.879,0.496,0.201,-83.678,-8.328,-6.774
1747656566.01,-0.056,0.011,0.046,0.800,0.568,0.225,-83.217,-6.426,-5.165
1747656566.02,-0.039,0.037,0.102,0.785,0.587,0.217,-82.784,-4.693,-3.779
1747656566.03,-0.053,0.030,0.081,0.885,0.499,0.161,-82.318,-3.299,-2.686
1747656566.04,-0.099,0.007,-0.026,0.956,0.526,0.117,-81.792,-2.275,-1.957
1747656566.05,-0.113,-0.026,-0.050,0.887,0.666,0.095,-81.264,-1.422,-1.438
1747656566.06,-0.085,-0.069,0.039,0.770,0.755,0.081,-80.794,-0.646,-1.102
1747656566.07,-0.060,-0.084,0.086,0.765,0.684,0.062,-80.361,0.029,-0.840
1747656566.08,-0.040,-0.040,0.009,0.852,0.520,0.043,-79.900,0.530,-0.704
1747656566.09,-0.020,0.039,-0.075,0.927,0.450,0.042,-79.389,0.889,-0.615
1747656566.10,0.025,0.085,-0.024,0.939,0.506,0.088,-78.854,1.294,-0.518
1747656566.11,0.104,0.077,0.099,0.946,0.560,0.130,-78.315,1.842,-0.272
1747656566.12,0.155,0.034,0.145,0.971,0.531,0.149,-77.764,2.440,-0.028
1747656566.13,0.158,-0.020,0.133,0.963,0.302,0.158,-77.206,2.962,0.257
1747656566.14,0.130,-0.058,0.125,0.875,0.033,0.165,-76.675,3.322,0.492
1747656566.15,0.052,-0.063,0.084,0.769,-0.032,0.190,-76.200,3.619,0.805
1747656566.16,-0.006,-0.049,0.047,0.671,0.002,0.217,-75.784,3.965,1.132
1747656566.17,-0.018,-0.009,0.048,0.663,0.020,0.251,-75.400,4.385,1.559
1747656566.18,0.001,0.042,0.055,0.814,0.060,0.278,-74.971,4.856,1.987
1747656566.19,0.044,0.073,0.062,1.027,0.037,0.273,-74.433,5.296,2.410
1747656566.20,0.075,0.087,0.044,1.114,-0.051,0.218,-73.803,5.579,2.662
1747656566.21,0.052,0.087,0.019,1.073,-0.056,0.137,-73.171,5.679,2.801
1747656566.22,-0.005,0.067,0.060,1.102,-0.021,0.058,-72.552,5.631,2.726
1747656566.23,-0.077,0.032,0.061,1.075,0.030,0.001,-71.925,5.496,2.579
1747656566.24,-0.166,0.001,0.030,0.944,-0.048,-0.035,-71.351,5.298,2.323
1747656566.25,-0.274,-0.001,0.005,0.821,-0.020,-0.020,-70.853,5.086,2.130
1747656566.26,-0.345,0.006,-0.081,0.756,0.263,-0.002,-70.407,5.023,1.962
1747656566.27,-0.321,0.001,-0.049,0.755,0.525,0.015,-69.978,5.157,1.860
1747656566.28,-0.256,-0.016,-0.010,0.772,0.633,0.038,-69.543,5.424,1.757
1747656566.29,-0.164,-0.045,-0.023,0.810,0.622,0.046,-69.092,5.735,1.703
1747656566.30,-0.069,-0.056,-0.016,0.917,0.541,-0.001,-68.603,5.977,1.566
1747656566.31,0.006,-0.038,-0.013,1.066,0.489,-0.133,-68.042,6.034,1.312
1747656566.32,0.054,0.004,-0.041,1.165,0.459,-0.324,-67.421,5.826,0.757
1747656566.33,0.056,0.048,-0.000,1.242,0.457,-0.474,-66.758,5.386,-0.007
1747656566.34,0.011,0.063,0.090,1.297,0.410,-0.509,-66.060,4.837,-0.904
1747656566.35,-0.069,0.043,0.059,1.255,0.409,-0.414,-65.351,4.345,-1.695
1747656566.36,-0.143,-0.001,-0.035,1.097,0.483,-0.275,-64.693,4.076,-2.300
1747656566.37,-0.169,-0.047,-0.049,0.977,0.510,-0.149,-64.115,4.022,-2.673
1747656566.38,-0.159,-0.081,-0.127,0.937,0.601,-0.062,-63.575,4.138,-2.938
1747656566.39,-0.072,-0.092,-0.148,0.989,0.636,0.003,-63.032,4.385,-3.063
1747656566.40,0.074,-0.091,-0.045,1.159,0.554,0.057,-62.421,4.670,-3.166
1747656566.41,0.203,-0.084,-0.022,1.269,0.434,0.080,-61.721,4.919,-3.203
1747656566.42,0.289,-0.070,-0.011,1.232,0.352,0.036,-61.003,5.094,-3.302
1747656566.43,0.312,-0.056,0.102,1.184,0.269,0.023,-60.316,5.182,-3.403
1747656566.44,0.264,-0.071,0.148,1.155,0.190,0.093,-59.647,5.263,-3.499
1747656566.45,0.164,-0.091,0.031,1.077,0.162,0.169,-59.001,5.385,-3.469
1747656566.46,0.075,-0.082,-0.086,0.905,0.191,0.233,-58.426,5.587,-3.400
1747656566.47,0.055,-0.041,-0.025,0.859,0.137,0.282,-57.917,5.845,-3.212
1747656566.48,0.074,0.008,0.053,0.985,0.013,0.297,-57.379,6.059,-3.053
1747656566.49,0.123,0.070,0.019,1.195,-0.015,0.321,-56.743,6.223,-2.855
1747656566.50,0.186,0.104,0.036,1.352,-0.053,0.296,-55.993,6.355,-2.728
1747656566.51,0.173,0.112,0.058,1.255,-0.165,0.256,-55.227,6.397,-2.600
1747656566.52,0.062,0.091,0.107,1.055,-0.160,0.242,-54.557,6.394,-2.527
1747656566.53,-0.046,0.042,0.127,0.943,-0.094,0.259,-53.977,6.431,-2.392
1747656566.54,-0.100,-0.008,0.081,0.871,-0.038,0.301,-53.443,6.527,-2.255
1747656566.55,-0.102,-0.042,0.014,0.804,0.050,0.362,-52.949,6.708,-2.033
1747656566.56,-0.029,-0.045,0.012,0.827,0.026,0.446,-52.460,6.963,-1.777
1747656566.57,0.060,-0.046,0.036,0.886,-0.128,0.449,-51.944,7.189,-1.459
1747656566.58,0.143,-0.000,0.021,0.989,-0.317,0.447,-51.383,7.297,-1.196
1747656566.59,0.144,0.056,0.010,1.160,-0.377,0.374,-50.743,7.294,-0.937
1747656566.60,0.109,0.118,0.020,1.278,-0.382,0.267,-50.026,7.186,-0.837
1747656566.61,0.064,0.169,0.070,1.266,-0.323,0.211,-49.284,7.032,-0.770
1747656566.62,-0.029,0.153,0.059,1.165,-0.205,0.199,-48.580,6.915,-0.758
1747656566.63,-0.098,0.104,0.030,1.061,-0.136,0.229,-47.934,6.868,-0.693
1747656566.64,-0.150,0.027,-0.009,0.984,-0.054,0.300,-47.339,6.899,-0.615
1747656566.65,-0.121,-0.049,-0.002,0.963,0.034,0.383,-46.766,7.029,-0.430
1747656566.66,-0.016,-0.104,0.031,1.027,0.025,0.442,-46.175,7.225,-0.215
1747656566.67,0.071,-0.120,0.022,1.132,-0.138,0.472,-45.530,7.383,0.043
1747656566.68,0.103,-0.105,-0.023,1.192,-0.228,0.410,-44.834,7.448,0.273
1747656566.69,0.099,-0.066,-0.018,1.225,-0.265,0.285,-44.125,7.407,0.422
1747656566.70,0.109,-0.018,0.043,1.232,-0.229,0.210,-43.410,7.310,0.470
1747656566.71,0.056,-0.016,0.062,1.205,-0.191,0.188,-42.703,7.216,0.502
1747656566.72,-0.021,-0.018,0.010,1.110,-0.176,0.199,-42.031,7.131,0.520
1747656566.73,-0.108,-0.036,-0.056,1.007,-0.082,0.258,-41.417,7.104,0.593
1747656566.74,-0.147,-0.062,-0.029,0.969,0.093,0.324,-40.839,7.190,0.715
1747656566.75,-0.088,-0.072,-0.007,0.977,0.161,0.370,-40.264,7.377,0.883
1747656566.76,0.015,-0.056,-0.008,1.021,0.131,0.396,-39.670,7.584,1.060
1747656566.76,0.079,-0.028,0.013,1.079,0.029,0.387,-39.045,7.747,1.270
1747656566.78,0.104,-0.006,0.046,1.150,-0.039,0.394,-38.386,7.849,1.442
1747656566.79,0.116,0.013,0.092,1.215,-0.040,0.413,-37.684,7.930,1.639
1747656566.79,0.116,0.026,0.153,1.257,-0.018,0.433,-36.950,8.022,1.816
1747656566.81,0.085,0.028,0.126,1.213,0.010,0.449,-36.213,8.132,2.038
1747656566.82,0.026,0.024,0.031,1.124,-0.038,0.458,-35.514,8.241,2.236
1747656566.83,-0.058,0.003,-0.053,1.028,-0.033,0.479,-34.870,8.340,2.479
1747656566.84,-0.080,-0.007,-0.065,1.034,0.049,0.495,-34.252,8.475,2.710
1747656566.84,-0.046,-0.021,0.013,1.155,0.143,0.470,-33.595,8.654,2.956
1747656566.85,-0.020,-0.002,0.036,1.274,0.142,0.407,-32.870,8.831,3.127
1747656566.86,-0.040,0.049,0.031,1.337,0.108,0.336,-32.098,8.961,3.268
1747656566.88,-0.084,0.097,0.042,1.374,0.091,0.285,-31.308,9.050,3.331
1747656566.88,-0.117,0.134,0.083,1.409,0.136,0.266,-30.497,9.130,3.395
1747656566.89,-0.092,0.132,0.096,1.417,0.145,0.255,-29.676,9.225,3.415
1747656566.90,-0.057,0.136,0.065,1.429,0.069,0.230,-28.851,9.292,3.445
1747656566.91,-0.076,0.136,-0.017,1.403,0.036,0.229,-28.030,9.316,3.441
1747656566.92,-0.094,0.086,-0.058,1.366,0.033,0.207,-27.229,9.334,3.443
1747656566.93,-0.088,0.027,-0.037,1.330,0.047,0.165,-26.453,9.346,3.423
1747656566.94,-0.106,-0.025,-0.015,1.355,0.109,0.114,-25.684,9.365,3.384
1747656566.95,-0.125,-0.064,0.004,1.385,0.172,0.076,-24.902,9.412,3.303
1747656566.96,-0.121,-0.068,0.014,1.385,0.219,0.040,-24.115,9.480,3.218
1747656566.97,-0.099,-0.031,0.046,1.397,0.246,0.043,-23.330,9.569,3.101
1747656566.98,-0.038,0.024,0.082,1.488,0.325,0.024,-22.517,9.669,2.989
1747656566.99,0.012,0.069,0.087,1.579,0.221,-0.014,-21.647,9.767,2.826
1747656567.00,0.038,0.113,0.052,1.573,0.136,0.009,-20.757,9.808,2.663
1747656567.01,0.030,0.116,0.010,1.509,0.092,0.044,-19.886,9.821,2.519
1747656567.02,-0.011,0.079,-0.003,1.438,0.100,0.082,-19.051,9.837,2.408
1747656567.03,-0.028,0.036,-0.001,1.437,0.204,0.143,-18.234,9.898,2.327
1747656567.04,0.017,0.016,0.032,1.443,0.219,0.151,-17.409,10.003,2.274
1747656567.05,0.069,0.011,0.048,1.476,0.243,0.152,-16.574,10.116,2.211
1747656567.06,0.107,0.032,0.089,1.509,0.227,0.167,-15.718,10.236,2.141
1747656567.07,0.120,0.051,0.093,1.536,0.125,0.184,-14.842,10.324,2.083
1747656567.08,0.103,0.040,0.055,1.515,0.025,0.210,-13.965,10.352,2.023
1747656567.09,0.080,-0.006,0.035,1.564,0.066,0.277,-13.080,10.367,2.003
1747656567.10,0.108,-0.036,0.041,1.625,0.150,0.307,-12.150,10.433,1.997
1747656567.11,0.102,-0.056,0.033,1.499,0.207,0.310,-11.234,10.536,2.007
1747656567.12,0.044,-0.067,-0.001,1.424,0.298,0.332,-10.390,10.684,2.027
1747656567.13,0.005,-0.078,-0.028,1.537,0.369,0.349,-9.523,10.878,2.060
1747656567.14,-0.041,-0.075,0.005,1.594,0.659,0.299,-8.609,11.154,2.071
1747656567.15,-0.022,-0.070,0.118,1.490,0.471,0.277,-7.702,11.468,2.046
1747656567.16,0.060,-0.058,0.090,1.441,0.337,0.367,-6.852,11.706,2.063
1747656567.17,0.183,-0.039,0.035,1.455,0.186,0.397,-5.997,11.855,2.112
1747656567.18,0.216,-0.031,-0.018,1.444,0.113,0.410,-5.138,11.946,2.201
1747656567.19,0.198,-0.015,0.038,1.396,0.057,0.417,-4.296,11.999,2.264
1747656567.20,0.086,0.011,0.007,1.399,0.097,0.411,-3.467,12.044,2.353
1747656567.21,-0.062,0.064,0.000,1.411,0.200,0.427,-2.631,12.131,2.418
1747656567.22,-0.159,0.088,0.034,1.415,0.321,0.449,-1.792,12.282,2.519
1747656567.23,-0.190,0.094,0.003,1.434,0.380,0.454,-0.939,12.487,2.597
1747656567.24,-0.198,0.098,-0.059,1.410,0.396,0.432,-0.092,12.710,2.700
1747656567.25,-0.167,0.120,-0.100,1.436,0.322,0.380,0.751,12.920,2.747
1747656567.26,-0.082,0.123,-0.084,1.461,0.174,0.344,1.603,13.063,2.790
1747656567.27,0.014,0.128,-0.078,1.508,-0.021,0.317,2.472,13.107,2.783
1747656567.28,0.092,0.172,-0.049,1.505,-0.206,0.255,3.351,13.042,2.773
1747656567.29,0.092,0.189,-0.004,1.554,-0.300,0.190,4.228,12.898,2.700
1747656567.30,0.059,0.120,0.004,1.605,-0.324,0.164,5.132,12.728,2.605
1747656567.31,0.018,-0.019,0.031,1.535,-0.203,0.168,6.030,12.582,2.499
1747656567.32,-0.022,-0.062,0.036,1.520,-0.078,0.156,6.899,12.518,2.416
1747656567.33,-0.037,-0.088,0.007,1.498,0.074,0.142,7.761,12.525,2.310
1747656567.34,-0.066,-0.097,-0.030,1.514,0.252,0.149,8.615,12.639,2.225
1747656567.35,-0.054,-0.046,-0.046,1.527,0.276,0.189,9.486,12.809,2.125
1747656567.36,-0.074,0.083,-0.037,1.520,0.251,0.209,10.359,12.977,2.051
1747656567.37,-0.042,0.152,-0.025,1.519,0.128,0.202,11.232,13.105,1.968
1747656567.38,0.030,0.130,-0.056,1.519,-0.023,0.222,12.108,13.149,1.887
1747656567.39,0.105,0.105,-0.078,1.531,-0.178,0.214,12.982,13.109,1.810
1747656567.40,0.155,0.013,-0.077,1.534,-0.250,0.137,13.860,13.008,1.721
1747656567.41,0.133,-0.006,-0.064,1.479,-0.303,0.029,14.710,12.886,1.571
1747656567.42,0.088,-0.014,-0.046,1.452,-0.283,-0.010,15.528,12.765,1.388
1747656567.43,0.052,-0.077,-0.075,1.426,-0.223,-0.011,16.326,12.675,1.193
1747656567.44,0.024,-0.118,-0.111,1.416,-0.180,0.022,17.119,12.612,1.026
1747656567.45,-0.044,-0.035,-0.135,1.406,-0.043,0.030,17.909,12.598,0.859
1747656567.46,-0.084,0.067,-0.124,1.430,0.056,0.063,18.705,12.645,0.695
1747656567.47,-0.096,0.149,-0.139,1.364,0.108,0.011,19.486,12.744,0.531
1747656567.48,-0.148,0.163,-0.109,1.343,0.145,0.030,20.245,12.880,0.349
1747656567.49,-0.085,0.093,-0.132,1.287,0.069,0.019,20.980,13.000,0.187
1747656567.50,0.026,-0.010,-0.140,1.234,-0.033,-0.048,21.681,13.076,0.000
1747656567.51,0.099,-0.051,-0.135,1.161,-0.171,-0.145,22.336,13.104,-0.226
1747656567.52,0.099,-0.087,-0.118,1.086,-0.214,-0.183,22.938,13.088,-0.490
1747656567.53,0.026,-0.161,-0.091,0.961,-0.154,-0.180,23.487,13.084,-0.745
1747656567.54,-0.007,-0.189,-0.133,0.843,-0.084,-0.148,23.964,13.105,-0.972
1747656567.55,-0.010,-0.204,-0.180,0.772,0.082,-0.130,24.398,13.184,-1.170
1747656567.56,-0.004,-0.161,-0.169,0.651,0.221,-0.149,24.774,13.351,-1.355
1747656567.57,-0.012,-0.089,-0.186,0.564,0.279,-0.152,25.093,13.569,-1.539
1747656567.58,-0.025,-0.109,-0.182,0.381,0.252,-0.093,25.338,13.789,-1.689
1747656567.59,-0.052,-0.162,-0.093,0.300,0.276,0.021,25.523,13.968,-1.759
1747656567.60,-0.047,-0.178,-0.010,0.101,0.223,-0.024,25.638,14.130,-1.771
1747656567.61,0.123,-0.213,-0.124,-0.029,0.086,-0.011,25.652,14.225,-1.773
1747656567.62,0.227,-0.315,-0.234,-0.178,0.082,0.049,25.600,14.256,-1.744
1747656567.63,0.176,-0.280,-0.223,-0.306,0.180,0.092,25.474,14.295,-1.665
1747656567.64,0.063,-0.191,-0.206,-0.465,0.235,0.132,25.279,14.358,-1.535
1747656567.65,0.012,-0.239,-0.187,-0.656,0.278,0.172,24.989,14.430,-1.343
1747656567.66,0.038,-0.291,-0.168,-0.800,0.267,0.200,24.613,14.492,-1.114
1747656567.67,0.104,-0.262,-0.153,-0.954,0.212,0.216,24.158,14.520,-0.830
1747656567.68,0.130,-0.240,-0.144,-1.102,0.155,0.207,23.619,14.507,-0.541
1747656567.69,0.131,-0.239,-0.159,-1.247,0.154,0.198,23.000,14.472,-0.223
1747656567.70,0.137,-0.246,-0.199,-1.404,0.189,0.221,22.296,14.442,0.106
1747656567.71,0.128,-0.254,-0.200,-1.528,0.193,0.309,21.523,14.410,0.500
1747656567.72,0.102,-0.252,-0.198,-1.681,0.207,0.367,20.685,14.364,0.948
1747656567.73,0.114,-0.210,-0.181,-1.818,0.157,0.328,19.763,14.308,1.440
1747656567.74,0.152,-0.146,-0.230,-1.873,0.104,0.310,18.786,14.229,1.900
1747656567.75,0.153,-0.112,-0.209,-1.947,0.111,0.314,17.772,14.144,2.388
1747656567.76,0.122,-0.087,-0.111,-2.009,0.101,0.288,16.718,14.066,2.852
1747656567.77,0.031,-0.041,-0.104,-2.077,0.159,0.282,15.624,14.010,3.358
1747656567.78,-0.032,-0.001,-0.119,-2.118,0.240,0.304,14.502,14.004,3.825
1747656567.79,-0.020,0.019,-0.128,-2.156,0.262,0.332,13.361,14.032,4.373
1747656567.80,0.008,0.033,-0.152,-2.163,0.296,0.296,12.207,14.081,4.863
1747656567.81,-0.001,0.061,-0.145,-2.174,0.343,0.180,11.040,14.173,5.385
1747656567.82,-0.076,0.089,-0.112,-2.155,0.384,0.043,9.855,14.314,5.757
1747656567.83,-0.172,0.086,-0.109,-2.144,0.376,-0.062,8.667,14.483,6.133
1747656567.84,-0.226,0.050,-0.113,-2.172,0.318,-0.121,7.460,14.645,6.394
1747656567.85,-0.195,0.010,-0.105,-2.195,0.254,-0.171,6.232,14.779,6.704
1747656567.86,-0.101,-0.017,-0.086,-2.168,0.165,-0.200,4.998,14.879,6.921
1747656567.87,0.003,-0.046,-0.039,-2.126,0.048,-0.254,3.782,14.923,7.202
1747656567.88,0.064,-0.068,-0.063,-2.082,-0.042,-0.375,2.574,14.917,7.340
1747656567.89,0.067,-0.063,-0.052,-2.013,-0.113,-0.488,1.381,14.868,7.486
1747656567.90,0.015,-0.061,-0.004,-2.046,-0.101,-0.530,0.190,14.805,7.498
1747656567.91,-0.019,-0.068,0.015,-2.131,-0.039,-0.529,-1.040,14.763,7.595
1747656567.92,-0.018,-0.074,0.036,-2.187,0.052,-0.466,-2.308,14.767,7.633
1747656567.93,-0.015,-0.106,0.092,-2.178,0.119,-0.372,-3.576,14.821,7.819
1747656567.94,0.014,-0.160,0.058,-2.120,0.190,-0.342,-4.813,14.917,7.941
1747656567.95,0.007,-0.162,0.079,-2.101,0.304,-0.367,-6.026,15.068,8.153
1747656567.96,-0.007,-0.140,0.125,-2.131,0.357,-0.440,-7.253,15.274,8.251
1747656567.97,-0.008,-0.111,0.035,-2.140,0.252,-0.505,-8.502,15.458,8.408
1747656567.98,-0.037,-0.077,-0.017,-2.181,0.197,-0.485,-9.767,15.592,8.462
1747656567.99,-0.006,-0.068,0.016,-2.199,0.130,-0.389,-11.039,15.707,8.653
1747656568.00,0.100,-0.067,0.017,-2.221,0.087,-0.275,-12.307,15.798,8.818
1747656568.01,0.179,-0.051,0.070,-2.192,0.069,-0.213,-13.558,15.893,9.114
1747656568.02,0.227,-0.025,0.127,-2.159,-0.057,-0.230,-14.785,15.954,9.341
1747656568.03,0.178,0.008,0.128,-2.184,-0.142,-0.239,-16.015,15.950,9.638
1747656568.04,0.093,0.005,0.125,-2.124,-0.085,-0.196,-17.234,15.948,9.867
1747656568.05,0.051,-0.036,0.062,-2.084,-0.080,-0.153,-18.414,15.979,10.155
1747656568.06,0.006,-0.073,0.018,-2.085,-0.094,-0.121,-19.579,16.017,10.423
1747656568.07,-0.032,-0.103,0.010,-2.121,-0.085,-0.078,-20.749,16.066,10.768
1747656568.08,-0.035,-0.123,0.052,-2.139,-0.068,-0.010,-21.927,16.144,11.104
1747656568.09,-0.012,-0.128,0.121,-2.087,-0.006,0.074,-23.082,16.268,11.542
1747656568.10,0.040,-0.112,0.140,-2.068,-0.005,0.117,-24.202,16.438,11.965
1747656568.11,0.095,-0.070,0.116,-2.014,-0.036,0.115,-25.305,16.609,12.446
1747656568.12,0.102,-0.032,0.087,-1.918,-0.045,0.104,-26.360,16.770,12.871
1747656568.13,0.097,-0.025,0.056,-1.929,-0.103,0.065,-27.395,16.916,13.318
1747656568.14,0.093,-0.045,-0.000,-1.962,-0.273,0.019,-28.451,16.995,13.711
1747656568.15,0.075,-0.077,0.002,-1.953,-0.386,0.009,-29.519,16.986,14.135
1747656568.16,0.061,-0.110,0.054,-1.956,-0.413,0.038,-30.582,16.955,14.526
1747656568.17,0.076,-0.130,0.103,-1.992,-0.526,0.067,-31.651,16.905,14.995
1747656568.18,0.075,-0.126,0.084,-2.021,-0.533,0.104,-32.735,16.833,15.444
1747656568.19,0.040,-0.106,0.071,-1.915,-0.383,0.110,-33.798,16.826,15.966
1747656568.20,-0.013,-0.065,0.053,-1.782,-0.351,0.049,-34.792,16.861,16.390
1747656568.21,-0.149,-0.007,0.038,-1.721,-0.382,-0.026,-35.746,16.861,16.806
1747656568.22,-0.281,0.039,-0.018,-1.671,-0.382,-0.099,-36.683,16.820,17.110
1747656568.23,-0.331,0.059,-0.064,-1.662,-0.292,-0.127,-37.611,16.783,17.418
1747656568.24,-0.310,0.050,0.008,-1.637,-0.191,-0.100,-38.534,16.811,17.683
1747656568.25,-0.201,0.020,0.050,-1.599,-0.188,-0.046,-39.429,16.889,18.019
1747656568.26,-0.047,-0.017,-0.016,-1.602,-0.197,0.013,-40.306,16.993,18.355
1747656568.27,0.095,-0.057,-0.057,-1.572,-0.148,0.037,-41.170,17.136,18.779
1747656568.28,0.187,-0.105,-0.054,-1.535,-0.119,0.001,-42.012,17.305,19.147
1747656568.29,0.187,-0.158,-0.042,-1.558,-0.144,-0.050,-42.857,17.460,19.537
1747656568.30,0.120,-0.211,0.010,-1.564,-0.166,-0.059,-43.719,17.594,19.863
1747656568.31,0.046,-0.257,0.076,-1.578,-0.125,-0.005,-44.576,17.752,20.272
1747656568.32,0.023,-0.278,0.083,-1.729,-0.124,0.066,-45.465,17.992,20.705
1747656568.33,0.043,-0.256,0.120,-1.870,-0.227,0.126,-46.429,18.282,21.288
1747656568.34,0.069,-0.200,0.159,-1.799,-0.408,0.169,-47.403,18.544,21.893
1747656568.35,0.097,-0.097,0.092,-1.705,-0.582,0.211,-48.313,18.727,22.580
1747656568.36,0.102,0.035,-0.020,-1.701,-0.740,0.220,-49.192,18.844,23.236
1747656568.37,0.079,0.165,-0.055,-1.682,-0.843,0.137,-50.075,18.870,23.923
1747656568.38,-0.001,0.277,-0.086,-1.556,-0.828,-0.012,-50.942,18.799,24.452
1747656568.39,-0.093,0.325,-0.100,-1.414,-0.809,-0.174,-51.759,18.607,24.838
1747656568.40,-0.174,0.275,-0.114,-1.454,-0.700,-0.275,-52.571,18.344,25.057
1747656568.41,-0.197,0.133,-0.026,-1.605,-0.515,-0.334,-53.455,18.137,25.271
1747656568.42,-0.144,-0.008,0.115,-1.686,-0.413,-0.342,-54.413,18.026,25.455
1747656568.43,-0.081,-0.092,0.160,-1.643,-0.437,-0.291,-55.376,17.955,25.711
1747656568.44,-0.025,-0.129,0.114,-1.542,-0.497,-0.151,-56.283,17.923,25.995
1747656568.45,0.050,-0.129,0.080,-1.406,-0.545,0.007,-57.096,17.961,26.440
1747656568.46,0.110,-0.090,-0.009,-1.338,-0.630,0.072,-57.828,18.046,26.936
1747656568.47,0.095,-0.024,-0.117,-1.344,-0.729,0.033,-58.546,18.088,27.471
1747656568.48,0.023,0.026,-0.132,-1.302,-0.716,-0.075,-59.270,18.046,27.919
1747656568.49,-0.049,0.032,-0.115,-1.189,-0.645,-0.221,-59.973,17.896,28.198
1747656568.50,-0.113,-0.001,-0.133,-1.133,-0.526,-0.387,-60.654,17.622,28.302
1747656568.51,-0.168,-0.056,-0.128,-1.151,-0.340,-0.529,-61.355,17.272,28.186
1747656568.52,-0.171,-0.123,-0.061,-1.214,-0.150,-0.609,-62.095,16.917,27.975
1747656568.53,-0.135,-0.175,0.007,-1.292,-0.042,-0.597,-62.883,16.622,27.701
1747656568.54,-0.095,-0.193,0.055,-1.290,0.030,-0.472,-63.681,16.451,27.548
1747656568.55,-0.048,-0.173,0.033,-1.257,0.042,-0.304,-64.440,16.462,27.532
1747656568.56,0.012,-0.120,0.007,-1.215,0.007,-0.152,-65.155,16.641,27.747
1747656568.57,0.060,-0.044,-0.011,-1.150,-0.043,-0.066,-65.820,16.933,28.078
1747656568.58,0.105,0.021,-0.052,-1.050,-0.144,-0.068,-66.433,17.224,28.480
1747656568.59,0.125,0.058,-0.101,-0.913,-0.199,-0.154,-66.985,17.374,28.754
1747656568.60,0.108,0.067,-0.132,-0.918,-0.123,-0.286,-67.515,17.359,28.871
1747656568.61,0.065,0.047,-0.085,-1.000,-0.004,-0.417,-68.099,17.253,28.794
1747656568.62,-0.013,0.005,-0.001,-0.988,0.021,-0.508,-68.723,17.045,28.594
1747656568.63,-0.120,-0.041,-0.048,-0.984,-0.026,-0.508,-69.343,16.730,28.261
1747656568.64,-0.179,-0.076,-0.100,-1.022,0.067,-0.429,-69.969,16.482,28.010
1747656568.65,-0.146,-0.095,0.007,-1.051,0.214,-0.358,-70.600,16.431,27.871
1747656568.66,-0.083,-0.082,0.083,-1.046,0.357,-0.339,-71.233,16.539,27.828
1747656568.67,-0.055,-0.033,0.117,-0.988,0.392,-0.350,-71.846,16.694,27.758
1747656568.68,-0.047,0.022,0.123,-0.900,0.239,-0.349,-72.421,16.764,27.651
1747656568.69,-0.063,0.075,0.065,-0.860,0.103,-0.338,-72.954,16.717,27.502
1747656568.70,-0.077,0.105,-0.025,-0.946,0.015,-0.344,-73.501,16.621,27.378
1747656568.71,-0.064,0.096,-0.044,-0.980,-0.015,-0.372,-74.091,16.492,27.243
1747656568.72,-0.024,0.062,-0.050,-0.908,-0.027,-0.430,-74.674,16.246,27.000
1747656568.73,0.018,0.029,-0.053,-0.874,-0.048,-0.467,-75.232,15.820,26.586
1747656568.74,0.027,0.016,0.004,-0.858,0.065,-0.470,-75.780,15.332,26.085
1747656568.75,0.015,0.009,0.097,-0.929,0.213,-0.437,-76.336,14.934,25.592
1747656568.76,-0.009,-0.013,0.154,-1.001,0.270,-0.395,-76.933,14.711,25.226
1747656568.77,-0.029,-0.044,0.106,-0.956,0.215,-0.363,-77.530,14.556,24.923
1747656568.78,-0.044,-0.068,-0.058,-0.905,0.137,-0.347,-78.094,14.358,24.627
1747656568.79,-0.046,-0.064,-0.149,-0.880,0.142,-0.308,-78.634,14.163,24.349
1747656568.80,-0.021,-0.041,-0.082,-0.836,0.177,-0.274,-79.151,14.046,24.135
1747656568.81,0.005,-0.001,-0.031,-0.728,0.228,-0.290,-79.626,13.914,23.883
1747656568.82,-0.003,0.045,-0.019,-0.582,0.307,-0.335,-80.030,13.597,23.401
1747656568.83,-0.041,0.070,0.004,-0.600,0.368,-0.374,-80.398,13.085,22.682
1747656568.84,-0.096,0.055,0.046,-0.704,0.339,-0.369,-80.811,12.539,21.908
1747656568.85,-0.143,0.024,0.030,-0.684,0.294,-0.356,-81.246,11.977,21.159
1747656568.86,-0.180,-0.019,-0.087,-0.681,0.327,-0.351,-81.665,11.347,20.336
1747656568.87,-0.144,-0.080,-0.114,-0.716,0.506,-0.305,-82.093,10.824,19.572
1747656568.88,-0.013,-0.125,-0.028,-0.634,0.664,-0.254,-82.508,10.539,18.949
1747656568.89,0.091,-0.127,-0.003,-0.435,0.724,-0.240,-82.834,10.301,18.306
1747656568.90,0.113,-0.066,-0.069,-0.262,0.713,-0.255,-83.054,9.868,17.431
1747656568.91,0.108,0.017,-0.119,-0.099,0.664,-0.264,-83.181,9.192,16.352
1747656568.92,0.113,0.067,-0.124,0.052,0.575,-0.268,-83.215,8.300,15.071
1747656568.93,0.125,0.077,-0.127,0.111,0.523,-0.271,-83.186,7.269,13.722
1747656568.94,0.118,0.067,-0.112,0.089,0.549,-0.272,-83.145,6.222,12.318
1747656568.95,0.090,0.054,-0.079,0.056,0.517,-0.240,-83.120,5.282,11.061
1747656568.96,0.045,0.036,-0.091,0.093,0.373,-0.169,-83.091,4.541,10.012
1747656568.97,0.014,0.015,-0.163,0.207,0.220,-0.074,-83.014,4.077,9.378
1747656568.98,0.029,0.009,-0.256,0.346,0.286,0.001,-82.857,3.964,9.086
1747656568.99,0.073,0.044,-0.305,0.462,0.561,0.042,-82.625,4.186,9.069
1747656569.00,0.082,0.126,-0.256,0.497,0.774,0.060,-82.345,4.619,9.068
1747656569.01,0.005,0.205,-0.217,0.324,0.826,0.032,-82.097,5.143,9.132
1747656569.02,-0.133,0.181,-0.163,-0.082,0.741,0.038,-82.024,5.649,9.133
1747656569.03,-0.249,0.258,-0.087,-0.371,0.653,0.100,-82.156,6.442,9.535
1747656569.04,-0.341,0.182,0.016,-0.449,0.618,0.134,-82.385,7.511,10.207
1747656569.05,-0.432,0.000,0.214,-0.511,0.659,0.194,-82.639,8.851,11.196
1747656569.06,-0.467,-0.181,0.485,-0.706,0.765,0.295,-82.953,10.808,12.722
1747656569.07,-0.379,-0.379,0.677,-0.993,0.893,0.379,-83.385,13.721,15.181
1747656569.08,-0.181,-0.563,0.675,-1.254,0.909,0.420,-83.943,17.820,18.723
1747656569.09,0.106,-0.688,0.593,-1.376,0.609,0.420,-84.568,23.162,23.647
1747656569.10,0.390,-0.733,0.368,-1.247,0.069,0.292,-85.159,29.191,29.458
1747656569.11,0.591,-0.676,0.136,-0.869,-0.709,-0.004,-85.634,33.899,34.357
1747656569.12,0.638,-0.454,-0.025,-0.448,-1.660,-0.343,-85.998,34.993,36.087
1747656569.13,0.503,-0.083,-0.177,-0.113,-2.568,-0.700,-86.290,31.364,33.668
1747656569.14,0.256,0.190,-0.329,0.034,-2.824,-1.031,-86.531,22.821,26.632
1747656569.15,0.010,0.318,-0.350,-0.015,-2.228,-1.198,-86.707,10.871,16.133
1747656569.16,-0.140,0.434,-0.116,-0.075,-1.187,-1.183,-86.788,-2.133,4.039
1747656569.17,-0.289,0.511,0.055,-0.063,-0.206,-0.984,-86.739,-13.606,-7.061
1747656569.18,-0.462,0.527,0.082,-0.277,0.655,-0.476,-86.692,-21.061,-14.702
1747656569.19,-0.567,0.463,0.152,-0.636,1.352,0.354,-86.922,-22.965,-17.194
1747656569.20,-0.552,0.302,0.314,-0.738,1.547,0.981,-87.435,-17.335,-12.438
1747656569.21,-0.487,-0.101,0.347,-0.752,1.502,1.192,-87.968,-2.763,1.274
1747656569.22,-0.351,-0.331,0.305,-0.747,1.473,1.109,-88.297,20.439,23.610
1747656569.23,-0.128,-0.352,0.306,-0.692,1.239,0.878,-88.335,45.238,47.632
1747656569.24,0.111,-0.305,0.228,-0.660,0.626,0.656,-88.199,64.507,66.340
1747656569.25,0.370,-0.189,0.078,-0.604,-0.047,0.568,-87.987,78.381,80.062
1747656569.26,0.639,-0.048,-0.083,-0.400,-0.632,0.620,-87.689,87.014,88.865
1747656569.27,0.848,0.036,-0.145,-0.092,-1.167,0.654,-87.325,89.994,92.362
1747656569.28,0.948,0.121,-0.136,0.235,-1.697,0.468,-86.992,88.425,91.556
1747656569.29,0.864,0.263,-0.168,0.477,-2.073,-0.023,-86.844,83.647,87.863
1747656569.30,0.563,0.464,-0.215,0.570,-1.993,-0.427,-86.927,76.487,81.824
1747656569.31,0.190,0.432,-0.131,0.480,-1.502,-0.593,-87.119,68.121,74.457
1747656569.32,-0.127,0.251,-0.030,0.308,-0.842,-0.564,-87.325,60.232,67.185
1747656569.33,-0.468,0.128,-0.032,0.150,-0.218,-0.381,-87.487,54.251,61.479
1747656569.34,-0.765,-0.029,-0.066,0.048,0.490,-0.063,-87.557,51.474,58.624
1747656569.35,-0.884,-0.214,-0.037,-0.060,1.075,0.250,-87.514,52.766,59.428
1747656569.36,-0.780,-0.352,0.033,-0.161,1.242,0.492,-87.375,57.385,63.374
1747656569.37,-0.511,-0.389,0.064,-0.196,1.041,0.645,-87.142,63.330,68.649
1747656569.38,-0.163,-0.323,0.015,-0.208,0.664,0.720,-86.830,68.864,73.698
1747656569.39,0.189,-0.190,0.007,-0.155,0.219,0.716,-86.473,73.156,77.722
1747656569.40,0.511,-0.011,0.025,-0.036,-0.164,0.557,-86.132,75.520,80.078
1747656569.41,0.686,0.182,-0.005,0.053,-0.499,0.199,-85.915,76.002,80.728
1747656569.42,0.649,0.339,0.015,0.083,-0.779,-0.253,-85.920,75.030,80.121
1747656569.43,0.427,0.410,0.062,0.070,-1.003,-0.570,-86.141,72.903,78.465
1747656569.44,0.131,0.349,0.064,-0.002,-1.165,-0.655,-86.474,70.205,76.386
1747656569.45,-0.159,0.189,0.114,-0.094,-1.113,-0.540,-86.806,67.885,74.700
1747656569.46,-0.410,0.006,0.192,-0.161,-0.721,-0.330,-87.065,66.831,74.178
1747656569.47,-0.593,-0.152,0.155,-0.210,-0.227,-0.135,-87.226,67.490,75.095
1747656569.48,-0.689,-0.241,0.066,-0.323,0.241,-0.054,-87.326,70.062,77.664
1747656569.49,-0.702,-0.230,0.040,-0.374,0.631,-0.056,-87.418,74.351,81.688
1747656569.50,-0.614,-0.133,0.063,-0.317,0.912,-0.043,-87.493,78.998,85.894
1747656569.51,-0.428,-0.021,0.064,-0.292,1.080,0.019,-87.526,83.436,89.762
1747656569.52,-0.202,0.044,0.103,-0.321,1.187,0.095,-87.505,88.126,93.805
1747656569.53,0.015,0.045,0.097,-0.353,1.171,0.142,-87.435,93.179,98.169
1747656569.54,0.192,0.008,0.055,-0.275,0.971,0.152,-87.333,97.635,102.011
1747656569.55,0.345,-0.045,-0.030,-0.104,0.615,0.136,-87.234,100.081,103.973
1747656569.56,0.498,-0.064,-0.149,0.017,0.245,0.075,-87.169,100.549,104.200
1747656569.57,0.626,-0.024,-0.191,0.109,-0.014,-0.037,-87.163,99.895,103.444
1747656569.58,0.671,0.055,-0.162,0.278,-0.236,-0.160,-87.236,97.798,101.416
1747656569.59,0.595,0.136,-0.177,0.354,-0.371,-0.248,-87.373,93.923,97.672
1747656569.60,0.428,0.174,-0.198,0.288,-0.333,-0.277,-87.531,89.607,93.556
1747656569.61,0.237,0.136,-0.128,0.204,-0.263,-0.242,-87.675,85.979,90.056
1747656569.62,0.063,0.027,-0.048,0.126,-0.208,-0.166,-87.783,83.168,87.378
1747656569.63,-0.064,-0.108,-0.028,-0.014,-0.073,-0.080,-87.849,81.978,86.249
1747656569.64,-0.092,-0.226,0.003,-0.095,0.139,-0.001,-87.876,82.875,87.125
1747656569.65,-0.008,-0.277,0.065,-0.054,0.156,0.054,-87.866,84.262,88.395
1747656569.66,0.105,-0.222,0.059,0.022,-0.051,0.061,-87.833,84.603,88.701
1747656569.67,0.177,-0.071,0.007,0.079,-0.270,0.023,-87.804,83.817,87.971
1747656569.68,0.214,0.110,-0.043,0.179,-0.350,-0.079,-87.809,81.779,86.115
1747656569.69,0.230,0.244,-0.091,0.339,-0.312,-0.226,-87.868,77.356,81.853
1747656569.70,0.199,0.287,-0.130,0.544,-0.229,-0.335,-87.951,69.322,73.969
1747656569.71,0.127,0.228,-0.146,0.829,-0.118,-0.357,-87.954,56.964,61.677
1747656569.72,0.056,0.135,-0.155,1.073,-0.010,-0.339,-87.748,42.310,47.049
1747656569.73,-0.012,0.091,-0.182,1.210,0.104,-0.329,-87.330,29.816,34.476
1747656569.74,-0.106,0.093,-0.146,1.341,0.349,-0.317,-86.744,20.640,25.165
1747656569.75,-0.244,0.121,-0.143,1.259,0.672,-0.238,-86.076,14.816,18.989
1747656569.76,-0.375,0.102,-0.140,0.944,0.782,-0.040,-85.480,12.134,15.871
1747656569.77,-0.479,-0.010,-0.091,0.747,0.665,0.239,-85.003,11.992,15.289
1747656569.78,-0.541,-0.105,-0.061,0.548,0.689,0.557,-84.584,13.888,16.812
1747656569.79,-0.488,-0.118,-0.015,0.241,0.798,0.743,-84.266,17.437,19.923
1747656569.80,-0.371,-0.063,0.152,0.064,0.788,0.699,-84.049,21.494,23.540
1747656569.81,-0.313,-0.000,0.243,0.019,0.646,0.476,-83.896,24.784,26.417
1747656569.82,-0.258,0.005,0.305,0.014,0.410,0.205,-83.803,26.684,28.020
1747656569.83,-0.161,-0.068,0.360,0.000,0.069,-0.050,-83.779,27.157,28.336
1747656569.84,-0.062,-0.166,0.316,-0.060,-0.301,-0.276,-83.834,26.371,27.613
1747656569.85,-0.005,-0.236,0.241,-0.201,-0.559,-0.441,-83.990,24.654,26.127
1747656569.86,0.022,-0.269,0.228,-0.346,-0.622,-0.543,-84.249,22.402,24.208
1747656569.87,0.037,-0.270,0.270,-0.339,-0.619,-0.577,-84.554,19.728,21.853
1747656569.88,0.005,-0.232,0.256,-0.217,-0.682,-0.546,-84.806,16.605,19.088
1747656569.89,-0.062,-0.141,0.152,-0.131,-0.756,-0.466,-84.974,13.337,16.189
1747656569.90,-0.096,-0.016,0.025,-0.120,-0.780,-0.331,-85.089,10.472,13.758
1747656569.91,-0.058,0.122,-0.078,-0.157,-0.653,-0.151,-85.190,8.602,12.270
1747656569.92,0.036,0.232,-0.114,-0.182,-0.451,0.035,-85.292,8.069,12.053
1747656569.93,0.142,0.278,-0.109,-0.118,-0.204,0.173,-85.371,8.774,12.932
1747656569.94,0.211,0.242,-0.115,-0.002,0.102,0.269,-85.384,10.380,14.572
1747656569.95,0.224,0.141,-0.098,0.112,0.364,0.351,-85.316,12.576,16.618
1747656569.96,0.177,0.031,-0.084,0.183,0.442,0.408,-85.182,15.121,18.931
1747656569.96,0.084,-0.043,-0.097,0.196,0.320,0.401,-85.010,17.600,21.180
1747656569.98,-0.041,-0.073,-0.126,0.186,0.153,0.305,-84.841,19.526,22.978
1747656569.99,-0.158,-0.063,-0.128,0.141,-0.001,0.163,-84.708,20.597,23.987
1747656570.00,-0.215,-0.036,-0.107,0.135,-0.013,0.041,-84.617,20.872,24.273
1747656570.01,-0.199,-0.024,-0.064,0.204,0.072,-0.020,-84.526,20.563,23.925
1747656570.02,-0.140,-0.029,-0.024,0.271,0.209,-0.027,-84.402,19.999,23.279
1747656570.02,-0.069,-0.039,0.034,0.286,0.331,0.003,-84.253,19.526,22.627
1747656570.03,-0.013,-0.034,0.087,0.293,0.345,0.050,-84.092,19.317,22.219
1747656570.04,0.017,-0.018,0.071,0.327,0.303,0.106,-83.912,19.359,22.061
1747656570.06,0.032,0.006,0.030,0.369,0.269,0.127,-83.703,19.514,22.052
1747656570.06,0.028,0.036,0.007,0.435,0.230,0.128,-83.463,19.585,21.957
1747656570.07,0.012,0.057,-0.017,0.497,0.223,0.147,-83.186,19.570,21.814
1747656570.08,0.019,0.056,-0.035,0.521,0.258,0.174,-82.879,19.606,21.689
1747656570.09,0.040,0.038,-0.027,0.513,0.298,0.188,-82.565,19.758,21.679
1747656570.10,0.053,0.025,-0.007,0.539,0.274,0.174,-82.249,19.899,21.629
1747656570.11,0.052,0.014,-0.012,0.586,0.178,0.160,-81.915,19.880,21.479
1747656570.12,0.060,0.002,-0.030,0.609,0.123,0.151,-81.563,19.741,21.222
1747656570.13,0.090,-0.013,-0.005,0.676,0.039,0.154,-81.191,19.519,20.948
1747656570.15,0.105,-0.036,0.008,0.749,-0.081,0.183,-80.773,19.220,20.626
1747656570.15,0.106,-0.060,-0.016,0.715,-0.153,0.250,-80.334,19.019,20.494
1747656570.16,0.106,-0.078,-0.005,0.644,-0.158,0.314,-79.915,19.083,20.607
1747656570.17,0.088,-0.080,0.007,0.586,-0.159,0.335,-79.520,19.328,20.938
1747656570.18,0.021,-0.052,0.015,0.553,-0.069,0.319,-79.154,19.633,21.317
1747656570.19,-0.070,-0.001,0.068,0.604,-0.032,0.275,-78.787,19.864,21.566
1747656570.20,-0.154,0.050,0.054,0.662,-0.072,0.223,-78.396,19.884,21.618
1747656570.21,-0.211,0.084,-0.016,0.696,0.002,0.196,-77.994,19.766,21.515
1747656570.22,-0.186,0.081,0.009,0.806,0.126,0.222,-77.553,19.659,21.366
1747656570.23,-0.090,0.039,0.038,0.918,0.195,0.262,-77.039,19.596,21.188
1747656570.24,-0.002,-0.005,0.026,0.889,0.231,0.274,-76.496,19.590,21.056
1747656570.25,0.056,-0.030,0.040,0.752,0.226,0.265,-76.001,19.673,20.979
1747656570.26,0.075,-0.041,0.129,0.671,0.061,0.262,-75.572,19.777,20.999
1747656570.27,0.020,-0.041,0.120,0.642,-0.067,0.285,-75.165,19.839,21.052
1747656570.28,-0.077,-0.028,0.021,0.592,0.016,0.338,-74.775,19.996,21.236
1747656570.29,-0.129,-0.022,0.055,0.654,0.145,0.392,-74.376,20.322,21.511
1747656570.30,-0.133,-0.020,0.101,0.878,0.154,0.414,-73.888,20.644,21.752
1747656570.31,-0.144,0.001,0.036,1.101,0.075,0.374,-73.276,20.747,21.767
1747656570.32,-0.155,0.041,-0.082,1.211,0.086,0.297,-72.584,20.608,21.580
1747656570.33,-0.140,0.081,-0.141,1.219,0.167,0.196,-71.885,20.334,21.194
1747656570.34,-0.111,0.092,-0.120,1.195,0.300,0.070,-71.207,19.963,20.666
1747656570.35,-0.097,0.071,-0.075,1.091,0.536,-0.056,-70.592,19.573,19.971
1747656570.36,-0.088,0.015,0.033,1.069,0.721,-0.127,-70.030,19.221,19.208
1747656570.37,-0.085,-0.059,0.098,1.039,0.668,-0.075,-69.481,18.927,18.448
1747656570.38,-0.084,-0.130,0.068,0.944,0.620,0.087,-68.940,18.807,17.932
1747656570.39,-0.107,-0.161,0.033,0.766,0.666,0.292,-68.443,19.028,17.740
1747656570.40,-0.099,-0.136,0.077,0.699,0.700,0.517,-67.979,19.626,17.961
1747656570.41,-0.003,-0.079,0.086,0.817,0.689,0.695,-67.456,20.467,18.403
1747656570.42,0.139,-0.013,0.073,0.982,0.609,0.736,-66.828,21.325,18.929
1747656570.43,0.244,0.043,0.075,1.154,0.456,0.609,-66.117,21.946,19.218
1747656570.44,0.276,0.080,0.047,1.327,0.280,0.395,-65.352,22.156,19.219
1747656570.45,0.253,0.099,-0.014,1.398,0.178,0.182,-64.563,21.977,18.830
1747656570.46,0.182,0.090,-0.016,1.293,0.113,0.032,-63.826,21.581,18.296
1747656570.47,0.062,0.051,0.077,1.196,0.067,-0.013,-63.165,21.114,17.679
1747656570.48,-0.055,-0.002,0.037,1.038,0.126,0.007,-62.565,20.712,17.168
1747656570.49,-0.125,-0.028,-0.075,0.852,0.180,0.076,-62.056,20.480,16.754
1747656570.50,-0.142,-0.020,0.026,0.875,0.178,0.199,-61.574,20.403,16.550
1747656570.51,-0.083,-0.017,0.127,1.010,0.164,0.316,-61.018,20.415,16.414
1747656570.52,0.024,0.007,0.107,1.125,0.088,0.364,-60.375,20.441,16.358
1747656570.53,0.108,0.052,0.039,1.218,-0.061,0.294,-59.680,20.358,16.194
1747656570.54,0.123,0.095,-0.049,1.295,-0.192,0.146,-58.962,20.066,15.941
1747656570.55,0.084,0.106,-0.069,1.294,-0.236,-0.014,-58.250,19.584,15.471
1747656570.56,0.007,0.085,-0.005,1.194,-0.168,-0.138,-57.592,19.021,14.949
1747656570.57,-0.093,0.046,0.114,1.140,0.018,-0.223,-56.998,18.494,14.314
1747656570.58,-0.199,0.011,0.139,1.115,0.213,-0.265,-56.428,18.047,13.700
1747656570.59,-0.289,-0.007,0.030,1.074,0.411,-0.198,-55.876,17.748,13.095
1747656570.60,-0.299,-0.024,-0.025,1.056,0.514,-0.025,-55.316,17.657,12.656
1747656570.61,-0.207,-0.046,-0.009,1.070,0.459,0.182,-54.727,17.736,12.385
1747656570.62,-0.065,-0.063,0.029,1.204,0.347,0.334,-54.066,17.894,12.294
1747656570.63,0.096,-0.047,0.029,1.349,0.188,0.351,-53.307,18.001,12.202
1747656570.64,0.219,0.016,0.025,1.394,0.053,0.200,-52.509,17.950,12.056
1747656570.65,0.268,0.079,0.060,1.343,-0.048,0.038,-51.742,17.717,11.721
1747656570.66,0.248,0.087,0.087,1.272,-0.143,-0.069,-51.033,17.370,11.344
1747656570.67,0.142,0.051,0.057,1.192,-0.183,-0.134,-50.379,16.947,10.905
1747656570.68,-0.020,0.004,-0.029,1.114,-0.039,-0.118,-49.770,16.565,10.497
1747656570.69,-0.117,-0.039,-0.059,1.069,0.150,-0.052,-49.188,16.337,10.124
1747656570.70,-0.153,-0.064,-0.005,1.084,0.209,0.055,-48.599,16.245,9.862
1747656570.71,-0.154,-0.056,0.015,1.145,0.244,0.180,-47.971,16.246,9.652
1747656570.72,-0.101,-0.010,0.001,1.245,0.247,0.276,-47.278,16.320,9.556
1747656570.73,-0.014,0.052,-0.008,1.272,0.163,0.292,-46.538,16.392,9.436
1747656570.74,0.054,0.090,0.002,1.257,0.084,0.251,-45.801,16.404,9.355
1747656570.75,0.100,0.087,0.027,1.269,0.019,0.151,-45.077,16.342,9.172
1747656570.76,0.097,0.054,0.026,1.258,-0.046,0.043,-44.365,16.185,8.959
1747656570.77,0.056,0.003,-0.033,1.150,-0.083,-0.008,-43.701,15.969,8.649
1747656570.78,0.018,-0.073,-0.081,1.067,-0.024,0.010,-43.095,15.770,8.410
1747656570.79,-0.011,-0.160,-0.053,1.072,0.074,0.068,-42.505,15.650,8.157
1747656570.80,-0.046,-0.212,-0.001,1.140,0.144,0.139,-41.881,15.612,8.006
1747656570.81,-0.059,-0.194,0.020,1.188,0.201,0.190,-41.214,15.633,7.820
1747656570.82,-0.067,-0.125,0.013,1.240,0.241,0.153,-40.522,15.683,7.699
1747656570.83,-0.049,-0.036,0.057,1.331,0.246,0.204,-39.788,15.737,7.499
1747656570.84,-0.029,0.011,0.097,1.345,0.259,0.164,-39.018,15.797,7.367
1747656570.85,0.009,0.049,0.084,1.222,0.203,0.056,-38.293,15.820,7.130
1747656570.86,0.022,0.100,0.021,1.063,0.164,0.051,-37.657,15.804,6.930
1747656570.87,-0.019,0.079,-0.055,0.997,0.217,0.107,-37.083,15.831,6.731
1747656570.88,-0.032,0.024,-0.011,1.089,0.160,0.219,-36.489,15.884,6.638
1747656570.89,-0.064,-0.014,0.017,1.195,0.167,0.348,-35.815,15.957,6.589
1747656570.90,-0.046,-0.016,0.029,1.261,0.175,0.398,-35.079,16.068,6.604
1747656570.91,0.019,0.049,0.041,1.317,0.088,0.388,-34.310,16.156,6.595
1747656570.92,0.046,0.117,0.066,1.353,0.027,0.371,-33.513,16.181,6.597
1747656570.93,0.100,0.148,0.137,1.364,0.020,0.345,-32.712,16.180,6.549
1747656570.94,0.204,0.171,0.205,1.412,-0.024,0.367,-31.895,16.166,6.519
1747656570.95,0.242,0.146,0.160,1.421,-0.158,0.406,-31.050,16.108,6.480
1747656570.96,0.201,0.095,0.081,1.323,-0.250,0.458,-30.227,15.998,6.502
1747656570.97,0.114,0.008,0.028,1.181,-0.308,0.548,-29.460,15.882,6.563
1747656570.98,0.046,-0.081,-0.035,1.060,-0.228,0.645,-28.753,15.811,6.740
1747656570.99,-0.027,-0.137,0.007,1.045,-0.090,0.705,-28.071,15.833,6.965
1747656571.00,-0.061,-0.131,0.059,1.060,0.034,0.700,-27.383,15.936,7.220
1747656571.01,-0.058,-0.053,0.032,1.183,0.098,0.635,-26.668,16.075,7.431
1747656571.02,-0.066,0.054,0.042,1.341,0.071,0.569,-25.878,16.191,7.597
1747656571.03,-0.061,0.136,0.028,1.418,-0.025,0.518,-25.033,16.243,7.683
1747656571.04,-0.040,0.193,0.043,1.505,-0.130,0.460,-24.154,16.215,7.729
1747656571.05,-0.020,0.221,0.040,1.589,-0.260,0.396,-23.235,16.098,7.718
1747656571.06,-0.036,0.213,0.008,1.536,-0.290,0.336,-22.313,15.917,7.679
1747656571.07,-0.106,0.149,0.019,1.433,-0.223,0.324,-21.448,15.749,7.623
1747656571.08,-0.141,0.073,0.054,1.400,-0.204,0.361,-20.618,15.617,7.616
1747656571.09,-0.120,-0.008,0.034,1.393,-0.124,0.426,-19.793,15.522,7.621
1747656571.10,-0.057,-0.107,0.056,1.458,-0.007,0.450,-18.943,15.495,7.689
1747656571.11,0.034,-0.145,0.083,1.512,0.042,0.445,-18.058,15.513,7.709
1747656571.12,0.081,-0.114,0.070,1.568,0.004,0.475,-17.142,15.537,7.751
1747656571.13,0.086,-0.042,0.033,1.639,-0.108,0.472,-16.188,15.511,7.768
1747656571.14,0.056,0.012,-0.022,1.650,-0.127,0.463,-15.208,15.440,7.799
1747656571.15,0.004,0.031,0.019,1.641,-0.060,0.414,-14.230,15.408,7.784
1747656571.16,-0.037,0.024,0.027,1.578,-0.024,0.434,-13.280,15.383,7.801
1747656571.17,-0.042,-0.026,-0.008,1.629,0.015,0.458,-12.336,15.377,7.804
1747656571.18,-0.052,-0.045,0.008,1.828,0.073,0.484,-11.311,15.405,7.842
1747656571.19,0.002,-0.068,0.026,1.871,0.186,0.481,-10.214,15.469,7.825
1747656571.20,0.086,-0.065,0.069,1.862,0.336,0.482,-9.111,15.618,7.827
1747656571.21,0.145,-0.041,0.140,1.804,0.362,0.509,-8.026,15.820,7.815
1747656571.22,0.109,-0.018,0.175,1.684,0.259,0.559,-6.982,16.002,7.850
1747656571.23,0.029,0.073,0.084,1.610,0.193,0.642,-5.987,16.134,7.920
1747656571.24,-0.042,0.163,0.010,1.640,0.224,0.708,-4.989,16.261,8.056
1747656571.25,-0.048,0.217,-0.019,1.671,0.180,0.713,-3.967,16.389,8.183
1747656571.26,-0.026,0.239,-0.063,1.674,0.097,0.651,-2.935,16.472,8.325
1747656571.27,-0.008,0.170,-0.088,1.639,0.061,0.566,-1.932,16.518,8.392
1747656571.28,0.027,0.061,-0.060,1.590,0.046,0.496,-0.958,16.549,8.454
1747656571.29,0.046,-0.131,-0.041,1.521,0.073,0.486,-0.030,16.580,8.469
1747656571.30,0.062,-0.253,-0.034,1.506,0.118,0.511,0.876,16.639,8.520
1747656571.31,0.074,-0.264,0.031,1.552,0.058,0.561,1.799,16.690,8.562
1747656571.32,0.007,-0.016,0.113,1.582,-0.007,0.593,2.754,16.703,8.636
1747656571.33,-0.066,0.205,0.116,1.599,-0.037,0.580,3.719,16.683,8.697
1747656571.34,-0.087,0.259,0.015,1.680,0.070,0.541,4.709,16.687,8.767
1747656571.35,-0.087,0.209,-0.076,1.592,0.183,0.473,5.693,16.757,8.774
1747656571.36,-0.101,0.080,-0.156,1.538,0.201,0.384,6.615,16.881,8.781
1747656571.37,-0.095,-0.092,-0.168,1.527,0.126,0.321,7.513,16.979,8.716
1747656571.38,-0.102,-0.207,-0.098,1.469,0.078,0.256,8.380,17.053,8.655
1747656571.39,-0.028,-0.179,-0.049,1.429,0.014,0.189,9.202,17.098,8.530
1747656571.40,0.039,-0.045,-0.068,1.519,-0.053,0.203,10.038,17.109,8.411
1747656571.41,0.035,0.099,0.005,1.533,-0.071,0.233,10.911,17.097,8.271
1747656571.42,-0.026,0.196,0.044,1.643,-0.186,0.364,11.810,17.065,8.174
1747656571.43,-0.034,0.191,-0.037,1.529,-0.043,0.309,12.748,17.028,8.105
1747656571.44,-0.051,0.124,-0.009,1.573,-0.011,0.141,13.627,17.045,8.022
1747656571.45,-0.123,0.191,-0.031,1.513,-0.072,0.098,14.493,17.078,7.818
1747656571.46,-0.043,0.071,-0.142,1.484,-0.173,0.056,15.327,17.058,7.665
1747656571.47,0.043,-0.087,-0.170,1.392,-0.292,-0.015,16.116,16.995,7.428
1747656571.48,0.152,-0.248,-0.123,1.324,-0.474,-0.065,16.851,16.848,7.235
1747656571.49,0.162,-0.203,-0.098,1.261,-0.526,-0.092,17.545,16.638,6.968
1747656571.50,0.143,-0.176,-0.065,1.315,-0.320,-0.302,18.207,16.490,6.709
1747656571.51,0.067,-0.181,-0.058,1.074,-0.272,-0.128,18.810,16.398,6.374
1747656571.52,0.069,-0.143,-0.020,1.136,-0.107,0.007,19.410,16.364,6.197
1747656571.53,0.058,-0.078,-0.016,1.051,0.038,0.039,20.015,16.402,6.025
1747656571.54,-0.005,-0.002,-0.041,1.021,0.105,0.088,20.592,16.498,5.924
1747656571.55,0.049,0.009,-0.063,0.982,0.083,0.137,21.159,16.592,5.817
1747656571.56,0.135,-0.003,-0.110,0.928,0.036,0.162,21.708,16.657,5.778
1747656571.57,0.179,0.022,-0.094,0.846,-0.050,0.173,22.223,16.674,5.722
1747656571.58,0.219,0.001,-0.131,0.736,-0.142,0.149,22.682,16.636,5.712
1747656571.59,0.233,-0.082,-0.171,0.663,-0.212,0.124,23.085,16.549,5.671
1747656571.60,0.185,-0.118,-0.161,0.623,-0.225,0.103,23.455,16.442,5.667
1747656571.61,0.070,-0.063,-0.139,0.556,-0.119,0.114,23.794,16.356,5.626
1747656571.62,-0.067,-0.012,-0.090,0.737,-0.307,0.401,24.161,16.261,5.679
1747656571.63,-0.157,-0.029,-0.121,0.402,0.051,0.358,24.552,16.150,5.830
1747656571.64,-0.167,-0.056,-0.030,0.391,0.122,0.164,24.798,16.172,5.946
1747656571.65,-0.062,0.002,-0.062,0.252,0.037,0.161,25.004,16.208,5.986
1747656571.66,0.117,-0.243,-0.105,0.183,-0.076,0.084,25.144,16.175,6.074
1747656571.67,0.064,-0.157,-0.128,0.096,-0.102,-0.016,25.226,16.124,6.068
1747656571.68,0.020,-0.061,-0.203,0.034,-0.045,-0.021,25.257,16.094,6.075
1747656571.69,-0.044,-0.064,-0.170,-0.076,0.029,0.041,25.251,16.084,6.084
1747656571.70,-0.070,-0.100,-0.175,-0.228,0.129,0.091,25.177,16.101,6.201
1747656571.71,-0.022,-0.172,-0.160,-0.342,0.218,0.122,25.036,16.153,6.318
1747656571.72,0.050,-0.218,-0.119,-0.460,0.211,0.111,24.838,16.218,6.514
1747656571.73,0.092,-0.228,-0.097,-0.597,0.157,0.076,24.560,16.259,6.665
1747656571.74,0.099,-0.268,-0.034,-0.666,0.125,0.060,24.226,16.279,6.856
1747656571.75,0.084,-0.272,-0.020,-0.837,0.044,0.039,23.826,16.260,7.016
1747656571.76,0.100,-0.236,-0.114,-0.979,-0.025,-0.002,23.327,16.199,7.227
1747656571.77,0.130,-0.204,-0.206,-1.084,-0.041,0.003,22.763,16.108,7.403
1747656571.78,0.087,-0.140,-0.222,-1.246,0.022,0.037,22.128,16.021,7.660
1747656571.79,0.035,-0.112,-0.236,-1.354,0.047,0.060,21.418,15.949,7.910
1747656571.80,0.017,-0.123,-0.240,-1.443,0.108,0.085,20.662,15.893,8.249
1747656571.81,0.031,-0.133,-0.180,-1.476,0.074,0.108,19.873,15.845,8.549
1747656571.82,0.043,-0.113,-0.091,-1.516,0.046,0.128,19.073,15.773,8.909
1747656571.83,0.052,-0.046,-0.068,-1.575,-0.004,0.097,18.240,15.682,9.229
1747656571.84,0.093,0.006,-0.129,-1.603,-0.023,0.043,17.377,15.580,9.587
1747656571.85,0.084,0.006,-0.176,-1.655,0.015,-0.010,16.483,15.497,9.901
1747656571.86,0.015,-0.016,-0.146,-1.690,0.093,-0.051,15.557,15.460,10.148
1747656571.87,-0.072,-0.025,-0.132,-1.753,0.158,-0.048,14.604,15.469,10.436
1747656571.88,-0.114,-0.022,-0.090,-1.863,0.208,0.014,13.605,15.509,10.709
1747656571.89,-0.041,-0.036,-0.076,-1.912,0.224,0.105,12.573,15.559,11.097
1747656571.90,0.101,-0.046,-0.056,-1.912,0.192,0.166,11.542,15.602,11.475
1747656571.91,0.211,-0.017,-0.077,-1.924,0.081,0.183,10.515,15.604,11.935
1747656571.92,0.247,0.026,-0.128,-1.929,0.050,0.164,9.481,15.568,12.334
1747656571.93,0.196,0.064,-0.097,-1.932,0.027,0.111,8.443,15.534,12.771
1747656571.94,0.097,0.081,-0.012,-1.979,0.028,0.099,7.382,15.497,13.130
1747656571.95,0.012,0.045,0.030,-2.013,0.112,0.147,6.301,15.492,13.566
1747656571.96,0.004,-0.029,0.061,-2.074,0.199,0.251,5.208,15.540,13.988
1747656571.97,0.054,-0.080,0.024,-2.140,0.228,0.331,4.093,15.626,14.553
1747656571.98,0.100,-0.072,-0.052,-2.108,0.167,0.316,2.972,15.712,15.064
1747656571.99,0.061,-0.015,-0.041,-2.074,0.080,0.206,1.866,15.761,15.618
1747656572.00,-0.043,0.032,-0.023,-2.007,0.058,0.028,0.759,15.790,16.003
1747656572.01,-0.134,0.041,-0.031,-1.932,0.004,-0.156,-0.331,15.804,16.377
1747656572.02,-0.229,0.020,-0.016,-1.894,0.041,-0.271,-1.416,15.818,16.553
1747656572.03,-0.297,-0.038,-0.023,-1.938,0.070,-0.257,-2.507,15.855,16.802
1747656572.04,-0.293,-0.118,-0.081,-2.032,0.161,-0.159,-3.632,15.930,16.998
1747656572.05,-0.213,-0.177,-0.080,-2.067,0.288,-0.092,-4.779,16.078,17.363
1747656572.06,-0.096,-0.187,-0.042,-2.062,0.359,-0.129,-5.929,16.292,17.635
1747656572.07,-0.029,-0.154,-0.003,-2.032,0.312,-0.230,-7.079,16.513,17.974
1747656572.08,-0.027,-0.102,0.013,-2.001,0.257,-0.340,-8.229,16.697,18.147
1747656572.09,-0.045,-0.049,0.045,-2.004,0.275,-0.398,-9.386,16.866,18.377
1747656572.10,-0.052,-0.017,0.103,-1.977,0.301,-0.400,-10.542,17.052,18.492
1747656572.11,-0.032,-0.010,0.076,-1.957,0.303,-0.364,-11.680,17.248,18.732
1747656572.12,0.003,-0.009,0.012,-1.946,0.329,-0.298,-12.800,17.461,18.886
1747656572.13,0.047,-0.019,0.013,-1.944,0.319,-0.228,-13.904,17.692,19.184
1747656572.14,0.059,-0.035,0.043,-1.894,0.346,-0.188,-14.985,17.939,19.415
1747656572.15,0.062,-0.050,0.049,-1.892,0.323,-0.200,-16.043,18.197,19.749
1747656572.16,0.051,-0.050,0.042,-1.925,0.270,-0.233,-17.118,18.431,19.984
1747656572.17,0.024,-0.045,0.053,-1.890,0.276,-0.235,-18.196,18.652,20.302
1747656572.18,0.034,-0.048,0.110,-1.873,0.387,-0.184,-19.249,18.917,20.546
1747656572.19,0.090,-0.052,0.149,-1.944,0.427,-0.133,-20.308,19.254,20.926
1747656572.20,0.144,-0.055,0.107,-1.924,0.375,-0.110,-21.378,19.599,21.253
1747656572.21,0.117,-0.054,0.015,-1.813,0.359,-0.120,-22.402,19.928,21.652
1747656572.22,0.062,-0.057,-0.008,-1.830,0.277,-0.160,-23.401,20.232,21.957
1747656572.23,-0.022,-0.052,-0.032,-1.832,0.199,-0.230,-24.427,20.481,22.316
1747656572.24,-0.114,-0.047,-0.052,-1.724,0.167,-0.311,-25.431,20.684,22.551
1747656572.25,-0.177,-0.037,0.003,-1.718,0.155,-0.388,-26.417,20.855,22.807
1747656572.26,-0.210,-0.020,0.044,-1.727,0.077,-0.445,-27.424,20.990,22.952
1747656572.27,-0.211,-0.004,0.041,-1.657,0.076,-0.448,-28.419,21.083,23.114
1747656572.28,-0.171,0.004,0.037,-1.659,0.172,-0.393,-29.385,21.220,23.245
1747656572.29,-0.032,0.001,0.031,-1.680,0.115,-0.360,-30.353,21.393,23.471
1747656572.30,0.093,-0.001,0.028,-1.611,0.071,-0.366,-31.306,21.532,23.648
1747656572.31,0.110,-0.005,0.071,-1.542,0.102,-0.369,-32.217,21.667,23.848
1747656572.32,0.107,-0.020,0.071,-1.596,0.029,-0.375,-33.124,21.792,24.005
1747656572.33,0.058,-0.042,-0.022,-1.648,-0.036,-0.369,-34.066,21.885,24.222
1747656572.34,-0.017,-0.066,-0.046,-1.605,0.007,-0.341,-35.005,21.983,24.415
1747656572.35,-0.040,-0.088,-0.028,-1.569,0.069,-0.306,-35.912,22.127,24.655
1747656572.36,-0.032,-0.100,-0.014,-1.566,0.077,-0.296,-36.805,22.301,24.877
1747656572.37,-0.039,-0.102,0.024,-1.637,0.081,-0.303,-37.713,22.490,25.151
1747656572.38,-0.050,-0.095,0.071,-1.707,0.057,-0.306,-38.663,22.694,25.413
1747656572.39,-0.029,-0.080,0.052,-1.728,-0.041,-0.288,-39.635,22.885,25.730
1747656572.40,0.014,-0.050,-0.008,-1.677,-0.158,-0.293,-40.597,23.018,26.028
1747656572.41,0.024,0.007,-0.030,-1.573,-0.202,-0.321,-41.521,23.089,26.321
1747656572.42,-0.007,0.073,-0.000,-1.441,-0.238,-0.380,-42.391,23.103,26.530
1747656572.43,-0.073,0.130,-0.015,-1.382,-0.229,-0.437,-43.220,23.059,26.701
1747656572.44,-0.140,0.158,-0.055,-1.462,-0.182,-0.459,-44.065,23.016,26.811
1747656572.45,-0.161,0.120,-0.015,-1.602,-0.126,-0.419,-44.969,23.037,26.995
1747656572.46,-0.101,0.039,0.033,-1.679,-0.048,-0.349,-45.922,23.157,27.234
1747656572.47,0.021,-0.034,0.087,-1.649,-0.029,-0.278,-46.868,23.360,27.571
1747656572.48,0.146,-0.086,0.136,-1.547,-0.070,-0.195,-47.761,23.594,27.925
1747656572.49,0.249,-0.109,0.110,-1.461,-0.138,-0.100,-48.580,23.837,28.350
1747656572.50,0.314,-0.106,0.048,-1.428,-0.241,-0.067,-49.350,24.066,28.797
1747656572.51,0.287,-0.084,-0.028,-1.489,-0.343,-0.094,-50.127,24.253,29.279
1747656572.52,0.205,-0.074,-0.082,-1.575,-0.473,-0.164,-50.955,24.376,29.740
1747656572.53,0.116,-0.091,-0.088,-1.631,-0.548,-0.227,-51.836,24.426,30.209
1747656572.54,0.044,-0.112,-0.068,-1.715,-0.512,-0.278,-52.764,24.462,30.639
1747656572.55,-0.001,-0.121,0.018,-1.761,-0.456,-0.298,-53.738,24.536,31.085
1747656572.56,-0.034,-0.114,0.100,-1.751,-0.503,-0.280,-54.721,24.636,31.540
1747656572.57,-0.044,-0.084,0.083,-1.721,-0.629,-0.197,-55.680,24.730,32.046
1747656572.58,-0.026,-0.041,0.068,-1.689,-0.691,-0.058,-56.595,24.860,32.658
1747656572.59,0.042,0.009,0.051,-1.654,-0.718,0.049,-57.460,25.080,33.408
1747656572.60,0.111,0.059,-0.009,-1.582,-0.818,0.042,-58.286,25.316,34.201
1747656572.61,0.113,0.095,-0.050,-1.446,-0.915,-0.059,-59.070,25.425,34.918
1747656572.62,0.066,0.097,-0.089,-1.355,-0.922,-0.195,-59.819,25.363,35.460
1747656572.63,0.006,0.058,-0.121,-1.426,-0.823,-0.319,-60.596,25.217,35.881
1747656572.64,-0.051,-0.005,-0.073,-1.506,-0.668,-0.425,-61.447,25.087,36.219
1747656572.65,-0.115,-0.061,0.006,-1.523,-0.558,-0.476,-62.343,24.983,36.516
1747656572.66,-0.177,-0.097,0.019,-1.511,-0.476,-0.443,-63.242,24.933,36.791
1747656572.67,-0.212,-0.117,0.019,-1.455,-0.404,-0.343,-64.107,24.990,37.159
1747656572.68,-0.201,-0.128,0.018,-1.382,-0.286,-0.207,-64.908,25.213,37.636
1747656572.69,-0.138,-0.127,0.004,-1.342,-0.133,-0.098,-65.646,25.652,38.250
1747656572.70,-0.057,-0.113,-0.013,-1.313,-0.098,-0.059,-66.346,26.257,38.988
1747656572.71,-0.033,-0.084,-0.058,-1.274,-0.201,-0.097,-67.027,26.854,39.730
1747656572.72,-0.070,-0.030,-0.148,-1.207,-0.260,-0.212,-67.697,27.309,40.379
1747656572.73,-0.146,0.037,-0.165,-1.120,-0.180,-0.387,-68.365,27.564,40.795
1747656572.74,-0.238,0.094,-0.107,-1.040,-0.012,-0.554,-69.037,27.626,40.935
1747656572.75,-0.299,0.123,-0.054,-0.960,0.246,-0.663,-69.705,27.568,40.804
1747656572.76,-0.295,0.111,-0.058,-0.951,0.513,-0.711,-70.368,27.513,40.517
1747656572.77,-0.247,0.068,-0.072,-1.032,0.696,-0.705,-71.056,27.578,40.217
1747656572.78,-0.194,0.005,-0.011,-1.109,0.817,-0.654,-71.780,27.838,40.050
1747656572.79,-0.129,-0.062,0.023,-1.074,0.875,-0.573,-72.500,28.277,40.002
1747656572.80,-0.041,-0.118,0.006,-0.969,0.841,-0.451,-73.152,28.834,40.068
1747656572.81,0.057,-0.147,-0.060,-0.891,0.758,-0.308,-73.721,29.526,40.313
1747656572.82,0.165,-0.137,-0.135,-0.863,0.651,-0.216,-74.226,30.351,40.751
1747656572.83,0.242,-0.081,-0.157,-0.897,0.630,-0.225,-74.719,31.262,41.320
1747656572.84,0.267,-0.013,-0.076,-0.901,0.634,-0.306,-75.237,32.161,41.864
1747656572.85,0.253,0.031,0.011,-0.833,0.491,-0.385,-75.763,32.872,42.261
1747656572.86,0.205,0.031,0.005,-0.779,0.244,-0.415,-76.274,33.317,42.483
1747656572.87,0.152,-0.006,-0.038,-0.797,0.074,-0.408,-76.777,33.614,42.699
1747656572.88,0.134,-0.058,-0.078,-0.856,-0.003,-0.403,-77.298,33.937,42.983
1747656572.89,0.126,-0.104,-0.089,-0.911,-0.050,-0.406,-77.846,34.341,43.411
1747656572.90,0.101,-0.134,-0.043,-1.010,-0.147,-0.404,-78.427,34.854,43.964
1747656572.91,0.072,-0.132,-0.010,-1.092,-0.244,-0.393,-79.051,35.553,44.792
1747656572.92,0.058,-0.097,0.017,-1.064,-0.305,-0.388,-79.683,36.368,45.774
1747656572.93,0.051,-0.021,0.012,-0.999,-0.307,-0.382,-80.286,37.184,46.783
1747656572.94,0.040,0.045,0.020,-0.937,-0.254,-0.382,-80.858,38.012,47.772
1747656572.95,0.031,0.066,0.071,-0.841,-0.195,-0.386,-81.393,38.810,48.708
1747656572.96,0.015,0.065,0.069,-0.743,-0.203,-0.382,-81.881,39.483,49.489
1747656572.97,-0.025,0.052,0.022,-0.713,-0.244,-0.385,-82.339,40.044,50.186
1747656572.98,-0.063,0.027,-0.009,-0.739,-0.193,-0.401,-82.799,40.664,50.919
1747656572.99,-0.090,0.002,-0.010,-0.753,-0.087,-0.429,-83.277,41.416,51.757
1747656573.00,-0.138,-0.011,-0.002,-0.737,-0.004,-0.442,-83.762,42.260,52.620
1747656573.01,-0.192,-0.019,-0.009,-0.690,0.047,-0.420,-84.231,43.178,53.531
1747656573.02,-0.223,-0.030,-0.021,-0.628,0.145,-0.368,-84.660,44.229,54.514
1747656573.03,-0.213,-0.039,-0.040,-0.569,0.313,-0.308,-85.037,45.516,55.675
1747656573.04,-0.171,-0.035,-0.028,-0.441,0.403,-0.256,-85.355,46.914,56.845
1747656573.05,-0.132,-0.011,-0.026,-0.286,0.474,-0.221,-85.594,47.917,57.600
1747656573.06,-0.110,0.028,-0.058,-0.291,0.587,-0.195,-85.787,48.725,58.089
1747656573.07,-0.080,0.059,0.009,-0.455,0.693,-0.175,-86.001,50.364,59.366
1747656573.08,-0.042,-0.034,0.111,-0.657,0.756,-0.153,-86.273,53.665,62.232
1747656573.09,-0.005,-0.114,0.135,-0.717,0.696,-0.127,-86.561,58.652,66.809
1747656573.10,-0.001,-0.093,0.093,-0.656,0.569,-0.116,-86.810,64.427,72.190
1747656573.11,-0.023,-0.086,0.063,-0.564,0.510,-0.083,-86.998,70.270,77.737
1747656573.12,-0.005,-0.084,0.073,-0.496,0.519,-0.037,-87.118,75.986,83.129
1747656573.13,0.045,-0.092,0.117,-0.391,0.494,-0.010,-87.181,81.264,88.120
1747656573.14,0.074,-0.100,0.139,-0.203,0.339,-0.033,-87.212,84.958,91.535
1747656573.15,0.070,-0.087,0.080,-0.004,0.093,-0.100,-87.253,86.192,92.645
1747656573.16,0.054,-0.065,0.001,0.056,-0.170,-0.190,-87.334,85.572,92.003
1747656573.17,0.036,-0.035,-0.032,-0.035,-0.315,-0.273,-87.466,85.002,91.578
1747656573.18,0.034,0.009,-0.041,-0.137,-0.333,-0.311,-87.637,85.674,92.394
1747656573.19,0.030,0.037,-0.046,-0.173,-0.270,-0.320,-87.823,87.524,94.420
1747656573.20,0.010,0.054,-0.046,-0.145,-0.151,-0.325,-88.010,89.852,96.836
1747656573.21,-0.031,0.064,-0.027,-0.065,-0.087,-0.301,-88.189,91.679,98.730
1747656573.22,-0.058,0.081,-0.027,-0.026,-0.069,-0.237,-88.344,92.588,99.647
1747656573.22,-0.056,0.089,0.002,-0.073,0.011,-0.121,-88.446,93.669,100.751
1747656573.24,-0.028,0.101,0.070,-0.179,0.168,-0.001,-88.473,96.434,103.417
1747656573.24,0.007,0.109,0.123,-0.246,0.223,0.068,-88.432,101.050,107.917
1747656573.26,0.023,0.139,0.102,-0.202,0.117,0.047,-88.367,105.360,112.081
1747656573.26,0.004,0.112,0.023,-0.170,-0.028,-0.012,-88.327,108.750,115.450
1747656573.28,0.002,0.042,-0.012,-0.153,-0.055,-0.051,-88.313,111.893,118.582
1747656573.28,0.040,-0.005,-0.004,-0.079,-0.021,-0.069,-88.318,114.527,121.239
1747656573.29,0.081,-0.038,0.007,0.049,-0.025,-0.063,-88.349,115.378,122.055
1747656573.30,0.087,-0.033,0.000,0.140,-0.014,-0.048,-88.403,114.018,120.707
1747656573.31,0.065,-0.003,0.027,0.114,-0.009,-0.033,-88.454,111.733,118.374
1747656573.32,0.032,0.030,0.063,0.003,-0.019,-0.015,-88.476,111.020,117.667
1747656573.33,-0.009,0.045,0.066,-0.044,-0.021,-0.009,-88.472,111.872,118.487
1747656573.34,-0.061,0.033,0.010,-0.010,-0.065,-0.032,-88.475,112.618,119.255
1747656573.35,-0.131,0.005,-0.036,-0.002,-0.112,-0.071,-88.502,113.021,119.679
1747656573.36,-0.180,-0.029,-0.025,-0.020,-0.004,-0.080,-88.538,113.828,120.526
1747656573.37,-0.176,-0.054,0.028,-0.032,0.201,-0.044,-88.562,114.962,121.557
1747656573.38,-0.128,-0.054,0.081,-0.061,0.364,0.001,-88.559,116.181,122.613
1747656573.39,-0.094,-0.027,0.120,-0.090,0.436,0.025,-88.528,117.787,123.939
1747656573.40,-0.087,0.009,0.137,-0.066,0.339,0.001,-88.496,119.477,125.401
1747656573.41,-0.096,0.037,0.074,-0.008,0.129,-0.034,-88.493,120.555,126.309
1747656573.42,-0.099,0.042,-0.016,0.001,0.039,-0.037,-88.513,121.056,126.769
1747656573.43,-0.052,0.013,-0.003,-0.001,0.075,-0.012,-88.529,121.428,127.074
1747656573.44,0.038,-0.029,0.052,0.024,0.084,0.004,-88.540,121.430,127.027
1747656573.45,0.113,-0.049,0.042,0.039,0.042,0.013,-88.549,120.857,126.379
1747656573.46,0.151,-0.032,0.031,0.022,0.008,0.035,-88.548,120.173,125.680
1747656573.47,0.169,-0.001,0.064,0.021,-0.040,0.055,-88.531,119.304,124.771
1747656573.48,0.166,0.032,0.055,0.045,-0.147,0.045,-88.514,118.067,123.584
1747656573.49,0.114,0.056,0.001,0.047,-0.276,0.031,-88.508,116.652,122.265
1747656573.50,0.043,0.044,-0.019,0.047,-0.328,0.026,-88.505,115.318,121.081
1747656573.51,-0.011,0.007,-0.011,0.081,-0.319,0.039,-88.502,113.571,119.520
1747656573.52,-0.048,-0.027,-0.013,0.124,-0.260,0.056,-88.500,110.892,116.982
1747656573.53,-0.069,-0.040,-0.026,0.114,-0.133,0.056,-88.494,107.831,114.034
1747656573.54,-0.076,-0.029,-0.006,0.075,0.007,0.050,-88.476,105.471,111.682
1747656573.55,-0.073,-0.007,0.015,0.045,0.079,0.034,-88.455,104.112,110.293
1747656573.56,-0.072,0.019,-0.009,0.043,0.046,0.008,-88.445,103.205,109.322
1747656573.57,-0.077,0.030,-0.037,0.066,-0.005,0.002,-88.448,102.074,108.180
1747656573.58,-0.076,0.024,-0.058,0.087,-0.026,0.017,-88.451,100.428,106.524
1747656573.59,-0.051,0.008,-0.059,0.105,-0.006,0.054,-88.440,98.250,104.356
1747656573.60,-0.019,-0.003,-0.042,0.087,0.116,0.087,-88.407,96.059,102.102
1747656573.61,0.009,-0.010,0.011,0.055,0.248,0.099,-88.359,94.604,100.538
1747656573.62,0.029,-0.012,0.056,0.056,0.226,0.092,-88.310,93.564,99.336
1747656573.63,0.025,-0.007,0.030,0.065,0.129,0.080,-88.266,92.470,98.140
1747656573.64,0.009,0.000,-0.009,0.068,0.070,0.078,-88.230,91.213,96.801
1747656573.65,0.012,0.001,-0.020,0.056,0.028,0.090,-88.195,89.942,95.502
1747656573.66,0.033,-0.003,-0.005,0.040,-0.018,0.094,-88.154,88.856,94.384
1747656573.67,0.052,-0.006,0.019,0.050,-0.065,0.085,-88.108,87.939,93.489
1747656573.68,0.057,-0.002,0.028,0.090,-0.128,0.054,-88.068,86.632,92.206
1747656573.69,0.040,0.001,0.009,0.117,-0.179,0.022,-88.042,84.856,90.518
1747656573.70,0.020,0.004,-0.013,0.126,-0.209,-0.006,-88.029,82.970,88.714
1747656573.71,0.009,0.003,-0.029,0.140,-0.213,-0.009,-88.021,80.817,86.681
1747656573.72,0.003,-0.004,-0.037,0.187,-0.201,0.007,-88.004,78.071,84.021
1747656573.73,0.004,-0.009,-0.041,0.245,-0.181,0.021,-87.965,74.527,80.585
1747656573.74,0.001,-0.003,-0.045,0.247,-0.164,0.043,-87.897,70.872,77.000
1747656573.75,-0.005,0.014,-0.026,0.200,-0.153,0.057,-87.815,68.183,74.401
1747656573.76,-0.021,0.032,-0.005,0.185,-0.097,0.057,-87.734,66.268,72.533
1747656573.77,-0.053,0.044,-0.003,0.199,-0.049,0.057,-87.652,64.361,70.665
1747656573.78,-0.084,0.024,0.008,0.217,0.022,0.062,-87.565,62.239,68.524
1747656573.79,-0.097,-0.010,0.024,0.253,0.111,0.087,-87.460,60.021,66.264
1747656573.80,-0.089,-0.031,0.036,0.299,0.141,0.113,-87.329,57.740,63.885
1747656573.81,-0.079,-0.028,0.028,0.341,0.149,0.119,-87.170,55.341,61.402
1747656573.82,-0.069,-0.005,0.009,0.321,0.169,0.122,-87.001,53.103,59.052
1747656573.83,-0.043,0.015,0.017,0.282,0.177,0.126,-86.841,51.463,57.309
1747656573.84,-0.010,0.021,0.039,0.278,0.117,0.126,-86.686,50.171,55.906
1747656573.85,0.009,0.016,0.037,0.295,0.050,0.132,-86.525,48.921,54.607
1747656573.86,0.023,0.001,0.028,0.328,0.040,0.143,-86.349,47.654,53.287
1747656573.87,0.042,-0.021,0.032,0.391,0.030,0.150,-86.148,46.278,51.887
1747656573.88,0.045,-0.037,0.032,0.454,-0.010,0.142,-85.918,44.632,50.202
1747656573.89,0.032,-0.032,0.011,0.505,-0.048,0.123,-85.666,42.793,48.373
1747656573.90,-0.001,-0.006,0.008,0.494,-0.109,0.095,-85.409,40.885,46.474
1747656573.91,-0.040,0.023,0.001,0.438,-0.160,0.060,-85.176,39.132,44.794
1747656573.92,-0.066,0.040,0.023,0.392,-0.118,0.043,-84.972,37.603,43.302
1747656573.93,-0.066,0.032,0.080,0.379,-0.055,0.052,-84.781,36.332,42.076
1747656573.94,-0.047,0.000,0.114,0.406,-0.019,0.081,-84.577,35.231,40.958
1747656573.95,-0.025,-0.026,0.100,0.437,-0.033,0.116,-84.347,34.276,40.012
1747656573.96,-0.007,-0.032,0.061,0.458,-0.053,0.153,-84.092,33.476,39.201
1747656573.97,0.010,-0.024,0.038,0.513,-0.031,0.174,-83.810,32.780,38.525
1747656573.98,0.030,-0.014,0.029,0.611,-0.017,0.173,-83.486,31.985,37.715
1747656573.99,0.039,0.003,0.015,0.652,-0.050,0.161,-83.125,31.034,36.778
1747656574.00,0.026,0.019,0.027,0.618,-0.059,0.156,-82.767,30.141,35.885
1747656574.01,0.000,0.022,0.064,0.591,-0.082,0.145,-82.424,29.359,35.137
1747656574.02,-0.043,0.017,0.022,0.572,-0.014,0.132,-82.095,28.650,34.439
1747656574.03,-0.070,0.001,0.004,0.555,0.071,0.130,-81.776,28.048,33.813
1747656574.04,-0.065,-0.020,0.032,0.573,0.121,0.156,-81.456,27.569,33.252
1747656574.05,-0.050,-0.039,0.039,0.656,0.174,0.207,-81.098,27.207,32.802
1747656574.06,-0.015,-0.050,0.024,0.770,0.212,0.248,-80.676,26.896,32.354
1747656574.07,0.024,-0.033,0.001,0.889,0.185,0.258,-80.187,26.523,31.857
1747656574.08,0.035,0.002,-0.025,0.977,0.071,0.213,-79.646,25.945,31.176
1747656574.09,0.002,0.038,-0.057,0.942,0.034,0.135,-79.105,25.183,30.377
1747656574.10,-0.051,0.053,-0.040,0.829,0.151,0.060,-78.622,24.403,29.532
1747656574.11,-0.092,0.035,0.031,0.733,0.286,0.024,-78.209,23.749,28.734
1747656574.12,-0.122,-0.011,0.092,0.758,0.343,0.035,-77.815,23.207,27.975
1747656574.13,-0.160,-0.037,0.025,0.775,0.355,0.071,-77.398,22.745,27.298
1747656574.14,-0.205,-0.020,-0.053,0.775,0.423,0.121,-76.970,22.436,26.757
1747656574.15,-0.212,0.007,-0.052,0.873,0.543,0.164,-76.507,22.281,26.314
1747656574.16,-0.144,0.018,-0.048,1.007,0.614,0.203,-75.969,22.181,25.845
1747656574.17,-0.042,0.023,-0.060,1.086,0.631,0.214,-75.368,22.092,25.384
1747656574.18,0.032,0.032,-0.082,1.073,0.714,0.185,-74.748,22.001,24.871
1747656574.19,0.054,0.038,-0.046,1.009,0.805,0.119,-74.166,21.931,24.344
1747656574.20,0.033,0.037,0.080,1.018,0.695,0.062,-73.611,21.785,23.698
1747656574.21,-0.017,0.013,0.101,1.003,0.572,0.044,-73.063,21.513,23.043
1747656574.22,-0.064,-0.028,0.067,0.972,0.618,0.084,-72.525,21.289,22.420
1747656574.23,-0.056,-0.066,0.059,0.950,0.645,0.154,-71.989,21.229,21.974
1747656574.24,-0.050,-0.085,0.021,0.920,0.566,0.209,-71.453,21.284,21.638
1747656574.25,-0.063,-0.078,-0.058,0.875,0.558,0.247,-70.928,21.415,21.440
1747656574.26,-0.028,-0.060,-0.082,0.910,0.593,0.267,-70.404,21.608,21.257
1747656574.27,0.064,-0.038,-0.042,1.073,0.567,0.268,-69.823,21.760,21.065
1747656574.28,0.142,-0.016,-0.010,1.228,0.524,0.236,-69.156,21.779,20.720
1747656574.29,0.167,0.007,0.027,1.260,0.429,0.165,-68.447,21.648,20.285
1747656574.30,0.114,0.026,0.080,1.189,0.276,0.103,-67.768,21.384,19.746
1747656574.31,0.013,0.018,0.135,1.112,0.271,0.106,-67.134,21.085,19.263
1747656574.32,-0.049,-0.015,0.102,1.001,0.429,0.182,-66.541,20.954,18.861
1747656574.33,-0.040,-0.048,0.080,0.958,0.391,0.280,-65.976,21.027,18.674
1747656574.34,-0.028,-0.062,0.064,1.001,0.197,0.365,-65.388,21.135,18.571
1747656574.35,-0.013,-0.046,-0.017,1.046,0.076,0.410,-64.763,21.206,18.539
1747656574.36,0.069,-0.013,-0.049,1.137,0.011,0.368,-64.102,21.201,18.505
1747656574.37,0.165,0.023,-0.047,1.297,-0.091,0.233,-63.391,21.003,18.282
1747656574.38,0.192,0.045,-0.011,1.377,-0.204,0.071,-62.639,20.541,17.859
1747656574.39,0.111,0.050,0.103,1.294,-0.247,-0.064,-61.922,19.906,17.273
1747656574.40,-0.047,0.020,0.163,1.223,-0.135,-0.162,-61.265,19.233,16.636
1747656574.41,-0.201,-0.015,-0.003,1.007,0.020,-0.198,-60.690,18.642,15.973
1747656574.42,-0.300,-0.030,-0.129,0.771,0.164,-0.096,-60.242,18.265,15.479
1747656574.43,-0.288,-0.049,-0.073,0.764,0.325,0.137,-59.832,18.187,15.199
1747656574.44,-0.169,-0.040,0.087,0.987,0.394,0.404,-59.313,18.386,15.186
1747656574.45,-0.019,0.013,0.153,1.268,0.336,0.520,-58.614,18.685,15.249
1747656574.46,0.068,0.096,0.075,1.433,0.257,0.455,-57.787,18.885,15.287
1747656574.47,0.093,0.170,0.001,1.403,0.199,0.238,-56.949,18.901,15.127
1747656574.48,0.064,0.186,-0.047,1.282,0.058,0.036,-56.199,18.711,14.806
1747656574.49,-0.016,0.147,-0.033,1.184,-0.038,-0.060,-55.534,18.364,14.371
1747656574.50,-0.089,0.083,0.070,1.098,0.119,-0.098,-54.931,18.024,13.937
1747656574.51,-0.143,0.018,0.141,1.060,0.246,-0.116,-54.366,17.786,13.497
1747656574.52,-0.183,-0.026,0.033,1.019,0.255,-0.113,-53.819,17.591,13.079
1747656574.53,-0.210,-0.036,-0.084,0.953,0.297,-0.064,-53.298,17.451,12.672
1747656574.54,-0.197,-0.032,-0.095,0.965,0.327,0.020,-52.783,17.400,12.381
1747656574.55,-0.149,-0.021,-0.049,1.049,0.300,0.078,-52.226,17.392,12.109
1747656574.56,-0.110,0.013,0.002,1.161,0.310,0.048,-51.612,17.369,11.862
1747656574.57,-0.104,0.078,0.053,1.299,0.433,-0.113,-50.947,17.298,11.483
1747656574.58,-0.131,0.138,0.095,1.311,0.412,-0.242,-50.264,17.140,10.976
1747656574.59,-0.173,0.163,0.129,1.298,0.464,-0.325,-49.599,16.947,10.357
1747656574.60,-0.210,0.158,0.099,1.311,0.462,-0.399,-48.947,16.731,9.719
1747656574.61,-0.253,0.132,0.037,1.342,0.427,-0.430,-48.290,16.479,9.007
1747656574.62,-0.248,0.098,-0.003,1.388,0.417,-0.359,-47.606,16.232,8.351
1747656574.63,-0.155,0.049,-0.013,1.434,0.364,-0.259,-46.880,16.033,7.717
1747656574.64,-0.025,0.011,-0.003,1.482,0.375,-0.219,-46.116,15.857,7.200
1747656574.65,0.101,-0.009,0.011,1.472,0.255,-0.361,-45.336,15.648,6.556
1747656574.66,0.210,-0.040,0.013,1.369,0.314,-0.251,-44.604,15.414,6.002
1747656574.67,0.381,-0.053,0.036,1.234,0.332,-0.117,-43.910,15.320,5.521
1747656574.68,0.429,-0.107,0.007,1.070,0.124,-0.028,-43.286,15.251,5.222
1747656574.69,0.353,-0.153,0.011,0.922,-0.069,0.128,-42.733,15.145,4.988
1747656574.70,0.274,-0.174,0.109,0.924,0.023,0.329,-42.197,15.112,4.973
1747656574.71,0.290,-0.173,0.229,1.075,0.198,0.510,-41.586,15.254,5.014
1747656574.72,0.349,-0.144,0.260,1.240,0.209,0.630,-40.860,15.499,5.199
1747656574.73,0.330,-0.106,0.149,1.316,0.069,0.713,-40.051,15.729,5.362
1747656574.74,0.239,-0.076,0.024,1.344,-0.147,0.743,-39.206,15.868,5.614
1747656574.75,0.156,-0.048,-0.010,1.353,-0.277,0.710,-38.350,15.896,5.789
1747656574.76,0.121,-0.023,-0.023,1.368,-0.319,0.603,-37.500,15.841,5.978
1747656574.77,0.119,-0.008,0.003,1.355,-0.366,0.497,-36.665,15.712,6.055
1747656574.78,0.105,-0.025,-0.002,1.304,-0.361,0.441,-35.860,15.540,6.119
1747656574.79,0.087,-0.056,-0.003,1.211,-0.300,0.458,-35.100,15.386,6.153
1747656574.80,0.057,-0.089,0.014,1.194,-0.208,0.551,-34.366,15.309,6.270
1747656574.81,0.027,-0.113,0.039,1.221,-0.171,0.624,-33.612,15.298,6.420
1747656574.82,-0.031,-0.103,0.057,1.271,-0.111,0.663,-32.828,15.327,6.622
1747656574.83,-0.093,-0.052,0.065,1.330,-0.103,0.643,-32.010,15.376,6.795
1747656574.84,-0.122,0.017,0.036,1.381,-0.151,0.558,-31.172,15.384,6.945
1747656574.85,-0.145,0.087,0.020,1.446,-0.172,0.484,-30.316,15.332,7.012
1747656574.86,-0.129,0.116,0.033,1.503,-0.136,0.406,-29.434,15.258,7.038
1747656574.87,-0.069,0.153,0.029,1.579,0.080,0.223,-28.546,15.181,6.971
1747656574.88,-0.056,0.170,0.015,1.477,-0.202,0.213,-27.671,15.056,6.833
1747656574.89,-0.065,0.091,0.003,1.429,-0.154,0.361,-26.827,14.923,6.757
1747656574.90,0.013,0.061,0.022,1.378,-0.148,0.446,-25.996,14.849,6.781
1747656574.91,-0.006,0.019,0.014,1.438,-0.153,0.467,-25.155,14.785,6.823
1747656574.92,-0.041,0.013,0.041,1.502,-0.132,0.482,-24.270,14.723,6.874
1747656574.93,-0.048,0.031,0.039,1.556,-0.096,0.469,-23.355,14.677,6.911
1747656574.94,-0.035,0.033,0.067,1.612,-0.052,0.429,-22.414,14.642,6.934
1747656574.95,-0.011,0.007,0.083,1.673,0.007,0.358,-21.450,14.620,6.909
1747656574.96,0.006,0.049,0.081,1.741,0.094,0.291,-20.460,14.627,6.836
1747656574.97,-0.009,0.070,0.068,1.761,0.110,0.266,-19.450,14.648,6.726
1747656574.98,-0.068,0.026,0.046,1.745,0.094,0.293,-18.442,14.671,6.621
1747656574.99,-0.145,0.020,0.036,1.708,0.128,0.356,-17.441,14.708,6.547
1747656575.00,-0.171,-0.023,-0.003,1.657,0.149,0.379,-16.457,14.776,6.506
1747656575.01,-0.134,0.015,-0.031,1.598,0.189,0.343,-15.506,14.860,6.465
1747656575.02,-0.079,0.080,-0.037,1.650,0.219,0.316,-14.566,14.963,6.405
1747656575.03,-0.032,0.111,0.012,1.878,0.295,0.181,-13.570,15.072,6.291
1747656575.04,-0.040,0.078,0.069,1.893,-0.057,0.212,-12.506,15.057,6.110
1747656575.05,-0.027,0.086,0.079,2.020,-0.044,0.262,-11.393,14.994,5.924
1747656575.06,0.045,0.054,0.115,2.158,0.047,0.230,-10.201,14.959,5.750
1747656575.07,0.041,0.003,0.090,2.164,0.169,0.207,-8.973,14.981,5.526
1747656575.08,0.016,0.007,0.069,2.233,0.316,0.335,-7.722,15.098,5.342
1747656575.09,0.001,-0.025,0.025,2.104,0.388,0.467,-6.453,15.285,5.220
1747656575.10,-0.029,-0.036,0.035,1.807,0.457,0.452,-5.309,15.530,5.179
1747656575.11,-0.022,0.050,0.031,1.764,0.298,0.445,-4.268,15.747,5.134
1747656575.12,0.007,0.069,-0.067,1.774,0.212,0.451,-3.222,15.886,5.105
1747656575.13,0.039,0.077,-0.035,1.747,0.153,0.416,-2.190,15.992,5.058
1747656575.14,0.061,0.069,-0.009,1.785,0.077,0.392,-1.158,16.054,5.001
1747656575.15,0.033,0.012,-0.007,1.781,0.074,0.373,-0.116,16.090,4.916
1747656575.16,-0.025,0.041,0.061,1.749,0.147,0.367,0.911,16.155,4.839
1747656575.17,-0.053,0.005,0.089,1.733,0.142,0.371,1.922,16.243,4.759
1747656575.18,-0.015,-0.014,0.003,1.752,0.034,0.404,2.943,16.303,4.708
1747656575.19,0.039,0.049,-0.071,1.697,-0.046,0.394,3.948,16.295,4.654
1747656575.20,0.063,0.121,-0.023,1.780,-0.088,0.183,4.971,16.390,4.528
1747656575.21,-0.001,0.077,-0.023,1.710,-0.122,0.271,5.947,16.333,4.373
1747656575.22,-0.030,0.053,-0.012,1.767,-0.059,0.277,6.953,16.295,4.268
1747656575.23,-0.114,-0.010,-0.074,1.736,0.048,0.220,7.951,16.310,4.123
1747656575.24,-0.161,-0.009,-0.042,1.798,-0.074,0.277,8.947,16.356,3.976
1747656575.25,-0.091,-0.021,-0.062,1.705,0.080,0.333,10.040,16.445,3.849
1747656575.26,0.007,-0.170,-0.130,1.633,0.124,0.152,10.954,16.531,3.719
1747656575.27,-0.022,0.128,0.185,1.648,0.089,0.097,11.889,16.637,3.508
1747656575.28,0.079,0.094,-0.109,1.618,-0.068,0.078,12.785,16.688,3.289
1747656575.29,0.114,0.023,-0.037,1.621,-0.111,0.148,13.695,16.681,3.079
1747656575.30,0.167,-0.084,-0.104,1.606,-0.137,0.121,14.601,16.657,2.880
1747656575.31,0.153,-0.045,-0.110,1.580,-0.100,0.098,15.489,16.642,2.673
1747656575.32,0.060,0.058,-0.140,1.537,0.017,0.096,16.361,16.671,2.448
1747656575.33,-0.033,0.052,-0.159,1.448,0.185,0.100,17.193,16.787,2.250
1747656575.34,-0.094,-0.000,-0.095,1.364,0.285,0.123,17.978,16.979,2.046
1747656575.35,-0.074,-0.055,-0.064,1.228,0.316,0.148,18.708,17.207,1.896
1747656575.36,0.040,-0.234,-0.080,1.142,0.233,0.125,19.376,17.407,1.769
1747656575.37,0.125,-0.192,-0.169,1.050,0.109,0.084,19.995,17.552,1.629
1747656575.38,0.185,-0.121,-0.204,0.864,-0.008,0.050,20.530,17.624,1.500
1747656575.39,0.183,-0.130,-0.175,0.713,-0.005,-0.090,20.953,17.689,1.352
1747656575.40,0.168,-0.237,-0.241,0.441,-0.068,0.041,21.251,17.694,1.221
1747656575.41,0.170,-0.294,-0.228,0.323,0.026,0.082,21.475,17.692,1.191
1747656575.42,0.091,-0.262,-0.217,0.139,0.145,0.086,21.613,17.740,1.180
1747656575.43,0.001,-0.217,-0.227,-0.024,0.206,0.113,21.663,17.825,1.228
1747656575.44,0.035,-0.229,-0.242,-0.207,0.223,0.106,21.622,17.918,1.311
1747656575.45,0.065,-0.200,-0.232,-0.401,0.191,0.087,21.473,17.995,1.426
1747656575.46,0.099,-0.244,-0.202,-0.609,0.126,0.083,21.215,18.032,1.573
1747656575.47,0.123,-0.293,-0.213,-0.797,0.068,0.084,20.845,18.023,1.754
1747656575.48,0.161,-0.248,-0.251,-0.934,-0.006,0.090,20.388,17.966,1.978
1747656575.49,0.173,-0.182,-0.280,-1.056,-0.034,0.094,19.867,17.869,2.216
1747656575.50,0.146,-0.138,-0.278,-1.247,-0.031,0.116,19.258,17.759,2.496
1747656575.51,0.117,-0.125,-0.234,-1.400,0.027,0.152,18.561,17.653,2.816
1747656575.52,0.089,-0.128,-0.196,-1.522,0.060,0.154,17.791,17.569,3.204
1747656575.53,0.085,-0.112,-0.199,-1.622,0.059,0.149,16.960,17.491,3.575
1747656575.54,0.087,-0.079,-0.242,-1.695,0.073,0.161,16.081,17.418,3.998
1747656575.55,0.098,-0.049,-0.223,-1.742,0.092,0.157,15.172,17.359,4.392
1747656575.56,0.079,0.004,-0.149,-1.793,0.083,0.159,14.234,17.308,4.830
1747656575.57,0.027,0.046,-0.120,-1.865,0.112,0.173,13.267,17.262,5.243
1747656575.58,-0.000,0.027,-0.140,-1.929,0.162,0.184,12.262,17.250,5.718
1747656575.59,0.008,-0.018,-0.134,-2.024,0.145,0.217,11.219,17.244,6.170
1747656575.60,0.026,-0.041,-0.157,-2.076,0.121,0.271,10.140,17.233,6.676
1747656575.61,0.079,-0.023,-0.153,-2.151,0.074,0.307,9.036,17.198,7.199
1747656575.62,0.122,0.006,-0.153,-2.203,0.052,0.296,7.898,17.157,7.768
1747656575.63,0.152,0.017,-0.135,-2.238,-0.011,0.252,6.732,17.099,8.295
1747656575.64,0.129,0.012,-0.082,-2.237,-0.013,0.218,5.547,17.036,8.839
1747656575.65,0.079,-0.006,0.029,-2.239,-0.010,0.198,4.360,16.984,9.329
1747656575.66,0.025,-0.020,0.068,-2.228,0.034,0.160,3.169,16.960,9.861
1747656575.67,-0.022,-0.017,0.054,-2.175,0.001,0.128,1.990,16.951,10.307
1747656575.68,-0.079,-0.009,0.045,-2.159,0.031,0.106,0.826,16.946,10.799
1747656575.69,-0.097,-0.011,0.057,-2.131,0.126,0.086,-0.329,16.992,11.210
1747656575.70,-0.060,-0.018,0.034,-2.168,0.088,0.061,-1.489,17.062,11.669
1747656575.71,-0.024,-0.025,-0.012,-2.209,0.070,0.061,-2.676,17.117,12.069
1747656575.72,0.006,-0.020,-0.017,-2.185,0.059,0.069,-3.866,17.179,12.535
1747656575.73,0.025,-0.000,0.006,-2.138,0.049,0.028,-5.036,17.239,12.930
1747656575.74,-0.042,0.024,0.015,-2.071,0.081,-0.065,-6.189,17.310,13.351
1747656575.75,-0.146,0.017,0.022,-1.994,0.084,-0.189,-7.317,17.390,13.629
1747656575.76,-0.244,-0.021,0.036,-1.947,0.167,-0.286,-8.432,17.486,13.901
1747656575.77,-0.262,-0.093,0.062,-1.925,0.308,-0.331,-9.537,17.647,14.066
1747656575.78,-0.206,-0.157,0.061,-1.969,0.405,-0.335,-10.653,17.885,14.302
1747656575.79,-0.152,-0.176,0.061,-2.006,0.446,-0.309,-11.790,18.163,14.482
1747656575.80,-0.110,-0.157,0.020,-2.024,0.455,-0.295,-12.935,18.465,14.776
1747656575.81,-0.080,-0.094,-0.021,-2.037,0.441,-0.296,-14.089,18.772,14.992
1747656575.82,-0.073,-0.005,0.022,-2.032,0.398,-0.293,-15.243,19.069,15.311
1747656575.83,-0.036,0.072,0.052,-2.019,0.333,-0.296,-16.393,19.340,15.543
1747656575.84,0.029,0.126,0.070,-1.926,0.311,-0.314,-17.515,19.590,15.850
1747656575.85,0.106,0.145,0.068,-1.839,0.267,-0.351,-18.591,19.815,16.043
1747656575.86,0.128,0.126,0.026,-1.782,0.205,-0.370,-19.631,20.003,16.292
1747656575.87,0.076,0.063,-0.018,-1.786,0.176,-0.382,-20.661,20.165,16.450
1747656575.88,0.002,-0.009,-0.045,-1.787,0.131,-0.400,-21.694,20.311,16.686
1747656575.89,-0.061,-0.053,0.022,-1.829,0.129,-0.388,-22.740,20.439,16.844
1747656575.90,-0.057,-0.084,0.113,-1.941,0.175,-0.333,-23.819,20.610,17.119
1747656575.91,0.068,-0.091,0.117,-2.047,0.096,-0.259,-24.949,20.797,17.388
1747656575.92,0.184,-0.060,0.075,-2.026,0.070,-0.148,-26.081,20.991,17.808
1747656575.93,0.264,-0.028,0.066,-1.989,0.035,-0.037,-27.168,21.204,18.214
1747656575.94,0.290,-0.002,0.060,-1.977,-0.046,0.024,-28.223,21.416,18.757
1747656575.95,0.212,0.005,0.032,-1.893,-0.136,0.040,-29.249,21.597,19.242
1747656575.96,0.096,-0.017,-0.005,-1.773,-0.192,0.035,-30.211,21.734,19.802
1747656575.97,0.019,-0.058,-0.054,-1.814,-0.184,-0.035,-31.157,21.850,20.243
1747656575.98,-0.034,-0.093,-0.058,-1.868,-0.227,-0.154,-32.155,21.949,20.733
1747656575.99,-0.125,-0.119,-0.031,-1.834,-0.274,-0.265,-33.182,21.984,21.070
1747656576.00,-0.213,-0.149,-0.015,-1.848,-0.213,-0.309,-34.216,22.000,21.424
1747656576.01,-0.192,-0.176,0.062,-1.942,-0.154,-0.295,-35.285,22.068,21.766
1747656576.02,-0.104,-0.185,0.105,-1.954,-0.155,-0.265,-36.379,22.178,22.102
1747656576.03,-0.017,-0.171,0.101,-1.856,-0.098,-0.216,-37.442,22.316,22.512
1747656576.04,0.076,-0.145,0.075,-1.701,0.016,-0.185,-38.423,22.517,22.870
1747656576.05,0.135,-0.104,-0.015,-1.643,-0.061,-0.201,-39.342,22.722,23.264
1747656576.06,0.083,-0.062,-0.109,-1.673,-0.094,-0.240,-40.263,22.882,23.591
1747656576.07,-0.031,-0.047,-0.106,-1.651,-0.031,-0.272,-41.196,23.049,23.956
1747656576.08,-0.129,-0.067,-0.047,-1.626,0.079,-0.274,-42.116,23.259,24.255
1747656576.09,-0.171,-0.107,0.016,-1.687,0.159,-0.253,-43.041,23.548,24.618
1747656576.10,-0.135,-0.139,0.101,-1.751,0.051,-0.224,-43.996,23.872,24.990
1747656576.11,-0.058,-0.139,0.117,-1.746,-0.145,-0.173,-44.957,24.144,25.465
1747656576.12,0.045,-0.115,0.093,-1.742,-0.299,-0.087,-45.895,24.360,25.949
1747656576.13,0.166,-0.076,0.070,-1.743,-0.445,0.006,-46.810,24.561,26.551
1747656576.14,0.262,-0.013,0.052,-1.699,-0.635,0.058,-47.698,24.718,27.184
1747656576.15,0.276,0.059,0.009,-1.612,-0.753,0.028,-48.546,24.788,27.852
1747656576.16,0.222,0.116,-0.035,-1.536,-0.751,-0.088,-49.367,24.772,28.404
1747656576.17,0.121,0.138,-0.038,-1.509,-0.664,-0.230,-50.195,24.698,28.868
1747656576.18,0.017,0.110,-0.050,-1.486,-0.638,-0.353,-51.042,24.582,29.191
1747656576.19,-0.094,0.050,-0.022,-1.514,-0.731,-0.411,-51.911,24.380,29.470
1747656576.20,-0.210,-0.008,0.019,-1.575,-0.672,-0.358,-52.808,24.179,29.731
1747656576.21,-0.218,-0.063,0.096,-1.557,-0.573,-0.233,-53.697,24.113,30.132
1747656576.22,-0.137,-0.084,0.130,-1.531,-0.636,-0.101,-54.539,24.147,30.596
1747656576.23,-0.043,-0.066,0.083,-1.558,-0.695,0.034,-55.351,24.256,31.238
1747656576.24,0.080,-0.032,0.043,-1.515,-0.739,0.141,-56.133,24.452,31.969
1747656576.25,0.199,0.001,-0.012,-1.420,-0.846,0.168,-56.857,24.654,32.784
1747656576.26,0.242,0.018,-0.079,-1.390,-0.859,0.107,-57.550,24.794,33.539
1747656576.27,0.203,0.013,-0.088,-1.396,-0.767,-0.003,-58.259,24.913,34.258
1747656576.28,0.091,-0.009,-0.070,-1.346,-0.804,-0.157,-58.990,24.945,34.816
1747656576.29,-0.091,-0.031,-0.135,-1.255,-0.852,-0.317,-59.721,24.785,35.229
1747656576.30,-0.275,-0.048,-0.180,-1.148,-0.714,-0.428,-60.435,24.486,35.410
1747656576.31,-0.392,-0.079,-0.118,-1.036,-0.451,-0.474,-61.109,24.188,35.486
1747656576.32,-0.449,-0.115,-0.092,-0.977,-0.232,-0.474,-61.743,23.968,35.453
1747656576.33,-0.489,-0.137,-0.125,-0.976,-0.016,-0.456,-62.360,23.863,35.461
1747656576.34,-0.491,-0.143,-0.120,-0.990,0.251,-0.439,-62.976,23.918,35.449
1747656576.35,-0.437,-0.132,-0.087,-1.012,0.472,-0.429,-63.598,24.142,35.507
1747656576.36,-0.345,-0.107,-0.072,-1.023,0.600,-0.442,-64.231,24.479,35.537
1747656576.37,-0.237,-0.075,-0.042,-0.981,0.666,-0.448,-64.861,24.860,35.595
1747656576.38,-0.127,-0.035,-0.030,-0.879,0.663,-0.426,-65.449,25.236,35.590
1747656576.39,-0.010,0.003,-0.057,-0.806,0.630,-0.379,-65.980,25.602,35.622
1747656576.40,0.102,0.034,-0.044,-0.814,0.580,-0.335,-66.484,25.990,35.668
1747656576.40,0.183,0.051,0.043,-0.764,0.532,-0.314,-66.974,26.390,35.783
1747656576.42,0.219,0.061,0.072,-0.689,0.426,-0.336,-67.423,26.711,35.831
1747656576.43,0.203,0.074,0.001,-0.785,0.241,-0.349,-67.882,26.930,35.859
1747656576.44,0.184,0.064,-0.001,-0.901,0.085,-0.322,-68.401,27.144,35.991
1747656576.44,0.194,0.025,0.029,-0.921,-0.012,-0.289,-68.945,27.381,36.228
1747656576.45,0.199,-0.020,0.038,-0.854,-0.029,-0.248,-69.468,27.628,36.507
1747656576.46,0.213,-0.065,0.035,-0.765,0.002,-0.189,-69.935,27.904,36.804
1747656576.47,0.248,-0.105,-0.007,-0.711,-0.049,-0.170,-70.353,28.199,37.127
1747656576.48,0.219,-0.117,-0.037,-0.738,-0.190,-0.230,-70.768,28.403,37.429
1747656576.49,0.099,-0.087,-0.068,-0.782,-0.235,-0.322,-71.227,28.481,37.644
1747656576.50,-0.023,-0.039,-0.017,-0.712,-0.196,-0.407,-71.703,28.417,37.717
1747656576.51,-0.109,0.009,0.025,-0.654,-0.170,-0.462,-72.160,28.201,37.599
1747656576.52,-0.167,0.046,0.017,-0.725,-0.125,-0.464,-72.632,27.957,37.442
1747656576.53,-0.191,0.067,0.057,-0.774,-0.035,-0.417,-73.130,27.839,37.366
1747656576.54,-0.186,0.075,0.079,-0.807,0.070,-0.357,-73.631,27.899,37.413
1747656576.55,-0.166,0.069,0.049,-0.835,0.128,-0.313,-74.136,28.138,37.599
1747656576.56,-0.137,0.057,0.024,-0.804,0.176,-0.276,-74.628,28.489,37.864
1747656576.57,-0.087,0.029,0.025,-0.761,0.295,-0.237,-75.090,28.937,38.190
1747656576.58,-0.020,-0.005,0.059,-0.726,0.367,-0.211,-75.522,29.496,38.556
1747656576.59,0.019,-0.021,0.086,-0.721,0.287,-0.189,-75.937,30.105,38.986
1747656576.60,0.013,-0.013,0.066,-0.690,0.170,-0.179,-76.339,30.699,39.463
1747656576.61,-0.019,0.015,0.008,-0.693,0.172,-0.218,-76.732,31.234,39.917
1747656576.62,-0.065,0.040,-0.014,-0.726,0.225,-0.286,-77.156,31.731,40.296
1747656576.63,-0.098,0.062,0.049,-0.658,0.239,-0.342,-77.591,32.126,40.563
1747656576.64,-0.117,0.055,0.056,-0.548,0.208,-0.373,-77.989,32.293,40.588
1747656576.65,-0.120,0.032,-0.016,-0.568,0.234,-0.366,-78.367,32.356,40.528
1747656576.66,-0.090,0.004,-0.020,-0.631,0.298,-0.313,-78.764,32.613,40.628
1747656576.67,-0.040,-0.021,0.035,-0.607,0.301,-0.248,-79.150,33.084,40.931
1747656576.68,-0.018,-0.022,0.017,-0.615,0.275,-0.200,-79.508,33.698,41.393
1747656576.69,-0.029,-0.009,0.029,-0.667,0.277,-0.176,-79.873,34.505,42.054
1747656576.70,-0.037,-0.001,0.081,-0.632,0.285,-0.173,-80.236,35.428,42.804
1747656576.71,-0.025,0.000,0.036,-0.555,0.276,-0.184,-80.569,36.270,43.496
1747656576.72,-0.000,-0.001,-0.045,-0.533,0.281,-0.187,-80.881,37.041,44.102
1747656576.73,0.036,-0.013,-0.060,-0.492,0.280,-0.185,-81.178,37.801,44.709
1747656576.74,0.072,-0.020,-0.054,-0.444,0.287,-0.194,-81.456,38.488,45.226
1747656576.75,0.085,-0.014,-0.059,-0.407,0.245,-0.192,-81.713,39.077,45.667
1747656576.76,0.091,-0.008,-0.061,-0.464,0.242,-0.176,-81.969,39.728,46.162
1747656576.77,0.108,-0.013,-0.021,-0.609,0.319,-0.149,-82.262,40.800,47.082
1747656576.78,0.124,-0.026,0.064,-0.694,0.297,-0.114,-82.595,42.449,48.542
1747656576.79,0.110,-0.041,0.093,-0.639,0.131,-0.092,-82.913,44.309,50.289
1747656576.80,0.055,-0.036,0.020,-0.596,-0.021,-0.077,-83.194,46.102,52.054
1747656576.81,0.006,-0.045,-0.028,-0.566,-0.010,-0.053,-83.448,47.948,53.925
1747656576.82,0.016,-0.066,0.015,-0.439,-0.015,-0.038,-83.659,49.739,55.710
1747656576.83,0.037,-0.061,-0.003,-0.260,-0.078,-0.043,-83.803,50.974,56.980
1747656576.84,0.027,-0.020,-0.059,-0.155,-0.094,-0.068,-83.900,51.567,57.606
1747656576.85,0.015,0.031,-0.069,-0.156,-0.069,-0.098,-83.991,51.876,57.952
1747656576.86,0.005,0.072,-0.061,-0.208,0.025,-0.132,-84.107,52.258,58.350
1747656576.87,-0.009,0.090,-0.039,-0.293,0.054,-0.155,-84.259,52.912,58.958
1747656576.88,-0.054,0.077,0.014,-0.356,-0.003,-0.179,-84.447,53.861,59.896
1747656576.89,-0.145,0.042,0.039,-0.397,0.030,-0.204,-84.662,55.027,61.042
1747656576.90,-0.218,0.012,0.031,-0.443,0.185,-0.209,-84.894,56.514,62.474
1747656576.91,-0.216,-0.013,0.047,-0.478,0.322,-0.185,-85.132,58.521,64.314
1747656576.92,-0.158,-0.039,0.087,-0.428,0.354,-0.130,-85.343,60.880,66.483
1747656576.93,-0.072,-0.057,0.084,-0.352,0.331,-0.072,-85.497,63.180,68.562
1747656576.94,0.025,-0.049,0.035,-0.353,0.269,-0.041,-85.612,65.476,70.692
1747656576.95,0.112,-0.026,0.027,-0.364,0.206,-0.035,-85.712,68.009,73.066
1747656576.96,0.167,0.002,0.019,-0.303,0.154,-0.058,-85.805,70.409,75.371
1747656576.97,0.189,0.027,-0.007,-0.278,0.152,-0.083,-85.895,72.452,77.309
1747656576.98,0.189,0.036,-0.002,-0.298,0.139,-0.111,-85.995,74.519,79.295
1747656576.99,0.172,0.036,0.017,-0.315,0.026,-0.132,-86.107,76.798,81.493
1747656577.00,0.128,0.030,0.018,-0.309,-0.118,-0.141,-86.220,79.151,83.880
1747656577.01,0.075,0.014,0.007,-0.258,-0.220,-0.139,-86.327,81.310,86.110
1747656577.02,0.030,-0.008,0.010,-0.160,-0.243,-0.148,-86.425,82.894,87.832
1747656577.03,-0.016,-0.030,0.009,-0.028,-0.251,-0.156,-86.518,83.470,88.522
1747656577.04,-0.065,-0.036,-0.007,0.093,-0.223,-0.165,-86.606,82.810,88.000
1747656577.05,-0.108,-0.025,-0.031,0.115,-0.142,-0.158,-86.690,81.416,86.680
1747656577.06,-0.127,-0.012,-0.025,0.055,-0.031,-0.141,-86.766,80.266,85.578
1747656577.07,-0.119,-0.004,-0.027,0.010,0.086,-0.125,-86.838,79.725,84.984
1747656577.08,-0.100,0.009,-0.063,-0.028,0.186,-0.093,-86.901,79.683,84.865
1747656577.09,-0.067,0.013,-0.045,-0.038,0.234,-0.058,-86.947,80.037,85.068
1747656577.10,-0.030,0.002,-0.006,-0.011,0.186,-0.026,-86.973,80.332,85.240
1747656577.11,-0.012,-0.008,-0.009,0.010,0.129,0.011,-86.977,80.414,85.207
1747656577.12,0.009,-0.012,0.021,0.036,0.117,0.056,-86.957,80.304,85.028
1747656577.13,0.029,-0.007,0.061,0.070,0.083,0.076,-86.914,79.946,84.581
1747656577.14,0.021,-0.000,0.068,0.130,0.024,0.056,-86.869,79.062,83.666
1747656577.15,-0.016,0.003,0.031,0.185,-0.001,0.003,-86.840,77.452,82.025
