Time,AccX,AccY,AccZ,GyroX,GyroY,GyroZ,Pitch,Roll,Yaw
1747663846.70,0.021,0.018,-0.051,0.030,-0.021,-0.018,-88.307,54.787,81.135
1747663846.71,-0.003,0.020,-0.046,0.023,0.047,-0.035,-88.317,53.713,80.051
1747663846.72,-0.018,0.015,-0.030,0.025,0.072,-0.035,-88.330,52.354,78.659
1747663846.72,-0.025,-0.001,-0.013,0.014,0.081,-0.028,-88.342,51.195,77.455
1747663846.73,-0.016,-0.021,-0.003,0.004,0.059,-0.026,-88.355,50.603,76.821
1747663846.74,0.002,-0.025,-0.006,0.014,0.006,-0.018,-88.359,50.246,76.447
1747663846.75,0.018,-0.015,-0.021,0.003,-0.020,-0.008,-88.347,49.904,76.110
1747663846.76,0.024,-0.005,-0.007,-0.016,-0.000,-0.006,-88.338,49.752,75.964
1747663846.77,0.025,-0.000,0.012,-0.021,0.004,-0.017,-88.338,49.732,75.942
1747663846.78,0.014,0.007,0.005,-0.002,-0.012,-0.031,-88.347,49.281,75.492
1747663846.79,-0.003,0.014,-0.007,0.021,-0.045,-0.043,-88.356,48.218,74.445
1747663846.80,-0.017,0.013,-0.009,0.039,-0.055,-0.043,-88.366,46.786,73.043
1747663846.81,-0.021,0.009,0.001,0.050,-0.022,-0.040,-88.368,45.377,71.656
1747663846.82,-0.026,0.003,0.015,0.028,-0.010,-0.040,-88.365,44.194,70.481
1747663846.83,-0.040,0.003,0.021,0.010,0.009,-0.039,-88.364,43.364,69.651
1747663846.84,-0.046,-0.005,0.017,0.002,0.049,-0.039,-88.370,42.870,69.140
1747663846.85,-0.033,-0.017,0.018,-0.006,0.099,-0.030,-88.382,42.761,68.988
1747663846.86,-0.008,-0.016,0.013,-0.027,0.124,-0.018,-88.396,42.882,69.044
1747663846.87,0.018,-0.006,0.006,-0.046,0.105,-0.003,-88.414,43.274,69.369
1747663846.88,0.032,-0.000,-0.006,-0.032,0.043,-0.004,-88.433,43.629,69.681
1747663846.89,0.032,0.005,-0.026,-0.043,-0.023,0.009,-88.451,44.025,70.071
1747663846.90,0.036,-0.002,-0.021,-0.037,-0.076,0.026,-88.468,44.839,70.914
1747663846.91,0.042,-0.017,-0.019,-0.003,-0.127,0.035,-88.471,45.499,71.633
1747663846.92,0.034,-0.026,-0.048,0.029,-0.151,0.036,-88.459,45.615,71.830
1747663846.93,0.029,-0.033,-0.057,0.057,-0.134,0.019,-88.438,45.211,71.509
1747663846.94,0.028,-0.026,-0.050,0.088,-0.109,-0.002,-88.407,44.206,70.573
1747663846.95,0.027,0.001,-0.047,0.114,-0.085,-0.011,-88.367,42.754,69.175
1747663846.96,0.016,0.030,-0.048,0.122,-0.077,-0.017,-88.317,41.051,67.516
1747663846.97,-0.015,0.037,-0.037,0.107,-0.068,0.002,-88.264,39.526,66.033
1747663846.98,-0.040,0.022,-0.015,0.089,-0.045,0.025,-88.209,38.636,65.175
1747663846.99,-0.050,-0.004,0.001,0.050,0.011,0.041,-88.160,38.413,64.962
1747663846.99,-0.051,-0.038,0.024,-0.003,0.099,0.054,-88.124,38.887,65.407
1747663847.01,-0.045,-0.042,0.043,-0.044,0.174,0.047,-88.108,39.884,66.324
1747663847.01,-0.041,-0.002,0.061,-0.043,0.167,0.029,-88.107,40.971,67.312
1747663847.02,-0.031,0.032,0.060,-0.018,0.123,0.010,-88.108,41.583,67.842
1747663847.04,-0.009,0.028,0.047,-0.001,0.080,0.001,-88.107,41.723,67.925
1747663847.04,0.012,0.014,0.044,0.010,0.030,-0.005,-88.104,41.586,67.757
1747663847.06,0.025,0.009,0.040,0.040,-0.023,-0.005,-88.097,41.145,67.313
1747663847.06,0.033,0.009,0.025,0.057,-0.079,-0.000,-88.080,40.446,66.642
1747663847.07,0.042,0.008,0.007,0.063,-0.108,0.002,-88.057,39.632,65.881
1747663847.08,0.047,0.005,-0.007,0.049,-0.117,0.008,-88.037,38.999,65.312
1747663847.09,0.045,-0.005,-0.004,0.027,-0.122,0.016,-88.025,38.727,65.109
1747663847.11,0.039,-0.014,0.000,0.012,-0.136,0.013,-88.020,38.731,65.186
1747663847.11,0.022,-0.018,0.003,0.016,-0.147,0.018,-88.013,38.797,65.334
1747663847.12,0.003,-0.017,0.005,0.028,-0.132,0.021,-88.000,38.869,65.484
1747663847.13,-0.006,-0.003,0.007,0.034,-0.118,0.024,-87.980,38.931,65.618
1747663847.14,-0.004,0.014,0.008,0.058,-0.107,0.024,-87.952,38.930,65.680
1747663847.16,0.000,0.021,-0.004,0.088,-0.098,0.020,-87.908,38.622,65.431
1747663847.16,-0.001,0.018,-0.018,0.109,-0.076,0.016,-87.851,38.053,64.911
1747663847.17,-0.009,0.006,-0.012,0.142,-0.074,0.008,-87.784,37.246,64.145
1747663847.18,-0.020,-0.001,-0.017,0.184,-0.077,0.003,-87.701,36.126,63.067
1747663847.19,-0.025,-0.006,-0.027,0.209,-0.040,0.013,-87.604,34.752,61.727
1747663847.20,-0.009,-0.007,-0.006,0.206,-0.021,0.041,-87.499,33.495,60.485
1747663847.21,0.009,0.002,0.008,0.209,-0.012,0.074,-87.388,32.667,59.666
1747663847.22,0.011,-0.001,0.020,0.221,-0.024,0.098,-87.264,32.183,59.189
1747663847.23,0.004,-0.016,0.036,0.212,-0.048,0.108,-87.130,31.867,58.895
1747663847.24,-0.002,-0.025,0.038,0.188,-0.049,0.089,-87.003,31.576,58.632
1747663847.25,-0.008,-0.024,0.049,0.191,-0.025,0.073,-86.891,31.165,58.243
1747663847.26,-0.003,-0.019,0.050,0.222,0.001,0.066,-86.773,30.526,57.609
1747663847.27,0.007,-0.004,0.052,0.255,-0.048,0.048,-86.640,29.644,56.736
1747663847.28,-0.020,0.022,0.039,0.314,-0.130,0.025,-86.495,28.554,55.696
1747663847.29,-0.049,0.034,0.007,0.377,-0.157,0.018,-86.321,27.248,54.472
1747663847.30,-0.041,0.035,-0.015,0.450,-0.125,0.024,-86.113,25.833,53.134
1747663847.31,-0.022,0.017,-0.014,0.525,-0.084,0.039,-85.863,24.385,51.742
1747663847.32,-0.019,-0.007,-0.022,0.552,-0.018,0.066,-85.576,23.083,50.466
1747663847.33,-0.019,-0.011,-0.020,0.538,0.028,0.077,-85.272,22.061,49.436
1747663847.34,-0.033,-0.009,0.010,0.529,0.025,0.107,-84.971,21.310,48.667
1747663847.35,-0.046,-0.008,0.030,0.539,0.011,0.152,-84.660,20.873,48.220
1747663847.36,-0.031,-0.001,0.019,0.565,0.014,0.175,-84.332,20.646,47.985
1747663847.37,-0.012,-0.003,0.015,0.590,0.051,0.179,-83.989,20.453,47.772
1747663847.38,0.017,-0.014,0.029,0.611,0.054,0.178,-83.632,20.274,47.559
1747663847.39,0.036,-0.024,0.044,0.653,0.007,0.161,-83.260,20.009,47.274
1747663847.40,0.027,-0.023,0.023,0.724,-0.017,0.153,-82.859,19.602,46.869
1747663847.41,0.021,-0.009,-0.010,0.780,-0.070,0.160,-82.423,19.114,46.400
1747663847.42,0.009,0.011,-0.034,0.825,-0.053,0.177,-81.958,18.661,45.983
1747663847.43,-0.014,0.035,-0.049,0.857,0.065,0.175,-81.469,18.274,45.590
1747663847.44,-0.062,0.038,-0.008,0.833,0.150,0.187,-80.977,17.992,45.240
1747663847.45,-0.137,0.010,0.049,0.772,0.215,0.211,-80.505,17.891,45.033
1747663847.46,-0.183,-0.032,0.076,0.709,0.312,0.218,-80.066,17.969,44.959
1747663847.47,-0.163,-0.054,0.063,0.673,0.400,0.226,-79.653,18.163,44.948
1747663847.48,-0.070,-0.049,0.052,0.660,0.414,0.246,-79.250,18.447,44.996
1747663847.49,0.051,-0.024,0.061,0.686,0.305,0.253,-78.842,18.720,45.061
1747663847.50,0.137,0.006,0.060,0.747,0.149,0.244,-78.409,18.864,45.078
1747663847.51,0.176,0.044,0.047,0.818,0.074,0.215,-77.945,18.834,44.984
1747663847.52,0.176,0.064,0.072,0.931,-0.042,0.192,-77.435,18.612,44.744
1747663847.53,0.109,0.056,0.050,0.974,-0.175,0.204,-76.879,18.256,44.509
1747663847.54,-0.001,0.033,0.010,0.936,-0.155,0.200,-76.324,17.907,44.255
1747663847.55,-0.116,0.004,0.037,0.875,-0.046,0.176,-75.798,17.629,44.088
1747663847.56,-0.217,-0.016,0.054,0.806,0.043,0.164,-75.312,17.428,43.880
1747663847.57,-0.254,-0.017,0.040,0.771,0.167,0.166,-74.855,17.318,43.776
1747663847.58,-0.188,-0.007,0.038,0.783,0.288,0.180,-74.404,17.318,43.638
1747663847.59,-0.057,0.000,0.064,0.859,0.307,0.182,-73.927,17.353,43.547
1747663847.60,0.046,0.006,0.055,0.957,0.232,0.161,-73.402,17.303,43.333
1747663847.61,0.086,-0.005,0.030,0.991,0.168,0.142,-72.841,17.140,43.107
1747663847.62,0.088,-0.023,0.005,0.933,0.172,0.139,-72.291,16.966,42.824
1747663847.63,0.065,-0.029,0.003,0.900,0.166,0.155,-71.767,16.842,42.659
1747663847.64,0.010,-0.022,-0.021,0.860,0.150,0.148,-71.260,16.750,42.468
1747663847.65,-0.076,-0.001,-0.058,0.816,0.251,0.144,-70.778,16.687,42.347
1747663847.66,-0.140,0.008,-0.044,0.780,0.462,0.167,-70.316,16.759,42.210
1747663847.67,-0.142,0.004,-0.012,0.767,0.620,0.184,-69.866,16.986,42.187
1747663847.68,-0.108,-0.001,-0.009,0.791,0.598,0.203,-69.410,17.267,42.113
1747663847.69,-0.027,-0.014,-0.030,0.874,0.590,0.229,-68.921,17.540,42.111
1747663847.70,0.100,-0.028,-0.026,0.937,0.517,0.257,-68.383,17.797,42.041
1747663847.71,0.183,-0.022,0.015,0.938,0.374,0.248,-67.826,17.986,42.038
1747663847.72,0.159,-0.020,0.007,0.942,0.315,0.205,-67.277,18.075,41.925
1747663847.73,0.116,-0.038,-0.016,0.906,0.311,0.200,-66.738,18.119,41.849
1747663847.74,0.069,-0.069,-0.037,0.799,0.241,0.243,-66.236,18.206,41.769
1747663847.75,0.023,-0.085,-0.030,0.735,0.211,0.282,-65.773,18.348,41.850
1747663847.76,0.016,-0.057,-0.014,0.665,0.179,0.277,-65.344,18.517,41.912
1747663847.77,0.027,-0.004,0.033,0.684,0.143,0.265,-64.934,18.665,42.023
1747663847.78,0.040,0.047,0.043,0.765,0.085,0.219,-64.497,18.729,42.021
1747663847.79,0.043,0.080,0.013,0.824,0.007,0.160,-64.033,18.668,41.975
1747663847.80,-0.016,0.075,0.014,0.877,-0.063,0.125,-63.546,18.489,41.795
1747663847.81,-0.094,0.034,-0.012,0.879,-0.062,0.107,-63.046,18.259,41.639
1747663847.82,-0.142,-0.001,-0.036,0.802,0.057,0.107,-62.571,18.073,41.437
1747663847.83,-0.167,-0.017,-0.018,0.757,0.275,0.121,-62.129,18.021,41.332
1747663847.84,-0.160,-0.033,-0.007,0.744,0.428,0.168,-61.697,18.125,41.215
1747663847.85,-0.128,-0.041,-0.036,0.753,0.452,0.202,-61.259,18.319,41.208
1747663847.86,-0.097,-0.044,-0.062,0.788,0.474,0.216,-60.805,18.538,41.157
1747663847.87,-0.019,-0.048,-0.041,0.859,0.442,0.217,-60.319,18.744,41.160
1747663847.88,0.077,-0.051,-0.026,0.904,0.378,0.224,-59.801,18.901,41.071
1747663847.89,0.139,-0.049,-0.036,0.924,0.327,0.199,-59.266,19.007,41.008
1747663847.90,0.173,-0.040,-0.035,0.856,0.305,0.184,-58.748,19.078,40.883
1747663847.91,0.156,-0.037,-0.010,0.764,0.278,0.179,-58.278,19.158,40.834
1747663847.92,0.082,-0.038,-0.002,0.672,0.257,0.228,-57.851,19.266,40.783
1747663847.93,0.016,-0.039,0.013,0.530,0.234,0.283,-57.480,19.444,40.873
1747663847.94,0.022,-0.017,0.096,0.506,0.099,0.374,-57.143,19.665,41.018
1747663847.95,0.077,0.020,0.086,0.564,-0.065,0.389,-56.782,19.835,41.273
1747663847.96,0.157,0.066,0.049,0.659,-0.214,0.358,-56.380,19.881,41.424
1747663847.97,0.198,0.095,0.039,0.751,-0.375,0.310,-55.936,19.777,41.571
1747663847.98,0.149,0.092,-0.020,0.843,-0.461,0.238,-55.455,19.526,41.562
1747663847.99,0.049,0.077,-0.074,0.897,-0.391,0.150,-54.946,19.191,41.517
1747663848.00,-0.024,0.062,-0.066,0.918,-0.210,0.083,-54.435,18.863,41.332
1747663848.01,-0.082,0.030,-0.008,0.874,0.018,0.056,-53.936,18.632,41.188
1747663848.02,-0.136,-0.019,0.054,0.817,0.158,0.095,-53.466,18.530,40.995
1747663848.03,-0.156,-0.078,0.018,0.742,0.234,0.189,-53.015,18.558,40.968
1747663848.04,-0.098,-0.127,-0.024,0.700,0.274,0.257,-52.588,18.693,40.953
1747663848.05,0.017,-0.142,0.012,0.739,0.212,0.308,-52.149,18.865,41.068
1747663848.06,0.098,-0.108,0.000,0.785,0.062,0.321,-51.678,18.982,41.116
1747663848.07,0.097,-0.039,-0.023,0.845,-0.028,0.292,-51.181,19.008,41.227
1747663848.08,0.056,0.021,-0.022,0.930,-0.061,0.212,-50.653,18.948,41.183
1747663848.09,-0.013,0.055,0.010,0.956,-0.067,0.113,-50.111,18.803,41.125
1747663848.10,-0.082,0.063,0.034,0.878,0.011,0.040,-49.598,18.632,40.925
1747663848.11,-0.111,0.038,0.017,0.785,0.112,0.029,-49.144,18.510,40.790
1747663848.12,-0.103,-0.007,-0.020,0.706,0.171,0.064,-48.732,18.467,40.623
1747663848.13,-0.073,-0.044,-0.023,0.644,0.143,0.146,-48.350,18.484,40.614
1747663848.14,-0.011,-0.050,0.031,0.664,0.055,0.215,-47.964,18.523,40.586
1747663848.15,0.060,-0.008,0.045,0.710,-0.073,0.228,-47.552,18.514,40.682
1747663848.16,0.093,0.066,0.023,0.770,-0.163,0.225,-47.110,18.434,40.667
1747663848.17,0.108,0.115,0.003,0.836,-0.223,0.187,-46.636,18.288,40.699
1747663848.18,0.090,0.122,0.033,0.861,-0.207,0.136,-46.147,18.093,40.606
1747663848.19,0.052,0.087,0.065,0.835,-0.072,0.114,-45.661,17.926,40.563
1747663848.20,0.042,0.024,0.057,0.704,0.040,0.127,-45.219,17.848,40.463
1747663848.21,0.055,-0.047,-0.028,0.576,0.038,0.166,-44.848,17.843,40.503
1747663848.22,0.046,-0.099,-0.067,0.527,-0.036,0.256,-44.514,17.862,40.529
1747663848.23,0.039,-0.096,-0.008,0.534,-0.111,0.290,-44.179,17.881,40.720
1747663848.24,0.037,0.004,0.032,0.596,-0.218,0.260,-43.823,17.837,40.792
1747663848.25,-0.014,0.127,-0.010,0.664,-0.305,0.202,-43.440,17.703,40.921
1747663848.26,-0.076,0.174,-0.061,0.743,-0.331,0.114,-43.030,17.487,40.873
1747663848.27,-0.120,0.141,-0.085,0.853,-0.294,0.019,-42.582,17.212,40.838
1747663848.28,-0.129,0.070,-0.074,0.923,-0.165,-0.068,-42.100,16.929,40.618
1747663848.29,-0.109,-0.005,-0.050,0.943,0.013,-0.126,-41.604,16.698,40.434
1747663848.30,-0.084,-0.083,-0.030,0.857,0.117,-0.147,-41.132,16.541,40.134
1747663848.31,-0.092,-0.135,-0.072,0.750,0.172,-0.112,-40.712,16.451,39.972
1747663848.32,-0.093,-0.161,-0.102,0.671,0.213,-0.074,-40.340,16.419,39.754
1747663848.33,-0.061,-0.162,-0.015,0.667,0.248,-0.055,-39.987,16.433,39.680
1747663848.34,0.008,-0.128,0.069,0.686,0.173,-0.037,-39.623,16.444,39.505
1747663848.35,0.045,-0.057,0.080,0.709,0.112,-0.018,-39.246,16.420,39.451
1747663848.36,0.065,0.048,0.078,0.730,0.043,-0.001,-38.852,16.367,39.295
1747663848.37,0.077,0.135,0.089,0.779,-0.019,0.018,-38.439,16.278,39.242
1747663848.38,0.081,0.170,0.108,0.818,-0.027,0.031,-37.995,16.175,39.220
1747663848.39,0.091,0.161,0.143,0.793,-0.012,0.044,-37.546,16.079,39.081
1747663848.40,0.101,0.123,0.086,0.743,-0.043,0.087,-37.113,16.002,39.093
1747663848.41,0.094,0.055,0.003,0.690,-0.071,0.173,-36.699,15.934,39.041
1747663848.42,0.087,-0.003,-0.043,0.629,-0.068,0.258,-36.302,15.909,39.173
1747663848.43,0.132,-0.020,-0.019,0.606,-0.136,0.330,-35.919,15.900,39.256
1747663848.44,0.155,0.006,0.013,0.644,-0.194,0.348,-35.522,15.872,39.498
1747663848.45,0.155,0.046,0.039,0.686,-0.266,0.304,-35.107,15.798,39.592
1747663848.46,0.124,0.067,0.051,0.732,-0.391,0.280,-34.671,15.644,39.784
1747663848.47,0.096,0.052,0.032,0.785,-0.451,0.274,-34.213,15.428,39.828
1747663848.48,0.081,0.005,0.069,0.847,-0.406,0.268,-33.722,15.195,39.989
1747663848.49,0.080,-0.044,0.051,0.842,-0.306,0.235,-33.216,15.001,40.005
1747663848.50,0.065,-0.075,0.000,0.767,-0.234,0.226,-32.737,14.851,40.135
1747663848.51,-0.029,-0.086,-0.030,0.693,-0.167,0.307,-32.295,14.760,40.180
1747663848.52,-0.116,-0.084,-0.014,0.606,-0.055,0.396,-31.886,14.759,40.428
1747663848.53,-0.126,-0.044,-0.030,0.585,0.027,0.397,-31.502,14.840,40.589
1747663848.54,-0.096,0.040,-0.031,0.643,-0.005,0.336,-31.110,14.920,40.853
1747663848.55,-0.097,0.130,-0.017,0.729,-0.104,0.240,-30.688,14.925,40.921
1747663848.56,-0.118,0.165,-0.032,0.812,-0.188,0.129,-30.236,14.834,41.032
1747663848.57,-0.118,0.128,-0.027,0.880,-0.220,0.049,-29.756,14.671,40.945
1747663848.58,-0.104,0.038,0.030,0.929,-0.154,0.019,-29.249,14.497,40.949
1747663848.59,-0.072,-0.045,0.044,0.949,-0.069,0.008,-28.728,14.365,40.805
1747663848.60,-0.050,-0.074,0.000,0.886,-0.039,0.016,-28.216,14.267,40.787
1747663848.61,-0.055,-0.057,-0.056,0.813,0.015,0.074,-27.741,14.209,40.680
1747663848.62,-0.051,-0.028,-0.041,0.753,0.062,0.151,-27.292,14.204,40.753
1747663848.63,-0.040,0.028,-0.027,0.724,0.092,0.172,-26.862,14.246,40.741
1747663848.64,-0.039,0.099,-0.018,0.761,0.037,0.134,-26.431,14.278,40.830
1747663848.65,-0.061,0.130,-0.003,0.816,0.004,0.071,-25.980,14.261,40.769
1747663848.66,-0.038,0.087,-0.002,0.866,-0.093,-0.002,-25.511,14.193,40.777
1747663848.67,0.011,-0.007,-0.025,0.953,-0.127,-0.024,-25.011,14.064,40.628
1747663848.68,0.062,-0.110,-0.022,0.945,-0.144,-0.054,-24.484,13.915,40.562
1747663848.69,0.093,-0.165,-0.035,0.886,-0.144,-0.081,-23.987,13.759,40.383
1747663848.70,0.073,-0.161,-0.069,0.860,-0.111,-0.065,-23.513,13.612,40.303
1747663848.71,0.016,-0.104,-0.034,0.795,-0.044,-0.005,-23.055,13.512,40.160
1747663848.72,-0.032,0.008,0.010,0.700,-0.024,0.059,-22.636,13.459,40.183
1747663848.73,-0.077,0.124,0.012,0.652,-0.020,0.138,-22.249,13.431,40.144
1747663848.74,-0.065,0.171,-0.018,0.647,0.008,0.177,-21.866,13.429,40.260
1747663848.75,0.020,0.120,-0.047,0.664,0.013,0.162,-21.480,13.441,40.268
1747663848.76,0.107,0.020,-0.043,0.708,-0.053,0.145,-21.079,13.429,40.372
1747663848.77,0.152,-0.074,-0.010,0.714,-0.157,0.158,-20.663,13.364,40.361
1747663848.78,0.164,-0.139,0.035,0.719,-0.224,0.194,-20.244,13.255,40.474
1747663848.79,0.173,-0.153,0.078,0.739,-0.256,0.243,-19.809,13.124,40.499
1747663848.80,0.133,-0.121,0.104,0.679,-0.196,0.304,-19.377,13.013,40.661
1747663848.81,0.056,-0.061,0.085,0.651,-0.117,0.347,-18.967,12.960,40.762
1747663848.82,-0.028,-0.003,0.049,0.645,-0.078,0.428,-18.556,12.948,41.001
1747663848.83,-0.094,0.027,-0.014,0.636,-0.019,0.462,-18.142,12.977,41.179
1747663848.84,-0.086,0.011,-0.081,0.662,0.011,0.420,-17.726,13.028,41.445
1747663848.85,-0.034,-0.052,-0.113,0.711,-0.007,0.332,-17.296,13.071,41.573
1747663848.86,0.009,-0.137,-0.078,0.769,-0.103,0.223,-16.849,13.059,41.758
1747663848.87,0.006,-0.211,-0.024,0.863,-0.182,0.163,-16.370,12.975,41.758
1747663848.88,-0.002,-0.277,0.007,0.895,-0.207,0.176,-15.856,12.857,41.839
1747663848.89,0.003,-0.304,0.024,0.920,-0.166,0.182,-15.330,12.745,41.824
1747663848.90,0.008,-0.239,0.045,0.911,-0.129,0.215,-14.792,12.660,41.915
1747663848.91,-0.017,-0.063,0.062,0.840,-0.072,0.305,-14.271,12.609,41.950
1747663848.92,-0.053,0.131,0.039,0.791,-0.028,0.386,-13.774,12.605,42.142
1747663848.93,-0.082,0.259,0.004,0.765,0.042,0.430,-13.290,12.639,42.279
1747663848.94,-0.098,0.286,-0.040,0.785,0.102,0.405,-12.809,12.716,42.530
1747663848.95,-0.065,0.198,-0.065,0.839,0.076,0.339,-12.307,12.792,42.638
1747663848.96,-0.021,0.044,-0.061,0.826,-0.003,0.249,-11.805,12.828,42.798
1747663848.97,0.044,-0.076,-0.001,0.820,-0.119,0.172,-11.321,12.795,42.810
1747663848.98,0.092,-0.133,0.018,0.825,-0.187,0.149,-10.844,12.702,42.889
1747663848.99,0.085,-0.107,0.052,0.802,-0.196,0.148,-10.370,12.587,42.868
1747663849.00,0.013,0.010,0.046,0.731,-0.175,0.188,-9.923,12.481,42.968
1747663849.01,-0.051,0.131,-0.003,0.706,-0.134,0.284,-9.495,12.398,43.011
1747663849.02,-0.080,0.199,-0.023,0.707,0.008,0.351,-9.062,12.372,43.207
1747663849.03,-0.080,0.220,-0.030,0.684,0.172,0.316,-8.632,12.443,43.311
1747663849.04,-0.046,0.210,-0.042,0.717,0.192,0.257,-8.209,12.562,43.486
1747663849.05,-0.016,0.147,-0.059,0.723,0.101,0.212,-7.775,12.655,43.527
1747663849.06,0.046,0.040,-0.068,0.719,-0.046,0.152,-7.352,12.674,43.629
1747663849.07,0.124,-0.042,-0.092,0.719,-0.210,0.116,-6.934,12.598,43.613
1747663849.08,0.147,-0.072,-0.064,0.709,-0.275,0.069,-6.523,12.451,43.658
1747663849.09,0.073,-0.059,0.017,0.701,-0.230,0.028,-6.125,12.296,43.598
1747663849.10,-0.038,-0.009,0.019,0.692,-0.126,0.033,-5.733,12.186,43.608
1747663849.11,-0.146,0.072,0.004,0.686,0.041,0.076,-5.341,12.155,43.556
1747663849.12,-0.201,0.145,-0.001,0.669,0.177,0.091,-4.952,12.218,43.607
1747663849.13,-0.173,0.184,-0.014,0.673,0.175,0.049,-4.570,12.318,43.565
1747663849.14,-0.098,0.183,-0.053,0.688,0.116,-0.024,-4.188,12.398,43.576
1747663849.15,0.018,0.141,-0.071,0.713,-0.047,-0.094,-3.805,12.413,43.456
1747663849.16,0.073,0.046,-0.094,0.749,-0.239,-0.139,-3.412,12.319,43.391
1747663849.17,0.054,-0.067,-0.084,0.732,-0.323,-0.212,-3.018,12.143,43.202
1747663849.18,0.019,-0.140,-0.059,0.733,-0.328,-0.241,-2.638,11.945,43.069
1747663849.19,-0.030,-0.168,-0.041,0.717,-0.278,-0.219,-2.258,11.760,42.853
1747663849.20,-0.110,-0.117,0.014,0.724,-0.103,-0.169,-1.880,11.641,42.720
1747663849.21,-0.129,0.008,0.065,0.720,0.057,-0.144,-1.491,11.625,42.557
1747663849.22,-0.084,0.096,0.049,0.708,0.124,-0.137,-1.111,11.677,42.455
1747663849.23,0.010,0.083,0.006,0.725,0.093,-0.120,-0.724,11.741,42.304
1747663849.24,0.113,0.016,-0.028,0.724,0.005,-0.090,-0.330,11.768,42.216
1747663849.25,0.207,-0.039,-0.024,0.707,-0.101,-0.023,0.066,11.740,42.165
1747663849.26,0.243,-0.089,-0.024,0.689,-0.161,-0.035,0.452,11.665,42.068
1747663849.27,0.227,-0.100,-0.021,0.674,-0.176,0.024,0.833,11.567,42.044
1747663849.28,0.194,-0.081,-0.012,0.632,-0.133,0.078,1.206,11.477,41.999
1747663849.29,0.149,-0.035,-0.001,0.583,-0.071,0.128,1.556,11.419,42.037
1747663849.30,0.112,0.019,0.005,0.571,-0.006,0.209,1.898,11.396,42.065
1747663849.31,0.069,0.066,-0.018,0.528,0.059,0.282,2.234,11.410,42.198
1747663849.32,0.048,0.107,-0.037,0.502,0.044,0.297,2.554,11.438,42.304
1747663849.33,0.027,0.121,-0.060,0.495,0.005,0.282,2.865,11.447,42.459
1747663849.34,0.023,0.102,-0.052,0.492,-0.086,0.243,3.172,11.422,42.551
1747663849.35,0.022,0.079,-0.041,0.476,-0.206,0.178,3.468,11.333,42.670
1747663849.36,0.008,0.045,-0.057,0.479,-0.280,0.154,3.754,11.190,42.708
1747663849.37,-0.006,-0.015,-0.067,0.486,-0.308,0.138,4.040,11.019,42.803
1747663849.38,-0.031,-0.025,-0.055,0.513,-0.282,0.117,4.333,10.848,42.821
1747663849.39,-0.071,-0.004,-0.051,0.524,-0.202,0.081,4.635,10.707,42.889
1747663849.40,-0.111,0.014,-0.045,0.531,-0.114,0.047,4.938,10.619,42.869
1747663849.41,-0.105,0.042,-0.046,0.547,-0.050,0.018,5.244,10.579,42.881
1747663849.42,-0.079,0.081,-0.049,0.527,-0.032,-0.015,5.546,10.563,42.826
1747663849.43,-0.068,0.096,-0.037,0.525,-0.050,-0.025,5.837,10.547,42.804
1747663849.44,-0.061,0.104,-0.017,0.539,-0.085,-0.043,6.132,10.516,42.729
1747663849.45,-0.036,0.091,-0.001,0.530,-0.133,-0.056,6.428,10.464,42.694
1747663849.46,0.037,0.030,-0.018,0.563,-0.180,-0.042,6.728,10.384,42.608
1747663849.47,0.117,-0.019,-0.018,0.616,-0.187,-0.022,7.057,10.287,42.565
1747663849.48,0.122,-0.017,-0.000,0.609,-0.154,-0.019,7.402,10.196,42.489
1747663849.49,0.059,0.002,-0.013,0.600,-0.138,-0.006,7.738,10.122,42.457
1747663849.50,0.004,0.003,-0.030,0.602,-0.099,0.020,8.078,10.061,42.401
1747663849.51,-0.034,0.051,-0.023,0.578,-0.049,0.024,8.412,10.027,42.378
1747663849.52,-0.045,0.114,-0.012,0.560,-0.043,0.015,8.733,10.009,42.331
1747663849.53,-0.038,0.127,-0.023,0.568,-0.074,0.004,9.049,9.983,42.308
1747663849.54,-0.022,0.099,-0.041,0.581,-0.106,-0.025,9.371,9.942,42.245
1747663849.55,0.022,0.052,-0.032,0.567,-0.141,-0.071,9.691,9.885,42.180
1747663849.56,0.053,0.014,-0.030,0.582,-0.137,-0.097,10.004,9.822,42.074
1747663849.57,0.047,-0.023,-0.026,0.543,-0.113,-0.111,10.314,9.770,41.959
1747663849.58,0.005,-0.045,-0.042,0.521,-0.039,-0.059,10.601,9.743,41.856
1747663849.59,-0.003,-0.054,-0.057,0.526,0.001,-0.039,10.893,9.748,41.792
1747663849.60,0.003,-0.023,-0.062,0.501,0.020,-0.058,11.177,9.770,41.714
1747663849.61,0.005,0.045,-0.046,0.519,0.026,-0.075,11.457,9.800,41.650
1747663849.62,-0.035,0.065,-0.037,0.499,0.076,-0.099,11.738,9.847,41.548
1747663849.63,-0.081,0.030,-0.019,0.466,0.108,-0.085,11.999,9.924,41.460
1747663849.64,-0.050,-0.023,-0.006,0.466,0.121,-0.113,12.251,10.011,41.357
1747663849.65,-0.006,-0.032,-0.010,0.429,0.106,-0.122,12.491,10.103,41.250
1747663849.66,0.061,-0.034,-0.020,0.387,0.023,-0.076,12.711,10.161,41.154
1747663849.67,0.108,-0.072,-0.064,0.359,-0.064,-0.016,12.916,10.164,41.086
1747663849.68,0.138,-0.096,-0.109,0.316,-0.149,0.040,13.108,10.108,41.058
1747663849.69,0.130,-0.091,-0.134,0.283,-0.133,0.070,13.281,10.022,41.066
1747663849.70,0.069,-0.059,-0.101,0.227,-0.007,0.063,13.434,9.977,41.078
1747663849.71,-0.014,-0.034,-0.056,0.128,0.127,0.064,13.539,10.008,41.097
1747663849.72,-0.054,-0.054,-0.052,0.097,0.107,0.107,13.609,10.072,41.136
1747663849.73,-0.029,-0.088,-0.066,0.064,0.034,0.115,13.667,10.098,41.185
1747663849.74,0.025,-0.064,-0.076,0.048,-0.032,0.096,13.708,10.085,41.241
1747663849.75,0.068,-0.013,-0.074,0.041,-0.049,0.087,13.743,10.047,41.286
1747663849.76,0.008,-0.000,-0.061,-0.004,-0.003,0.063,13.762,10.021,41.326
1747663849.77,-0.034,-0.037,-0.051,-0.006,0.092,0.062,13.762,10.037,41.357
1747663849.78,-0.019,-0.078,-0.041,-0.020,0.175,0.067,13.765,10.107,41.395
1747663849.79,-0.004,-0.062,-0.042,-0.086,0.214,0.084,13.741,10.208,41.450
1747663849.80,0.039,-0.045,-0.069,-0.128,0.161,0.120,13.693,10.301,41.521
1747663849.81,0.082,-0.032,-0.119,-0.166,0.093,0.134,13.625,10.349,41.610
1747663849.82,0.054,0.004,-0.128,-0.186,0.138,0.117,13.540,10.389,41.703
1747663849.83,0.003,0.035,-0.089,-0.214,0.212,0.087,13.438,10.473,41.800
1747663849.84,-0.039,0.022,-0.079,-0.273,0.267,0.078,13.311,10.593,41.873
1747663849.85,-0.042,-0.042,-0.130,-0.348,0.310,0.061,13.143,10.740,41.957
1747663849.86,-0.025,-0.072,-0.136,-0.384,0.338,0.030,12.943,10.910,42.024
1747663849.87,-0.012,-0.068,-0.103,-0.401,0.370,-0.016,12.725,11.100,42.073
1747663849.88,-0.004,-0.057,-0.106,-0.443,0.366,-0.081,12.486,11.309,42.093
1747663849.89,0.001,-0.047,-0.150,-0.510,0.298,-0.133,12.207,11.503,42.098
1747663849.90,0.015,-0.030,-0.192,-0.562,0.208,-0.165,11.889,11.652,42.076
1747663849.91,0.018,-0.020,-0.183,-0.615,0.167,-0.179,11.541,11.763,42.062
1747663849.92,-0.006,-0.010,-0.134,-0.719,0.130,-0.146,11.151,11.851,42.047
1747663849.93,-0.005,-0.010,-0.151,-0.839,0.077,-0.060,10.702,11.905,42.088
1747663849.94,0.067,-0.060,-0.198,-0.930,0.055,0.005,10.203,11.922,42.181
1747663849.95,0.133,-0.135,-0.151,-0.997,0.094,0.038,9.666,11.942,42.327
1747663849.96,0.160,-0.172,-0.067,-1.050,0.100,0.036,9.099,11.975,42.472
1747663849.97,0.174,-0.155,-0.054,-1.107,0.066,0.017,8.499,12.001,42.631
1747663849.98,0.145,-0.098,-0.044,-1.153,0.042,0.037,7.869,12.009,42.780
1747663849.99,0.092,-0.067,-0.041,-1.180,0.066,0.074,7.224,12.015,42.978
1747663850.00,0.039,-0.057,-0.068,-1.210,0.114,0.067,6.565,12.045,43.163
1747663850.01,-0.016,-0.029,-0.085,-1.261,0.150,0.027,5.882,12.101,43.364
1747663850.02,-0.038,-0.005,-0.113,-1.299,0.154,-0.021,5.167,12.175,43.521
1747663850.03,-0.021,-0.017,-0.115,-1.318,0.111,-0.065,4.432,12.241,43.702
1747663850.04,-0.007,-0.028,-0.067,-1.321,0.077,-0.090,3.686,12.286,43.819
1747663850.05,0.002,-0.016,-0.046,-1.360,0.016,-0.114,2.925,12.306,43.976
1747663850.06,-0.002,-0.006,-0.064,-1.336,-0.034,-0.093,2.158,12.298,44.081
1747663850.07,0.001,-0.020,-0.068,-1.332,-0.074,-0.077,1.404,12.260,44.250
1747663850.08,-0.007,-0.030,-0.047,-1.326,-0.032,-0.128,0.649,12.228,44.356
1747663850.09,-0.017,-0.024,-0.036,-1.277,0.012,-0.201,-0.098,12.220,44.467
1747663850.10,-0.076,-0.020,-0.012,-1.263,0.115,-0.250,-0.833,12.253,44.492
1747663850.11,-0.129,-0.033,-0.022,-1.302,0.242,-0.283,-1.582,12.356,44.556
1747663850.12,-0.132,-0.046,-0.048,-1.295,0.312,-0.294,-2.344,12.517,44.594
1747663850.13,-0.132,-0.034,-0.018,-1.293,0.334,-0.289,-3.101,12.703,44.593
1747663850.14,-0.103,-0.000,0.003,-1.322,0.302,-0.297,-3.866,12.888,44.633
1747663850.15,-0.029,0.032,-0.023,-1.328,0.177,-0.304,-4.643,13.029,44.635
1747663850.15,0.065,0.041,-0.025,-1.317,0.034,-0.314,-5.418,13.087,44.681
1747663850.17,0.143,0.012,-0.017,-1.318,-0.055,-0.327,-6.195,13.078,44.673
1747663850.17,0.166,-0.062,-0.019,-1.290,-0.073,-0.295,-6.961,13.040,44.728
1747663850.18,0.119,-0.167,-0.004,-1.284,-0.042,-0.256,-7.712,13.005,44.741
1747663850.19,0.048,-0.229,0.035,-1.296,0.025,-0.241,-8.461,13.006,44.832
1747663850.20,-0.020,-0.208,0.068,-1.318,0.067,-0.222,-9.219,13.037,44.873
1747663850.21,-0.092,-0.136,0.058,-1.319,0.196,-0.200,-9.979,13.117,44.987
1747663850.22,-0.120,-0.053,0.047,-1.326,0.382,-0.184,-10.739,13.295,45.054
1747663850.23,-0.088,0.006,0.003,-1.353,0.483,-0.164,-11.505,13.563,45.191
1747663850.25,-0.034,0.009,-0.066,-1.397,0.481,-0.141,-12.288,13.861,45.295
1747663850.25,0.024,-0.036,-0.058,-1.420,0.453,-0.132,-13.089,14.154,45.475
1747663850.26,0.109,-0.096,-0.008,-1.425,0.339,-0.124,-13.894,14.414,45.609
1747663850.27,0.178,-0.147,0.004,-1.444,0.248,-0.102,-14.703,14.615,45.802
1747663850.28,0.193,-0.179,0.013,-1.437,0.224,-0.082,-15.515,14.792,45.968
1747663850.29,0.170,-0.194,0.036,-1.415,0.194,-0.090,-16.313,14.958,46.192
1747663850.30,0.107,-0.191,0.020,-1.424,0.168,-0.077,-17.112,15.111,46.364
1747663850.31,0.037,-0.179,0.022,-1.412,0.159,-0.061,-17.902,15.258,46.607
1747663850.32,-0.047,-0.132,0.058,-1.444,0.195,-0.050,-18.697,15.418,46.803
1747663850.33,-0.105,-0.043,0.092,-1.478,0.252,-0.047,-19.509,15.615,47.075
1747663850.34,-0.100,0.064,0.052,-1.492,0.248,-0.051,-20.334,15.835,47.292
1747663850.35,-0.068,0.172,0.016,-1.470,0.174,-0.058,-21.157,16.032,47.562
1747663850.36,-0.033,0.248,-0.000,-1.444,0.115,-0.085,-21.968,16.192,47.770
1747663850.37,0.008,0.268,0.019,-1.398,0.007,-0.127,-22.765,16.299,48.014
1747663850.38,0.047,0.209,0.033,-1.331,-0.183,-0.168,-23.536,16.310,48.164
1747663850.39,0.080,0.078,-0.030,-1.311,-0.280,-0.213,-24.290,16.217,48.341
1747663850.40,0.120,-0.074,-0.094,-1.329,-0.237,-0.263,-25.051,16.104,48.427
1747663850.41,0.124,-0.203,-0.027,-1.359,-0.257,-0.271,-25.832,15.997,48.534
1747663850.42,0.078,-0.283,0.020,-1.372,-0.269,-0.235,-26.621,15.881,48.618
1747663850.43,0.034,-0.300,-0.001,-1.389,-0.198,-0.218,-27.416,15.792,48.769
1747663850.44,-0.022,-0.258,0.042,-1.347,-0.119,-0.218,-28.205,15.751,48.875
1747663850.45,-0.110,-0.189,0.102,-1.257,-0.027,-0.239,-28.955,15.750,49.006
1747663850.46,-0.196,-0.111,0.129,-1.183,0.056,-0.263,-29.663,15.788,49.064
1747663850.47,-0.241,-0.040,0.063,-1.148,0.130,-0.260,-30.342,15.863,49.145
1747663850.48,-0.221,-0.002,-0.030,-1.173,0.196,-0.227,-31.018,15.985,49.200
1747663850.49,-0.133,-0.001,-0.052,-1.192,0.176,-0.184,-31.699,16.142,49.330
1747663850.50,0.020,-0.016,-0.021,-1.204,0.079,-0.155,-32.384,16.274,49.445
1747663850.51,0.149,-0.022,0.042,-1.186,0.046,-0.172,-33.066,16.375,49.605
1747663850.52,0.209,-0.000,0.077,-1.130,-0.017,-0.221,-33.733,16.440,49.700
1747663850.53,0.146,0.029,-0.008,-1.127,-0.145,-0.220,-34.386,16.432,49.797
1747663850.54,0.031,0.030,-0.088,-1.174,-0.128,-0.155,-35.045,16.402,49.897
1747663850.55,-0.047,0.008,-0.115,-1.201,0.046,-0.117,-35.719,16.464,50.056
1747663850.56,-0.101,-0.017,-0.087,-1.196,0.078,-0.135,-36.395,16.598,50.212
1747663850.57,-0.202,-0.028,-0.039,-1.207,0.099,-0.169,-37.077,16.728,50.355
1747663850.58,-0.262,-0.016,-0.001,-1.203,0.231,-0.242,-37.769,16.888,50.467
1747663850.59,-0.223,0.025,0.037,-1.206,0.300,-0.341,-38.476,17.074,50.530
1747663850.60,-0.174,0.078,0.056,-1.180,0.313,-0.397,-39.191,17.249,50.529
1747663850.61,-0.102,0.121,0.014,-1.174,0.284,-0.417,-39.900,17.404,50.507
1747663850.62,-0.016,0.147,-0.043,-1.205,0.206,-0.403,-40.620,17.526,50.481
1747663850.63,0.075,0.136,-0.045,-1.195,0.147,-0.366,-41.340,17.626,50.474
1747663850.64,0.180,0.079,-0.041,-1.195,0.063,-0.329,-42.049,17.702,50.498
1747663850.65,0.247,0.011,-0.027,-1.195,-0.054,-0.291,-42.753,17.743,50.534
1747663850.66,0.256,-0.046,-0.014,-1.214,-0.159,-0.269,-43.455,17.733,50.614
1747663850.67,0.197,-0.071,-0.047,-1.256,-0.161,-0.291,-44.173,17.700,50.687
1747663850.68,0.092,-0.075,-0.026,-1.291,-0.143,-0.329,-44.921,17.666,50.760
1747663850.69,-0.033,-0.079,0.031,-1.297,-0.119,-0.334,-45.684,17.632,50.813
1747663850.70,-0.116,-0.074,0.025,-1.328,-0.000,-0.317,-46.453,17.648,50.884
1747663850.71,-0.102,-0.057,-0.011,-1.386,0.061,-0.315,-47.246,17.740,50.960
1747663850.72,-0.053,-0.037,-0.033,-1.398,0.029,-0.312,-48.060,17.847,51.069
1747663850.73,-0.001,-0.015,-0.075,-1.393,0.017,-0.319,-48.874,17.943,51.166
1747663850.74,0.052,0.016,-0.062,-1.382,-0.051,-0.336,-49.686,18.017,51.267
1747663850.75,0.067,0.046,-0.031,-1.374,-0.187,-0.349,-50.494,18.018,51.348
1747663850.76,0.040,0.054,-0.042,-1.378,-0.257,-0.348,-51.303,17.954,51.432
1747663850.77,0.042,0.016,-0.022,-1.327,-0.231,-0.346,-52.102,17.874,51.491
1747663850.78,0.075,-0.060,0.015,-1.258,-0.169,-0.316,-52.862,17.819,51.563
1747663850.79,0.111,-0.124,0.049,-1.270,-0.156,-0.275,-53.597,17.808,51.631
1747663850.80,0.118,-0.142,0.051,-1.314,-0.165,-0.254,-54.346,17.832,51.771
1747663850.81,0.079,-0.127,0.054,-1.335,-0.254,-0.235,-55.109,17.856,51.915
1747663850.82,0.029,-0.089,0.020,-1.355,-0.402,-0.209,-55.879,17.837,52.117
1747663850.83,-0.003,-0.028,-0.027,-1.375,-0.544,-0.178,-56.656,17.765,52.323
1747663850.84,-0.008,0.042,-0.045,-1.360,-0.562,-0.183,-57.432,17.665,52.584
1747663850.85,-0.016,0.088,0.001,-1.302,-0.530,-0.218,-58.193,17.545,52.771
1747663850.86,-0.058,0.082,0.035,-1.271,-0.463,-0.247,-58.931,17.411,52.949
1747663850.87,-0.117,0.022,0.014,-1.253,-0.378,-0.251,-59.664,17.306,53.057
1747663850.88,-0.178,-0.061,0.001,-1.260,-0.336,-0.247,-60.387,17.230,53.206
1747663850.89,-0.238,-0.138,-0.057,-1.401,-0.227,-0.212,-61.151,17.243,53.368
1747663850.90,-0.261,-0.196,-0.018,-1.428,-0.073,-0.185,-61.963,17.410,53.652
1747663850.91,-0.225,-0.212,-0.001,-1.361,0.027,-0.153,-62.751,17.681,53.931
1747663850.92,-0.135,-0.160,-0.034,-1.333,0.198,-0.093,-63.503,18.072,54.301
1747663850.93,-0.015,-0.046,0.055,-1.341,0.365,-0.033,-64.237,18.661,54.738
1747663850.94,0.060,0.083,0.155,-1.352,0.264,-0.029,-64.970,19.347,55.289
1747663850.95,0.031,0.168,0.121,-1.350,0.056,-0.050,-65.702,19.953,55.811
1747663850.96,-0.003,0.161,-0.021,-1.398,0.010,-0.083,-66.450,20.498,56.391
1747663850.97,0.037,0.078,-0.023,-1.438,-0.071,-0.084,-67.229,21.050,56.958
1747663850.98,0.104,-0.032,0.012,-1.346,-0.217,-0.062,-67.988,21.580,57.546
1747663850.99,0.168,-0.107,-0.082,-1.248,-0.309,-0.082,-68.688,22.024,58.187
1747663851.00,0.200,-0.097,-0.113,-1.241,-0.391,-0.163,-69.370,22.363,58.692
1747663851.01,0.134,-0.034,-0.020,-1.286,-0.510,-0.205,-70.076,22.576,59.191
1747663851.02,-0.006,0.033,0.049,-1.392,-0.519,-0.196,-70.827,22.811,59.688
1747663851.03,-0.151,0.085,0.104,-1.444,-0.314,-0.219,-71.619,23.187,60.341
1747663851.04,-0.219,0.075,0.130,-1.468,-0.144,-0.260,-72.438,23.691,60.934
1747663851.05,-0.182,0.006,0.096,-1.462,-0.116,-0.241,-73.263,24.299,61.642
1747663851.06,-0.063,-0.050,0.028,-1.384,-0.175,-0.201,-74.058,24.986,62.356
1747663851.07,0.050,-0.088,-0.032,-1.286,-0.202,-0.166,-74.789,25.702,63.212
1747663851.08,0.089,-0.100,-0.055,-1.213,-0.200,-0.145,-75.470,26.474,64.052
1747663851.09,0.052,-0.055,-0.095,-1.089,-0.153,-0.223,-76.103,27.176,64.881
1747663851.10,-0.032,0.040,-0.168,-1.053,-0.049,-0.298,-76.713,27.725,65.421
1747663851.11,-0.108,0.081,-0.105,-0.985,0.208,-0.355,-77.319,28.238,65.905
1747663851.12,-0.089,0.028,-0.037,-0.888,0.430,-0.379,-77.889,28.740,66.138
1747663851.13,-0.016,-0.043,-0.054,-0.843,0.505,-0.396,-78.428,29.222,66.353
1747663851.14,0.046,-0.091,-0.053,-0.803,0.546,-0.364,-78.947,29.723,66.479
1747663851.15,0.125,-0.109,-0.037,-0.791,0.597,-0.309,-79.435,30.372,66.804
1747663851.16,0.211,-0.072,-0.029,-0.765,0.486,-0.280,-79.905,31.159,67.185
1747663851.17,0.216,-0.001,0.000,-0.644,0.297,-0.288,-80.333,31.802,67.611
1747663851.18,0.150,0.034,-0.038,-0.570,0.177,-0.328,-80.718,32.134,67.705
1747663851.19,0.091,0.025,-0.043,-0.492,0.117,-0.389,-81.085,32.152,67.638
1747663851.20,0.027,-0.008,-0.027,-0.368,0.110,-0.459,-81.423,31.724,67.027
1747663851.21,-0.035,-0.035,-0.055,-0.231,0.104,-0.474,-81.710,30.840,66.071
1747663851.22,-0.043,-0.031,-0.083,-0.080,0.135,-0.439,-81.919,29.639,64.666
1747663851.23,0.007,-0.006,-0.138,0.016,0.209,-0.365,-82.043,28.351,63.265
1747663851.24,0.086,0.021,-0.103,-0.037,0.319,-0.244,-82.123,27.385,62.023
1747663851.25,0.166,0.042,-0.035,-0.253,0.372,-0.138,-82.243,27.168,61.595
1747663851.26,0.165,0.013,0.101,-0.381,0.373,-0.134,-82.444,27.520,61.621
1747663851.27,0.068,-0.094,0.135,-0.387,0.552,-0.133,-82.676,28.030,61.870
1747663851.28,0.072,-0.164,0.168,-0.409,0.603,-0.061,-82.903,28.820,62.200
1747663851.29,0.158,-0.135,0.231,-0.381,0.416,0.001,-83.111,29.930,63.016
1747663851.30,0.221,-0.036,0.243,-0.226,0.012,-0.028,-83.265,30.785,63.619
1747663851.31,0.209,0.068,0.161,-0.037,-0.403,-0.094,-83.348,30.739,63.687
1747663851.32,0.165,0.131,0.070,0.121,-0.772,-0.189,-83.366,29.698,62.845
1747663851.33,0.096,0.152,0.017,0.246,-1.061,-0.286,-83.339,27.705,61.368
1747663851.34,0.017,0.135,-0.028,0.374,-1.298,-0.334,-83.262,24.998,59.175
1747663851.35,-0.037,0.107,-0.066,0.741,-1.334,-0.289,-83.052,21.824,56.750
1747663851.36,-0.049,0.143,-0.208,1.107,-0.823,-0.202,-82.593,18.682,54.080
1747663851.37,-0.024,0.188,-0.319,1.013,-0.386,-0.188,-82.032,16.201,51.902
1747663851.38,-0.087,0.121,0.018,0.621,-0.530,-0.153,-81.603,14.411,50.221
1747663851.39,-0.233,0.002,0.232,0.164,-0.723,-0.076,-81.402,13.268,49.435
1747663851.40,-0.285,-0.133,0.263,-0.161,-0.681,-0.084,-81.418,12.601,49.069
1747663851.41,-0.289,-0.242,0.245,-0.249,-0.496,-0.114,-81.551,12.058,48.862
1747663851.42,-0.264,-0.272,0.185,-0.151,-0.186,-0.027,-81.677,11.735,48.656
1747663851.43,-0.164,-0.209,0.147,-0.026,0.249,0.088,-81.720,11.945,48.852
1747663851.44,-0.071,-0.078,0.140,-0.025,0.587,0.138,-81.716,12.658,49.244
1747663851.45,-0.091,0.046,0.149,-0.063,0.674,0.133,-81.723,13.596,49.821
1747663851.46,-0.188,0.087,0.063,-0.063,0.632,0.103,-81.743,14.494,50.271
1747663851.47,-0.265,0.045,-0.058,-0.042,0.531,0.043,-81.763,15.164,50.610
1747663851.48,-0.286,-0.018,-0.122,-0.008,0.375,-0.024,-81.776,15.485,50.585
1747663851.49,-0.238,-0.044,-0.142,0.032,0.242,-0.063,-81.776,15.473,50.397
1747663851.50,-0.127,-0.039,-0.127,0.070,0.148,-0.065,-81.756,15.272,49.979
1747663851.51,0.000,-0.030,-0.107,0.113,0.057,-0.037,-81.713,15.036,49.681
1747663851.52,0.095,-0.031,-0.107,0.184,0.052,0.016,-81.634,14.865,49.391
1747663851.53,0.153,-0.025,-0.154,0.242,0.038,0.132,-81.505,14.939,49.431
1747663851.54,0.223,0.025,-0.282,0.243,-0.171,0.301,-81.338,15.445,49.889
1747663851.55,0.259,0.074,-0.420,0.081,-0.156,0.470,-81.174,16.536,51.099
1747663851.56,0.250,0.062,-0.312,-0.587,-0.068,0.470,-81.212,18.434,53.001
1747663851.57,0.141,-0.045,0.092,-1.226,0.121,0.203,-81.656,20.890,55.489
1747663851.58,-0.134,-0.328,0.630,-1.030,0.575,-0.043,-82.261,23.116,57.456
1747663851.59,-0.351,-0.613,0.887,-0.608,0.458,0.033,-82.691,24.761,58.804
1747663851.60,-0.420,-0.601,0.505,-0.356,0.386,0.265,-82.895,26.501,60.248
1747663851.61,-0.217,-0.187,-0.033,-0.445,0.269,0.429,-82.993,28.974,62.538
1747663851.62,0.136,0.416,-0.306,-0.553,-0.098,0.381,-83.127,31.962,65.422
1747663851.63,0.321,0.824,-0.427,-0.211,-0.301,0.172,-83.235,34.021,67.621
1747663851.64,0.311,0.841,-0.450,0.215,-0.341,0.013,-83.200,34.131,67.840
1747663851.65,0.214,0.482,-0.282,0.397,-0.341,-0.030,-83.053,33.036,66.937
1747663851.66,0.065,0.033,-0.047,0.419,-0.312,0.026,-82.854,31.799,65.804
1747663851.67,-0.133,-0.274,0.083,0.320,-0.281,0.065,-82.657,30.944,65.118
1747663851.68,-0.327,-0.366,0.056,0.215,0.003,0.027,-82.514,30.443,64.633
1747663851.69,-0.340,-0.288,0.032,0.126,0.509,0.053,-82.418,30.334,64.378
1747663851.70,-0.136,-0.132,0.067,-0.040,0.802,0.154,-82.366,31.003,64.598
1747663851.71,0.107,0.000,0.127,-0.135,0.794,0.228,-82.353,32.386,65.527
1747663851.72,0.250,0.059,0.066,-0.197,0.559,0.238,-82.358,33.999,66.688
1747663851.73,0.307,0.065,-0.002,-0.270,0.204,0.209,-82.396,35.572,68.057
1747663851.74,0.321,0.062,0.006,-0.275,-0.094,0.167,-82.460,36.956,69.356
1747663851.75,0.329,0.038,0.046,-0.194,-0.386,0.104,-82.520,37.924,70.470
1747663851.76,0.290,0.031,0.019,-0.106,-0.640,-0.006,-82.569,38.206,70.979
1747663851.77,0.185,0.029,-0.030,-0.034,-0.760,-0.121,-82.623,37.762,70.941
1747663851.78,0.082,0.009,-0.043,0.030,-0.732,-0.194,-82.681,36.778,70.311
1747663851.79,0.012,0.001,-0.032,0.114,-0.602,-0.207,-82.715,35.464,69.374
1747663851.80,-0.008,0.022,-0.039,0.179,-0.392,-0.176,-82.708,34.094,68.201
1747663851.81,0.013,0.046,-0.012,0.189,-0.220,-0.111,-82.664,32.937,67.208
1747663851.82,0.028,0.032,0.016,0.128,-0.132,-0.033,-82.608,32.178,66.479
1747663851.83,0.042,0.033,0.019,0.063,-0.080,-0.004,-82.566,31.865,66.226
1747663851.84,0.039,0.064,0.033,0.057,-0.020,-0.049,-82.545,31.610,65.951
1747663851.85,-0.019,0.067,0.086,0.016,0.012,-0.070,-82.545,31.290,65.630
1747663851.86,-0.063,0.028,0.171,-0.018,0.066,-0.066,-82.566,31.057,65.321
1747663851.87,-0.060,-0.002,0.244,-0.029,0.055,-0.056,-82.594,30.914,65.082
1747663851.88,-0.057,0.012,0.234,-0.085,-0.081,-0.052,-82.637,30.829,65.000
1747663851.89,-0.070,0.061,0.191,-0.138,-0.252,-0.063,-82.710,30.778,64.994
1747663851.90,-0.051,0.091,0.147,-0.142,-0.347,-0.093,-82.803,30.641,65.031
1747663851.91,0.020,0.082,0.116,-0.086,-0.416,-0.118,-82.893,30.280,64.839
1747663851.92,0.129,0.069,0.089,-0.010,-0.499,-0.118,-82.949,29.643,64.460
1747663851.93,0.228,0.067,0.024,0.091,-0.703,-0.096,-82.964,28.790,63.896
1747663851.94,0.289,0.043,-0.089,0.274,-1.013,-0.056,-82.894,27.601,63.190
1747663851.95,0.275,0.018,-0.201,0.519,-1.295,-0.039,-82.707,25.959,62.166
1747663851.96,0.214,0.049,-0.275,0.828,-1.366,-0.060,-82.372,23.785,60.752
1747663851.97,0.155,0.121,-0.350,1.189,-1.122,-0.089,-81.855,21.183,58.814
1747663851.98,0.075,0.148,-0.366,1.313,-0.721,-0.100,-81.187,18.655,56.788
1747663851.99,-0.081,0.060,-0.159,0.990,-0.620,-0.111,-80.564,16.664,55.116
1747663852.00,-0.357,-0.086,0.043,0.419,-0.713,-0.183,-80.196,15.170,53.990
1747663852.01,-0.648,-0.298,0.140,-0.038,-0.466,-0.314,-80.136,13.877,53.018
1747663852.02,-0.790,-0.561,0.249,-0.214,0.152,-0.300,-80.256,12.846,52.073
1747663852.03,-0.704,-0.757,0.336,-0.307,0.962,-0.066,-80.424,12.723,51.610
1747663852.04,-0.441,-0.768,0.414,-0.425,1.700,0.233,-80.616,14.067,52.192
1747663852.05,-0.149,-0.558,0.413,-0.454,1.994,0.423,-80.812,16.704,53.757
1747663852.06,0.021,-0.201,0.215,-0.254,1.708,0.429,-80.935,19.659,55.663
1747663852.07,0.074,0.179,-0.137,0.117,1.093,0.331,-80.897,21.833,57.025
1747663852.08,0.153,0.463,-0.435,0.488,0.475,0.216,-80.675,22.757,57.512
1747663852.09,0.296,0.605,-0.558,0.702,0.100,0.094,-80.321,22.601,57.157
1747663852.10,0.413,0.596,-0.514,0.728,-0.001,-0.044,-79.931,21.800,56.323
1747663852.11,0.439,0.439,-0.318,0.710,0.043,-0.147,-79.571,20.687,55.129
1747663852.12,0.362,0.181,-0.065,0.798,0.035,-0.123,-79.199,19.519,53.913
1747663852.13,0.241,-0.066,0.041,0.897,-0.082,0.003,-78.750,18.513,52.844
1747663852.14,0.071,-0.208,0.074,0.866,-0.092,0.161,-78.251,17.896,52.274
1747663852.15,-0.090,-0.215,0.130,0.688,0.048,0.269,-77.785,17.796,52.143
1747663852.16,-0.183,-0.138,0.188,0.451,0.162,0.294,-77.426,18.108,52.399
1747663852.17,-0.214,-0.048,0.219,0.337,0.258,0.269,-77.169,18.608,52.759
1747663852.18,-0.160,0.016,0.232,0.455,0.306,0.221,-76.915,19.037,53.033
1747663852.19,-0.070,0.065,0.185,0.622,0.336,0.174,-76.585,19.236,53.021
1747663852.20,-0.038,0.101,0.125,0.697,0.332,0.139,-76.198,19.257,52.843
1747663852.21,-0.070,0.112,0.091,0.761,0.254,0.100,-75.783,19.132,52.520
1747663852.22,-0.143,0.106,-0.014,0.805,0.291,0.076,-75.342,18.889,52.116
1747663852.23,-0.169,0.084,-0.058,0.736,0.431,0.094,-74.906,18.725,51.703
1747663852.24,-0.126,0.054,0.019,0.657,0.554,0.141,-74.510,18.774,51.462
1747663852.25,-0.087,0.005,0.088,0.653,0.641,0.197,-74.127,19.014,51.333
1747663852.26,-0.046,-0.051,0.132,0.644,0.648,0.246,-73.734,19.376,51.322
1747663852.27,-0.016,-0.099,0.180,0.608,0.533,0.295,-73.347,19.801,51.388
1747663852.28,0.034,-0.127,0.155,0.608,0.325,0.358,-72.958,20.238,51.585
1747663852.29,0.136,-0.130,0.035,0.652,0.096,0.393,-72.547,20.605,51.818
1747663852.30,0.227,-0.114,-0.025,0.778,-0.123,0.380,-72.091,20.802,52.033
1747663852.31,0.269,-0.070,-0.063,0.992,-0.319,0.321,-71.548,20.703,52.050
1747663852.32,0.247,-0.010,-0.168,1.145,-0.441,0.247,-70.916,20.294,51.854
1747663852.33,0.160,0.048,-0.257,1.131,-0.363,0.194,-70.256,19.748,51.514
1747663852.34,0.030,0.066,-0.228,0.967,-0.090,0.187,-69.655,19.344,51.225
1747663852.35,-0.077,0.020,-0.098,0.866,0.171,0.202,-69.129,19.191,51.031
1747663852.36,-0.133,-0.051,-0.075,0.875,0.409,0.252,-68.619,19.250,50.914
1747663852.37,-0.115,-0.125,-0.089,0.891,0.491,0.362,-68.085,19.508,50.908
1747663852.38,-0.041,-0.173,-0.070,0.909,0.492,0.477,-67.520,19.921,51.052
1747663852.39,0.041,-0.171,-0.051,0.922,0.509,0.546,-66.928,20.439,51.305
1747663852.40,0.111,-0.136,0.002,1.018,0.343,0.541,-66.304,20.921,51.555
1747663852.41,0.121,-0.090,-0.053,1.138,0.044,0.462,-65.622,21.131,51.682
1747663852.42,0.076,-0.025,-0.124,1.051,-0.124,0.383,-64.945,21.093,51.673
1747663852.43,0.028,0.031,-0.044,0.956,-0.063,0.326,-64.342,20.998,51.644
1747663852.44,-0.073,0.050,0.009,0.891,0.040,0.280,-63.784,20.941,51.581
1747663852.45,-0.216,0.033,0.064,0.826,0.048,0.269,-63.275,20.909,51.540
1747663852.46,-0.287,0.037,0.078,0.836,0.202,0.289,-62.775,20.931,51.493
1747663852.47,-0.190,0.071,0.040,0.819,0.336,0.277,-62.275,21.061,51.473
1747663852.48,-0.078,0.097,0.126,0.897,0.175,0.233,-61.770,21.142,51.391
1747663852.49,-0.041,0.101,0.062,1.056,0.004,0.191,-61.207,21.028,51.219
1747663852.50,0.010,0.108,-0.022,1.164,-0.005,0.149,-60.576,20.775,50.936
1747663852.51,0.052,0.096,0.023,1.166,0.085,0.103,-59.927,20.500,50.608
1747663852.52,0.029,0.063,0.067,1.090,0.191,0.108,-59.299,20.285,50.267
1747663852.53,-0.012,0.023,0.058,0.914,0.275,0.167,-58.734,20.214,50.046
1747663852.54,-0.065,-0.013,0.083,0.768,0.334,0.218,-58.248,20.283,49.927
1747663852.55,-0.135,-0.040,0.079,0.682,0.465,0.306,-57.810,20.502,49.937
1747663852.56,-0.092,-0.052,0.086,0.662,0.449,0.395,-57.382,20.858,50.037
1747663852.57,0.013,-0.013,0.103,0.721,0.232,0.410,-56.932,21.173,50.212
1747663852.58,0.092,0.061,0.047,0.852,0.047,0.345,-56.437,21.314,50.290
1747663852.59,0.150,0.130,0.010,0.980,-0.128,0.213,-55.887,21.231,50.247
1747663852.60,0.129,0.172,-0.015,1.019,-0.243,0.077,-55.324,20.931,50.019
1747663852.61,0.033,0.159,-0.014,1.097,-0.189,-0.007,-54.753,20.520,49.696
1747663852.62,-0.044,0.110,0.021,1.111,-0.036,-0.034,-54.160,20.128,49.294
1747663852.63,-0.059,0.044,0.037,0.960,0.080,-0.016,-53.606,19.845,48.943
1747663852.64,-0.075,-0.035,0.052,0.803,0.138,0.010,-53.135,19.680,48.655
1747663852.65,-0.062,-0.096,0.002,0.759,0.112,0.083,-52.709,19.586,48.473
1747663852.66,0.036,-0.129,-0.044,0.710,0.027,0.207,-52.285,19.544,48.369
1747663852.67,0.142,-0.131,0.017,0.720,-0.088,0.294,-51.855,19.529,48.418
1747663852.68,0.201,-0.077,0.051,0.816,-0.210,0.325,-51.384,19.471,48.453
1747663852.69,0.182,0.001,0.022,0.962,-0.301,0.319,-50.845,19.331,48.507
1747663852.70,0.090,0.052,0.008,1.093,-0.280,0.291,-50.231,19.125,48.462
1747663852.71,0.015,0.047,-0.008,1.158,-0.146,0.243,-49.570,18.923,48.402
1747663852.72,-0.003,0.007,-0.028,1.088,0.052,0.196,-48.919,18.789,48.262
1747663852.73,-0.018,-0.062,-0.001,0.981,0.190,0.204,-48.326,18.768,48.180
1747663852.74,-0.015,-0.157,0.055,0.870,0.179,0.294,-47.778,18.833,48.186
1747663852.75,0.052,-0.212,-0.019,0.752,0.152,0.392,-47.280,18.970,48.241
1747663852.76,0.148,-0.200,-0.043,0.732,0.016,0.473,-46.801,19.128,48.436
1747663852.77,0.174,-0.144,-0.015,0.777,-0.197,0.540,-46.300,19.215,48.629
1747663852.78,0.117,-0.061,-0.003,0.846,-0.324,0.555,-45.759,19.212,48.909
1747663852.79,0.032,0.025,0.015,0.962,-0.343,0.496,-45.172,19.136,49.076
1747663852.80,-0.069,0.087,0.024,1.021,-0.274,0.357,-44.554,19.002,49.204
1747663852.81,-0.147,0.136,0.022,1.010,-0.142,0.203,-43.952,18.845,49.151
1747663852.82,-0.168,0.138,0.036,0.973,-0.062,0.121,-43.387,18.695,49.085
1747663852.83,-0.161,0.083,0.057,0.915,0.030,0.156,-42.851,18.588,48.947
1747663852.84,-0.083,0.010,0.008,0.863,0.068,0.205,-42.338,18.566,48.934
1747663852.85,0.010,-0.030,-0.011,0.845,-0.047,0.258,-41.835,18.546,48.892
1747663852.86,0.026,-0.031,-0.034,0.834,-0.139,0.320,-41.328,18.495,48.967
1747663852.87,0.043,0.009,-0.019,0.886,-0.222,0.334,-40.806,18.414,49.001
1747663852.88,0.017,0.081,0.012,0.993,-0.265,0.279,-40.242,18.271,49.069
1747663852.89,-0.041,0.154,0.048,1.122,-0.212,0.167,-39.627,18.079,48.982
1747663852.90,-0.074,0.181,0.074,1.150,-0.221,0.055,-38.987,17.840,48.869
1747663852.91,-0.084,0.142,0.024,1.046,-0.197,0.042,-38.378,17.583,48.652
1747663852.92,-0.005,0.029,-0.053,0.898,-0.147,0.108,-37.837,17.387,48.572
1747663852.93,0.105,-0.086,-0.055,0.804,-0.141,0.197,-37.349,17.260,48.497
1747663852.94,0.170,-0.145,-0.026,0.770,-0.175,0.287,-36.880,17.172,48.567
1747663852.95,0.184,-0.146,0.033,0.734,-0.252,0.374,-36.412,17.091,48.636
1747663852.96,0.117,-0.065,0.015,0.679,-0.333,0.413,-35.961,16.998,48.837
1747663852.97,0.005,0.078,-0.011,0.710,-0.431,0.394,-35.518,16.857,48.971
1747663852.98,-0.087,0.175,-0.026,0.843,-0.446,0.303,-35.037,16.650,49.133
1747663852.99,-0.126,0.204,0.000,0.982,-0.415,0.146,-34.500,16.386,49.102
1747663853.00,-0.152,0.183,0.003,1.109,-0.415,0.026,-33.910,16.068,49.039
1747663853.01,-0.170,0.094,-0.055,1.117,-0.379,-0.032,-33.297,15.719,48.826
1747663853.02,-0.172,-0.055,-0.102,1.053,-0.197,-0.055,-32.705,15.425,48.679
1747663853.03,-0.122,-0.211,-0.087,0.940,-0.045,-0.005,-32.161,15.250,48.475
1747663853.04,-0.053,-0.329,-0.052,0.846,0.107,0.147,-31.659,15.205,48.457
1747663853.05,0.063,-0.367,0.021,0.773,0.197,0.276,-31.181,15.300,48.454
1747663853.06,0.181,-0.295,0.140,0.749,0.118,0.349,-30.716,15.431,48.619
1747663853.07,0.252,-0.091,0.149,0.773,-0.114,0.388,-30.241,15.487,48.720
1747663853.08,0.277,0.165,0.081,0.825,-0.373,0.424,-29.741,15.405,48.942
1747663853.09,0.241,0.334,0.027,0.915,-0.520,0.441,-29.196,15.205,49.067
1747663853.10,0.149,0.316,0.037,0.965,-0.470,0.397,-28.612,14.968,49.285
1747663853.11,0.035,0.182,0.029,0.958,-0.309,0.315,-28.027,14.774,49.347
1747663853.12,-0.057,0.041,-0.043,0.910,-0.186,0.309,-27.466,14.650,49.482
1747663853.13,-0.171,-0.074,-0.054,0.859,-0.059,0.346,-26.928,14.607,49.542
1747663853.14,-0.244,-0.127,-0.030,0.808,0.067,0.344,-26.417,14.645,49.720
1747663853.15,-0.218,-0.120,-0.031,0.835,0.177,0.262,-25.922,14.746,49.779
1747663853.16,-0.134,-0.065,-0.020,0.913,0.111,0.142,-25.410,14.823,49.860
1747663853.17,-0.105,0.016,-0.042,1.016,-0.029,0.025,-24.866,14.806,49.756
1747663853.18,-0.081,0.061,-0.043,1.111,-0.190,-0.061,-24.279,14.665,49.666
1747663853.19,-0.078,0.057,0.001,1.154,-0.257,-0.118,-23.664,14.439,49.433
1747663853.20,-0.063,0.023,0.023,1.186,-0.247,-0.149,-23.035,14.189,49.261
1747663853.21,-0.033,-0.007,0.045,1.190,-0.140,-0.093,-22.394,13.976,49.005
1747663853.22,0.013,-0.011,0.096,1.164,0.000,-0.008,-21.748,13.861,48.903
1747663853.23,0.068,-0.009,0.071,1.087,0.112,0.091,-21.116,13.842,48.761
1747663853.24,0.095,0.011,0.023,0.982,0.185,0.228,-20.521,13.909,48.813
1747663853.25,0.126,0.066,0.012,0.913,0.149,0.337,-19.959,14.016,48.845
1747663853.26,0.124,0.145,-0.009,0.882,0.159,0.375,-19.412,14.127,49.035
1747663853.27,0.146,0.200,-0.013,0.892,0.139,0.334,-18.872,14.243,49.114
1747663853.28,0.193,0.177,0.007,0.947,0.013,0.297,-18.321,14.304,49.270
1747663853.29,0.181,0.088,0.040,0.970,-0.150,0.297,-17.746,14.274,49.300
1747663853.30,0.125,-0.017,0.011,0.953,-0.224,0.281,-17.175,14.171,49.426
1747663853.31,0.063,-0.081,-0.024,0.994,-0.177,0.255,-16.599,14.057,49.439
1747663853.32,-0.029,-0.089,0.008,0.988,-0.080,0.232,-16.013,13.983,49.529
1747663853.33,-0.148,-0.030,0.033,0.949,0.039,0.209,-15.446,13.968,49.517
1747663853.34,-0.216,0.039,0.003,0.908,0.143,0.225,-14.901,14.018,49.608
1747663853.34,-0.204,0.071,-0.001,0.858,0.148,0.251,-14.378,14.109,49.618
1747663853.36,-0.097,0.069,-0.004,0.847,0.065,0.216,-13.876,14.175,49.728
1747663853.36,0.084,0.041,-0.048,0.886,-0.067,0.164,-13.369,14.172,49.710
1747663853.37,0.238,-0.023,-0.034,0.888,-0.232,0.128,-12.856,14.077,49.748
1747663853.38,0.293,-0.095,-0.026,0.905,-0.327,0.143,-12.343,13.901,49.696
1747663853.40,0.264,-0.147,-0.011,0.900,-0.287,0.194,-11.816,13.716,49.752
1747663853.40,0.164,-0.159,0.044,0.883,-0.166,0.236,-11.294,13.584,49.751
1747663853.41,0.024,-0.134,-0.007,0.865,-0.014,0.295,-10.772,13.538,49.868
1747663853.42,-0.096,-0.062,-0.040,0.808,0.160,0.345,-10.263,13.592,49.935
1747663853.43,-0.170,0.031,-0.048,0.720,0.231,0.344,-9.791,13.725,50.116
1747663853.44,-0.182,0.095,-0.064,0.694,0.213,0.307,-9.357,13.867,50.203
1747663853.45,-0.110,0.116,-0.079,0.699,0.147,0.226,-8.934,13.982,50.344
1747663853.46,0.059,0.086,-0.083,0.719,-0.054,0.134,-8.517,14.014,50.346
1747663853.47,0.201,0.021,-0.094,0.762,-0.286,0.066,-8.094,13.909,50.381
1747663853.48,0.207,-0.021,-0.062,0.781,-0.420,0.045,-7.655,13.691,50.304
1747663853.49,0.093,-0.028,-0.019,0.740,-0.359,0.046,-7.227,13.450,50.291
1747663853.50,-0.045,-0.006,-0.022,0.749,-0.105,0.071,-6.805,13.304,50.224
1747663853.51,-0.179,0.058,0.012,0.733,0.214,0.104,-6.383,13.333,50.250
1747663853.52,-0.287,0.135,0.008,0.769,0.445,0.096,-5.953,13.519,50.208
1747663853.53,-0.312,0.155,-0.061,0.754,0.591,0.043,-5.516,13.811,50.212
1747663853.54,-0.212,0.136,-0.080,0.700,0.619,-0.029,-5.114,14.157,50.117
1747663853.55,-0.055,0.085,-0.079,0.666,0.438,-0.078,-4.744,14.454,50.053
1747663853.56,0.056,0.001,-0.100,0.647,0.180,-0.106,-4.395,14.619,49.907
1747663853.57,0.163,-0.018,-0.114,0.628,-0.111,-0.128,-4.058,14.629,49.812
1747663853.58,0.228,-0.001,-0.109,0.588,-0.333,-0.104,-3.740,14.485,49.658
1747663853.59,0.215,0.017,-0.077,0.555,-0.419,-0.047,-3.435,14.258,49.595
1747663853.60,0.144,0.031,-0.016,0.529,-0.361,-0.001,-3.138,14.025,49.506
1747663853.61,0.030,0.048,0.060,0.512,-0.219,0.035,-2.849,13.855,49.507
1747663853.62,-0.048,0.060,0.063,0.506,-0.042,0.062,-2.559,13.777,49.520
1747663853.63,-0.070,0.030,-0.016,0.481,0.082,0.065,-2.276,13.791,49.489
1747663853.64,-0.040,-0.042,-0.063,0.440,0.092,0.051,-2.011,13.842,49.518
1747663853.65,0.016,-0.126,-0.081,0.401,0.047,0.031,-1.773,13.883,49.484
1747663853.66,0.089,-0.170,-0.054,0.351,-0.084,0.026,-1.560,13.873,49.515
1747663853.67,0.140,-0.150,-0.058,0.330,-0.211,0.022,-1.370,13.787,49.482
1747663853.68,0.133,-0.063,-0.052,0.305,-0.287,0.047,-1.188,13.641,49.522
1747663853.69,0.066,0.025,-0.040,0.276,-0.256,0.079,-1.020,13.481,49.518
1747663853.70,0.002,0.056,-0.052,0.292,-0.161,0.104,-0.851,13.361,49.595
1747663853.71,-0.054,0.069,-0.063,0.287,-0.033,0.090,-0.675,13.305,49.612
1747663853.72,-0.113,0.064,-0.048,0.272,0.089,0.040,-0.511,13.324,49.666
1747663853.73,-0.099,0.007,-0.056,0.271,0.128,0.013,-0.358,13.388,49.644
1747663853.74,-0.031,-0.064,-0.077,0.249,0.101,-0.008,-0.211,13.455,49.665
1747663853.75,0.046,-0.075,-0.078,0.199,0.011,-0.021,-0.089,13.488,49.627
1747663853.76,0.121,-0.034,-0.067,0.205,-0.095,-0.012,0.021,13.463,49.649
1747663853.77,0.141,0.022,-0.052,0.171,-0.162,0.019,0.126,13.389,49.626
1747663853.78,0.104,0.064,-0.055,0.140,-0.187,0.043,0.216,13.288,49.684
1747663853.79,0.064,0.094,-0.061,0.143,-0.168,0.061,0.301,13.184,49.695
1747663853.80,0.020,0.090,-0.021,0.170,-0.090,0.076,0.398,13.110,49.761
1747663853.81,-0.022,0.058,0.011,0.156,0.004,0.066,0.498,13.086,49.780
1747663853.82,-0.029,0.002,0.011,0.170,0.032,0.062,0.597,13.099,49.837
1747663853.83,-0.020,-0.078,0.017,0.156,0.056,0.062,0.698,13.123,49.851
1747663853.84,0.028,-0.115,0.022,0.125,0.073,0.046,0.781,13.161,49.908
1747663853.85,0.118,-0.092,-0.019,0.119,0.005,0.057,0.855,13.191,49.920
1747663853.86,0.135,-0.037,-0.075,0.065,-0.046,0.088,0.912,13.180,50.005
1747663853.87,0.096,0.008,-0.079,0.050,-0.112,0.121,0.953,13.137,50.056
1747663853.88,0.072,0.031,-0.099,0.064,-0.146,0.127,0.996,13.061,50.157
1747663853.89,0.043,0.056,-0.067,0.092,-0.133,0.104,1.050,12.979,50.212
1747663853.90,0.004,0.072,0.022,0.117,-0.128,0.071,1.118,12.905,50.281
1747663853.91,-0.066,0.082,0.078,0.136,-0.110,0.067,1.202,12.832,50.303
1747663853.92,-0.134,0.073,0.082,0.134,-0.034,0.059,1.291,12.792,50.368
1747663853.93,-0.163,0.040,0.042,0.127,0.018,0.054,1.372,12.793,50.382
1747663853.94,-0.131,0.009,-0.036,0.145,0.007,0.016,1.454,12.806,50.425
1747663853.95,-0.069,0.006,-0.100,0.137,-0.035,-0.036,1.531,12.800,50.403
1747663853.96,-0.022,0.016,-0.129,0.171,-0.048,-0.101,1.606,12.778,50.382
1747663853.97,-0.012,-0.005,-0.097,0.183,-0.034,-0.151,1.688,12.758,50.288
1747663853.98,-0.040,-0.020,-0.035,0.166,-0.021,-0.148,1.764,12.744,50.218
1747663853.99,-0.046,-0.025,-0.010,0.115,-0.004,-0.110,1.823,12.740,50.128
1747663854.00,-0.012,-0.031,0.015,0.117,-0.003,-0.080,1.871,12.736,50.113
1747663854.01,0.033,0.007,0.013,0.123,-0.016,-0.069,1.929,12.728,50.057
1747663854.02,0.061,0.079,-0.010,0.119,-0.034,-0.073,1.987,12.708,50.039
1747663854.03,0.055,0.115,-0.039,0.099,-0.004,-0.073,2.038,12.693,49.985
1747663854.04,0.034,0.069,-0.063,0.079,0.053,-0.067,2.078,12.708,49.969
1747663854.05,0.024,-0.022,-0.068,0.030,0.067,-0.071,2.102,12.743,49.924
1747663854.06,0.027,-0.087,-0.099,-0.060,0.063,-0.073,2.084,12.780,49.913
1747663854.07,0.049,-0.106,-0.118,-0.121,0.002,-0.062,2.025,12.797,49.886
1747663854.08,0.076,-0.096,-0.102,-0.143,-0.042,-0.064,1.944,12.784,49.896
1747663854.09,0.077,-0.067,-0.064,-0.178,-0.033,-0.105,1.844,12.763,49.871
1747663854.10,0.073,-0.046,-0.083,-0.203,0.001,-0.148,1.718,12.758,49.858
1747663854.11,0.042,-0.062,-0.125,-0.267,0.038,-0.119,1.567,12.770,49.810
1747663854.12,-0.018,-0.086,-0.120,-0.361,0.094,-0.077,1.377,12.810,49.833
1747663854.13,-0.038,-0.076,-0.150,-0.425,0.124,-0.094,1.148,12.873,49.837
1747663854.14,-0.031,-0.030,-0.197,-0.491,0.110,-0.119,0.883,12.941,49.873
1747663854.15,-0.046,0.006,-0.197,-0.564,0.060,-0.147,0.573,12.992,49.868
1747663854.16,-0.056,-0.008,-0.187,-0.586,0.002,-0.188,0.231,13.008,49.882
1747663854.17,-0.014,-0.064,-0.142,-0.577,0.020,-0.225,-0.118,13.012,49.842
1747663854.18,0.062,-0.115,-0.039,-0.609,0.047,-0.237,-0.476,13.032,49.827
1747663854.19,0.109,-0.115,-0.032,-0.696,0.036,-0.193,-0.866,13.056,49.789
1747663854.20,0.112,-0.089,-0.117,-0.796,0.031,-0.124,-1.301,13.074,49.843
1747663854.21,0.090,-0.052,-0.159,-0.879,0.069,-0.090,-1.783,13.102,49.893
1747663854.22,0.096,-0.006,-0.179,-0.948,0.087,-0.070,-2.301,13.152,50.016
1747663854.23,0.121,0.024,-0.145,-0.992,0.105,-0.060,-2.850,13.210,50.106
1747663854.24,0.124,0.030,-0.086,-1.034,0.088,-0.067,-3.421,13.272,50.247
1747663854.25,0.121,0.007,-0.053,-1.078,0.052,-0.073,-4.016,13.320,50.347
1747663854.26,0.110,-0.035,-0.023,-1.139,-0.005,-0.072,-4.643,13.341,50.501
1747663854.27,0.098,-0.078,-0.048,-1.192,-0.045,-0.059,-5.298,13.338,50.619
1747663854.28,0.080,-0.107,-0.116,-1.255,-0.065,-0.054,-5.985,13.318,50.806
1747663854.29,0.013,-0.097,-0.121,-1.271,-0.059,-0.060,-6.695,13.298,50.942
1747663854.30,-0.039,-0.058,-0.089,-1.261,-0.053,-0.093,-7.408,13.281,51.119
1747663854.31,-0.050,0.001,-0.053,-1.273,-0.037,-0.153,-8.128,13.269,51.217
1747663854.32,-0.047,0.054,-0.018,-1.284,-0.048,-0.200,-8.863,13.254,51.338
1747663854.33,-0.065,0.062,0.018,-1.306,-0.003,-0.210,-9.610,13.247,51.393
1747663854.34,-0.063,0.021,0.022,-1.308,0.054,-0.198,-10.365,13.273,51.506
1747663854.35,-0.026,-0.051,-0.014,-1.317,0.079,-0.168,-11.117,13.325,51.578
1747663854.36,-0.002,-0.121,-0.040,-1.323,0.099,-0.161,-11.873,13.393,51.722
1747663854.37,0.014,-0.155,-0.054,-1.327,0.105,-0.174,-12.630,13.468,51.806
1747663854.38,-0.000,-0.146,-0.044,-1.346,0.125,-0.191,-13.396,13.551,51.945
1747663854.39,-0.034,-0.114,-0.014,-1.354,0.132,-0.198,-14.173,13.642,52.020
1747663854.40,-0.065,-0.080,-0.012,-1.342,0.162,-0.192,-14.948,13.743,52.157
1747663854.41,-0.062,-0.054,0.004,-1.337,0.210,-0.175,-15.715,13.870,52.240
1747663854.42,-0.018,-0.041,0.044,-1.317,0.249,-0.144,-16.474,14.030,52.407
1747663854.43,0.028,-0.042,0.054,-1.297,0.238,-0.110,-17.215,14.205,52.523
1747663854.44,0.031,-0.043,0.047,-1.320,0.183,-0.093,-17.952,14.367,52.722
1747663854.45,0.014,-0.045,0.023,-1.341,0.132,-0.090,-18.701,14.501,52.869
1747663854.46,0.020,-0.057,-0.009,-1.308,0.189,-0.096,-19.447,14.636,53.059
1747663854.47,0.043,-0.070,0.001,-1.310,0.312,-0.111,-20.181,14.830,53.200
1747663854.48,0.061,-0.065,-0.018,-1.390,0.288,-0.119,-20.942,15.056,53.400
1747663854.49,0.032,-0.056,-0.069,-1.413,0.213,-0.096,-21.733,15.257,53.560
1747663854.50,-0.006,-0.055,-0.067,-1.425,0.176,-0.057,-22.527,15.436,53.791
1747663854.51,-0.005,-0.046,-0.016,-1.400,0.163,-0.056,-23.314,15.613,54.021
1747663854.52,-0.012,-0.023,0.065,-1.350,0.133,-0.106,-24.082,15.771,54.205
1747663854.53,-0.040,0.005,0.097,-1.323,0.129,-0.171,-24.837,15.905,54.384
1747663854.54,-0.038,0.031,0.040,-1.343,0.146,-0.224,-25.597,16.030,54.493
1747663854.55,-0.043,0.049,0.003,-1.420,0.172,-0.220,-26.390,16.168,54.632
1747663854.56,-0.033,0.050,-0.018,-1.479,0.124,-0.169,-27.216,16.320,54.771
1747663854.57,-0.007,0.044,-0.070,-1.510,0.025,-0.105,-28.059,16.450,54.993
1747663854.58,0.011,0.040,-0.076,-1.477,-0.055,-0.062,-28.891,16.550,55.221
1747663854.59,0.029,0.035,-0.032,-1.431,-0.162,-0.095,-29.699,16.600,55.461
1747663854.60,0.023,0.024,-0.001,-1.345,-0.217,-0.184,-30.484,16.576,55.637
1747663854.61,0.012,-0.010,0.008,-1.240,-0.179,-0.302,-31.229,16.508,55.745
1747663854.62,-0.003,-0.065,-0.001,-1.226,-0.148,-0.390,-31.957,16.418,55.752
1747663854.63,-0.024,-0.133,-0.032,-1.269,-0.118,-0.393,-32.705,16.331,55.733
1747663854.64,-0.035,-0.197,-0.032,-1.303,-0.016,-0.337,-33.468,16.292,55.739
1747663854.65,-0.054,-0.226,0.015,-1.335,0.109,-0.271,-34.241,16.350,55.807
1747663854.66,-0.072,-0.211,0.040,-1.335,0.178,-0.205,-35.011,16.494,55.911
1747663854.67,-0.084,-0.165,-0.003,-1.358,0.202,-0.150,-35.778,16.690,56.062
1747663854.68,-0.073,-0.109,-0.015,-1.387,0.249,-0.095,-36.548,16.936,56.260
1747663854.69,-0.007,-0.064,-0.021,-1.403,0.256,-0.087,-37.324,17.223,56.495
1747663854.70,0.065,-0.029,-0.025,-1.385,0.213,-0.120,-38.103,17.498,56.724
1747663854.71,0.104,-0.006,-0.029,-1.333,0.141,-0.193,-38.869,17.721,56.919
1747663854.72,0.116,0.015,-0.021,-1.294,0.036,-0.263,-39.623,17.857,57.052
1747663854.73,0.087,0.035,-0.016,-1.264,-0.090,-0.313,-40.368,17.898,57.127
1747663854.74,0.031,0.039,-0.021,-1.255,-0.164,-0.328,-41.109,17.860,57.187
1747663854.75,-0.022,0.023,-0.029,-1.276,-0.086,-0.328,-41.852,17.822,57.241
1747663854.76,-0.045,-0.007,0.000,-1.324,-0.027,-0.331,-42.617,17.835,57.305
1747663854.77,-0.065,-0.034,0.023,-1.341,0.018,-0.302,-43.398,17.886,57.382
1747663854.78,-0.058,-0.058,0.013,-1.368,0.106,-0.243,-44.182,18.006,57.507
1747663854.79,-0.003,-0.063,0.018,-1.377,0.180,-0.202,-44.968,18.212,57.673
1747663854.80,0.046,-0.047,0.011,-1.389,0.170,-0.174,-45.751,18.464,57.883
1747663854.81,0.071,-0.020,-0.014,-1.389,0.130,-0.174,-46.536,18.717,58.105
1747663854.82,0.064,0.015,-0.016,-1.371,0.091,-0.196,-47.316,18.945,58.333
1747663854.83,0.045,0.039,0.001,-1.324,0.041,-0.234,-48.085,19.132,58.523
1747663854.84,0.020,0.050,0.013,-1.281,-0.008,-0.275,-48.833,19.261,58.685
1747663854.85,0.003,0.043,-0.016,-1.301,-0.012,-0.318,-49.583,19.351,58.791
1747663854.86,-0.001,0.016,-0.012,-1.363,0.010,-0.355,-50.364,19.434,58.900
1747663854.87,0.000,-0.009,-0.006,-1.423,-0.037,-0.363,-51.184,19.517,58.992
1747663854.88,-0.005,-0.025,-0.006,-1.428,-0.110,-0.348,-52.021,19.580,59.125
1747663854.89,-0.019,-0.026,0.013,-1.413,-0.167,-0.321,-52.850,19.618,59.240
1747663854.90,-0.001,-0.013,0.023,-1.379,-0.168,-0.289,-53.660,19.663,59.417
1747663854.91,0.058,-0.003,0.001,-1.352,-0.207,-0.295,-54.449,19.705,59.573
1747663854.92,0.094,0.004,-0.046,-1.346,-0.244,-0.320,-55.234,19.708,59.737
1747663854.93,0.081,-0.005,-0.066,-1.347,-0.220,-0.360,-56.022,19.686,59.841
1747663854.94,0.053,-0.026,-0.047,-1.383,-0.211,-0.377,-56.828,19.660,59.956
1747663854.95,0.003,-0.049,-0.007,-1.381,-0.217,-0.375,-57.646,19.638,60.046
1747663854.96,-0.043,-0.070,-0.009,-1.369,-0.198,-0.371,-58.457,19.618,60.165
1747663854.97,-0.054,-0.073,-0.041,-1.364,-0.135,-0.375,-59.263,19.626,60.243
1747663854.98,-0.030,-0.054,-0.032,-1.375,-0.117,-0.383,-60.072,19.657,60.361
1747663854.99,-0.005,-0.024,-0.012,-1.381,-0.155,-0.391,-60.887,19.681,60.426
1747663855.00,-0.001,0.008,0.008,-1.375,-0.198,-0.402,-61.705,19.675,60.536
1747663855.01,-0.013,0.030,0.042,-1.362,-0.193,-0.433,-62.521,19.633,60.560
1747663855.02,-0.035,0.031,0.073,-1.365,-0.149,-0.449,-63.341,19.580,60.614
1747663855.03,-0.058,0.001,0.067,-1.313,-0.047,-0.461,-64.150,19.547,60.569
1747663855.04,-0.051,-0.043,0.006,-1.299,0.000,-0.451,-64.938,19.539,60.573
1747663855.05,-0.024,-0.082,-0.038,-1.339,0.016,-0.395,-65.728,19.595,60.552
1747663855.06,0.028,-0.084,-0.046,-1.376,0.004,-0.363,-66.532,19.736,60.699
1747663855.07,0.060,-0.054,-0.009,-1.336,-0.009,-0.368,-67.334,19.895,60.795
1747663855.08,0.082,-0.019,0.006,-1.251,-0.044,-0.362,-68.101,20.015,60.940
1747663855.09,0.103,0.021,-0.003,-1.195,-0.099,-0.362,-68.825,20.088,60.987
1747663855.10,0.080,0.049,0.002,-1.226,-0.123,-0.398,-69.548,20.116,61.083
1747663855.11,0.025,0.036,0.061,-1.230,-0.167,-0.426,-70.289,20.087,61.055
1747663855.12,-0.029,-0.023,0.023,-1.194,-0.109,-0.440,-71.025,20.011,61.063
1747663855.13,-0.047,-0.098,-0.027,-1.185,0.039,-0.402,-71.745,20.005,60.995
1747663855.14,-0.028,-0.150,0.006,-1.216,0.097,-0.336,-72.461,20.166,61.117
1747663855.15,-0.006,-0.145,-0.015,-1.232,0.064,-0.301,-73.180,20.451,61.264
1747663855.16,0.009,-0.081,-0.081,-1.170,0.021,-0.322,-73.886,20.738,61.536
1747663855.17,0.016,-0.000,-0.081,-1.091,-0.010,-0.372,-74.560,20.894,61.601
1747663855.18,0.021,0.061,-0.035,-1.046,-0.011,-0.399,-75.208,20.926,61.640
1747663855.19,0.029,0.066,0.021,-0.995,-0.039,-0.401,-75.835,20.893,61.518
1747663855.20,0.030,0.035,-0.003,-0.937,-0.069,-0.391,-76.431,20.790,61.445
1747663855.21,0.007,0.005,-0.058,-0.930,-0.049,-0.368,-77.004,20.697,61.280
1747663855.22,-0.019,-0.050,-0.054,-0.960,-0.009,-0.343,-77.581,20.685,61.283
1747663855.23,-0.031,-0.104,-0.008,-1.010,0.028,-0.303,-78.171,20.814,61.298
1747663855.24,-0.039,-0.117,0.027,-1.051,0.104,-0.284,-78.784,21.125,61.577
1747663855.25,-0.046,-0.077,0.043,-1.018,0.161,-0.295,-79.396,21.533,61.788
1747663855.26,-0.029,-0.024,-0.013,-0.970,0.165,-0.305,-79.987,21.886,62.049
1747663855.27,0.012,0.018,-0.028,-0.937,0.207,-0.274,-80.555,22.291,62.242
1747663855.28,0.060,0.042,0.003,-0.890,0.270,-0.261,-81.096,22.803,62.620
1747663855.29,0.084,0.041,0.040,-0.830,0.233,-0.252,-81.605,23.331,62.895
1747663855.30,0.061,0.033,0.022,-0.770,0.197,-0.254,-82.081,23.812,63.256
1747663855.31,0.028,0.029,0.014,-0.688,0.133,-0.266,-82.522,24.166,63.394
1747663855.32,-0.009,0.018,0.022,-0.628,0.036,-0.261,-82.923,24.339,63.518
1747663855.33,-0.056,-0.012,0.021,-0.658,-0.053,-0.270,-83.317,24.441,63.500
1747663855.34,-0.102,-0.037,0.037,-0.738,-0.049,-0.277,-83.744,24.611,63.705
1747663855.35,-0.109,-0.048,0.051,-0.756,0.030,-0.268,-84.201,24.979,63.962
1747663855.36,-0.097,-0.047,0.030,-0.692,0.182,-0.253,-84.639,25.469,64.396
1747663855.37,-0.080,-0.033,0.028,-0.655,0.309,-0.223,-85.043,26.089,64.738
1747663855.38,-0.066,-0.014,0.045,-0.668,0.329,-0.188,-85.433,27.050,65.371
1747663855.39,-0.054,0.000,0.048,-0.648,0.315,-0.174,-85.815,28.344,66.488
1747663855.40,-0.037,0.008,0.015,-0.607,0.308,-0.194,-86.178,29.705,67.531
1747663855.41,-0.009,0.020,-0.021,-0.584,0.252,-0.220,-86.531,30.955,68.624
1747663855.42,0.020,0.028,-0.037,-0.575,0.260,-0.243,-86.882,32.140,69.532
1747663855.43,0.061,0.018,-0.002,-0.553,0.253,-0.251,-87.231,33.375,70.619
1747663855.44,0.084,0.003,0.030,-0.485,0.179,-0.234,-87.554,34.618,71.582
1747663855.45,0.060,-0.003,0.002,-0.401,0.031,-0.203,-87.835,35.722,72.626
1747663855.46,0.004,-0.015,-0.032,-0.319,-0.056,-0.161,-88.061,36.798,73.564
1747663855.47,-0.044,-0.025,-0.050,-0.238,-0.026,-0.145,-88.240,37.581,74.374
1747663855.48,-0.065,-0.025,-0.052,-0.193,0.071,-0.115,-88.382,38.065,74.704
1747663855.49,-0.055,-0.021,-0.047,-0.233,0.172,-0.076,-88.510,39.320,75.889
1747663855.50,-0.015,-0.014,-0.017,-0.303,0.219,-0.056,-88.649,42.339,78.637
1747663855.51,0.024,-0.013,-0.008,-0.341,0.244,-0.060,-88.804,47.383,83.550
1747663855.52,0.051,-0.021,-0.030,-0.309,0.213,-0.079,-88.953,53.608,89.486
1747663855.53,0.053,-0.040,-0.026,-0.287,0.129,-0.082,-89.083,60.425,96.208
1747663855.54,0.049,-0.045,-0.014,-0.281,0.100,-0.082,-89.196,68.935,104.514
1747663855.55,0.061,-0.027,0.005,-0.223,0.075,-0.081,-89.281,78.691,114.220
1747663855.56,0.064,0.000,-0.031,-0.094,0.025,-0.084,-89.342,85.843,121.193
1747663855.57,0.059,0.033,-0.096,0.048,-0.049,-0.058,-89.384,86.754,122.114
1747663855.58,0.069,0.063,-0.146,0.150,-0.044,-0.019,-89.399,80.971,116.219
1747663855.59,0.070,0.066,-0.115,0.139,-0.024,0.010,-89.382,73.093,108.359
1747663855.60,0.048,0.026,-0.019,0.072,-0.018,0.021,-89.352,68.216,103.345
1747663855.61,0.008,-0.032,0.064,0.027,-0.032,0.009,-89.334,66.346,101.487
1747663855.62,-0.046,-0.063,0.097,0.050,-0.069,-0.004,-89.321,65.015,100.030
1747663855.63,-0.086,-0.038,0.080,0.112,-0.090,0.011,-89.295,61.693,96.753
1747663855.64,-0.089,0.012,0.063,0.140,-0.099,0.065,-89.236,57.615,92.584
1747663855.65,-0.055,0.015,0.078,0.135,-0.028,0.098,-89.147,54.599,89.608
1747663855.66,0.006,-0.026,0.100,0.136,0.062,0.115,-89.046,52.778,87.631
1747663855.67,0.059,-0.056,0.104,0.161,0.066,0.119,-88.935,51.231,86.043
1747663855.68,0.064,-0.044,0.076,0.165,-0.033,0.105,-88.824,49.682,84.339
1747663855.69,0.025,-0.001,0.080,0.204,-0.141,0.081,-88.718,47.788,82.497
1747663855.70,-0.011,0.043,0.072,0.261,-0.203,0.054,-88.603,44.761,79.432
1747663855.71,-0.036,0.069,0.060,0.273,-0.256,0.037,-88.479,41.256,76.056
1747663855.72,-0.060,0.068,0.070,0.284,-0.302,0.040,-88.348,37.996,72.823
1747663855.73,-0.077,0.052,0.046,0.285,-0.239,0.026,-88.212,35.145,70.130
1747663855.74,-0.076,0.024,0.063,0.274,-0.168,0.006,-88.083,32.705,67.670
1747663855.75,-0.077,-0.012,0.116,0.256,-0.142,0.001,-87.961,30.717,65.766
1747663855.76,-0.071,-0.042,0.121,0.264,-0.162,0.008,-87.838,29.031,64.056
1747663855.77,-0.046,-0.057,0.084,0.300,-0.197,0.032,-87.702,27.445,62.570
1747663855.78,-0.009,-0.057,0.048,0.419,-0.252,0.057,-87.520,25.818,60.963
1747663855.79,0.034,-0.044,-0.001,0.595,-0.265,0.084,-87.240,23.780,59.075
1747663855.80,0.078,-0.017,-0.052,0.694,-0.171,0.148,-86.872,21.996,57.311
1747663855.81,0.128,0.016,-0.032,0.699,-0.130,0.250,-86.457,21.224,56.616
1747663855.82,0.115,0.053,0.027,0.693,-0.298,0.301,-86.029,21.205,56.608
1747663855.83,-0.021,0.064,0.009,0.692,-0.367,0.249,-85.603,21.091,56.695
1747663855.84,-0.145,0.019,-0.009,0.684,-0.157,0.162,-85.194,20.549,56.214
1747663855.85,-0.164,-0.037,0.036,0.687,0.039,0.128,-84.800,19.839,55.531
1747663855.86,-0.135,-0.071,0.062,0.731,0.135,0.119,-84.397,19.167,54.716
1747663855.87,-0.089,-0.065,0.046,0.837,0.178,0.138,-83.950,18.520,53.974
1747663855.88,-0.022,-0.014,0.019,0.906,0.176,0.170,-83.446,17.955,53.209
1747663855.89,0.030,0.038,0.018,0.906,0.073,0.181,-82.922,17.509,52.684
1747663855.90,0.025,0.062,0.040,0.874,-0.093,0.203,-82.404,17.138,52.223
1747663855.91,0.004,0.070,0.027,0.839,-0.124,0.240,-81.900,16.911,52.063
1747663855.92,-0.004,0.056,-0.003,0.856,0.019,0.253,-81.397,16.834,51.943
1747663855.93,-0.030,0.006,0.045,0.854,0.091,0.272,-80.885,16.879,51.950
1747663855.94,-0.077,-0.051,0.108,0.844,0.117,0.282,-80.374,17.003,51.958
1747663855.95,-0.117,-0.077,0.092,0.829,0.175,0.278,-79.869,17.161,52.033
1747663855.96,-0.108,-0.077,0.079,0.838,0.172,0.245,-79.372,17.276,51.983
1747663855.97,-0.071,-0.054,0.040,0.921,0.127,0.223,-78.856,17.247,51.867
1747663855.98,0.002,-0.005,-0.044,0.988,0.132,0.241,-78.292,17.137,51.627
1747663855.99,0.090,0.069,-0.067,0.932,0.159,0.281,-77.720,17.131,51.536
1747663856.00,0.111,0.112,0.005,0.869,0.148,0.262,-77.186,17.218,51.481
1747663856.01,0.030,0.081,0.092,0.899,0.046,0.231,-76.663,17.203,51.410
1747663856.02,-0.076,-0.006,0.068,0.878,0.016,0.252,-76.135,17.132,51.274
1747663856.03,-0.084,-0.085,0.036,0.836,0.058,0.305,-75.623,17.181,51.308
1747663856.04,-0.025,-0.129,0.016,0.902,0.187,0.353,-75.097,17.377,51.404
1747663856.05,0.045,-0.127,0.005,0.993,0.284,0.390,-74.516,17.660,51.555
1747663856.06,0.101,-0.075,-0.003,1.002,0.295,0.387,-73.902,17.959,51.660
1747663856.07,0.107,-0.009,-0.036,0.958,0.339,0.365,-73.303,18.240,51.770
1747663856.08,0.100,0.022,-0.048,0.969,0.533,0.342,-72.719,18.550,51.801
1747663856.09,0.092,0.020,0.022,0.948,0.542,0.337,-72.134,18.884,51.817
1747663856.10,0.039,0.032,0.036,0.800,0.391,0.356,-71.596,19.221,51.863
1747663856.11,-0.027,0.048,0.017,0.754,0.338,0.364,-71.113,19.574,52.019
1747663856.12,-0.060,0.023,-0.005,0.772,0.298,0.328,-70.636,19.874,52.116
1747663856.13,-0.066,-0.015,-0.002,0.793,0.206,0.279,-70.158,20.048,52.147
1747663856.14,-0.027,-0.032,-0.013,0.877,0.125,0.239,-69.661,20.078,52.058
1747663856.15,0.039,-0.028,-0.075,0.991,0.072,0.190,-69.117,19.954,51.867
1747663856.16,0.054,-0.009,-0.099,1.072,0.097,0.134,-68.532,19.709,51.533
1747663856.17,0.027,0.005,-0.068,1.141,0.207,0.067,-67.915,19.396,51.106
1747663856.18,-0.014,0.015,-0.056,1.112,0.337,0.031,-67.295,19.094,50.602
1747663856.19,-0.046,0.023,-0.004,1.020,0.452,0.054,-66.710,18.899,50.147
1747663856.20,-0.081,0.025,0.065,0.834,0.510,0.109,-66.191,18.881,49.814
1747663856.21,-0.121,0.004,0.083,0.684,0.522,0.199,-65.760,19.044,49.673
1747663856.22,-0.120,-0.050,0.061,0.698,0.564,0.310,-65.341,19.374,49.699
1747663856.23,-0.009,-0.095,0.000,0.710,0.461,0.374,-64.897,19.786,49.824
1747663856.24,0.125,-0.076,-0.043,0.786,0.172,0.382,-64.423,20.099,49.970
1747663856.25,0.206,-0.045,-0.102,0.924,-0.086,0.317,-63.896,20.165,50.037
1747663856.26,0.226,-0.028,-0.127,1.032,-0.169,0.167,-63.321,19.963,49.898
1747663856.27,0.190,-0.014,-0.114,1.141,-0.177,0.034,-62.720,19.554,49.561
1747663856.28,0.100,-0.008,-0.077,1.207,-0.075,-0.013,-62.081,19.053,49.084
1747663856.29,-0.033,-0.005,-0.021,1.070,0.236,-0.014,-61.460,18.679,48.623
1747663856.30,-0.163,-0.004,0.059,0.801,0.567,0.071,-60.951,18.625,48.295
1747663856.31,-0.233,-0.036,0.123,0.623,0.692,0.236,-60.540,18.905,48.208
1747663856.32,-0.190,-0.071,0.101,0.491,0.669,0.423,-60.181,19.427,48.360
1747663856.33,-0.022,-0.068,0.104,0.455,0.555,0.547,-59.834,20.082,48.721
1747663856.34,0.218,-0.023,0.124,0.512,0.211,0.603,-59.464,20.677,49.147
1747663856.35,0.402,0.021,0.088,0.657,-0.308,0.615,-59.030,21.004,49.576
1747663856.36,0.467,0.062,-0.038,0.845,-0.839,0.538,-58.509,20.931,49.878
1747663856.37,0.379,0.104,-0.139,0.959,-1.176,0.367,-57.932,20.442,50.011
1747663856.38,0.175,0.113,-0.127,1.046,-1.176,0.171,-57.343,19.676,49.915
1747663856.39,-0.030,0.093,-0.064,1.099,-0.880,-0.003,-56.744,18.838,49.657
1747663856.40,-0.184,0.074,-0.061,1.048,-0.468,-0.084,-56.168,18.111,49.252
1747663856.41,-0.321,0.023,-0.019,0.862,-0.002,-0.018,-55.656,17.684,48.929
1747663856.42,-0.412,-0.074,0.046,0.688,0.319,0.093,-55.230,17.617,48.730
1747663856.43,-0.401,-0.160,0.059,0.612,0.474,0.220,-54.852,17.807,48.723
1747663856.44,-0.298,-0.202,0.026,0.594,0.558,0.356,-54.474,18.178,48.810
1747663856.45,-0.121,-0.174,0.014,0.615,0.472,0.413,-54.080,18.623,49.027
1747663856.46,0.040,-0.079,-0.003,0.741,0.293,0.400,-53.640,18.975,49.191
1747663856.47,0.124,0.031,-0.050,0.897,0.155,0.331,-53.128,19.162,49.304
1747663856.47,0.120,0.116,-0.078,0.984,0.118,0.197,-52.568,19.192,49.248
1747663856.49,0.039,0.149,-0.055,0.998,0.123,0.068,-52.006,19.109,49.090
1747663856.50,-0.081,0.119,-0.020,0.920,0.171,-0.002,-51.481,18.985,48.825
1747663856.50,-0.175,0.044,0.026,0.849,0.245,0.010,-51.005,18.899,48.585
1747663856.52,-0.171,-0.039,0.066,0.785,0.243,0.082,-50.554,18.884,48.381
1747663856.52,-0.065,-0.086,0.020,0.700,0.171,0.165,-50.130,18.920,48.308
1747663856.53,0.102,-0.080,0.001,0.660,0.040,0.236,-49.728,18.965,48.284
1747663856.54,0.241,-0.038,0.050,0.683,-0.186,0.284,-49.319,18.944,48.349
1747663856.55,0.273,0.030,0.070,0.746,-0.369,0.321,-48.878,18.820,48.398
1747663856.56,0.220,0.097,0.059,0.853,-0.464,0.328,-48.386,18.613,48.487
1747663856.57,0.119,0.139,0.042,0.911,-0.429,0.279,-47.850,18.357,48.496
1747663856.58,0.003,0.144,0.045,0.891,-0.223,0.207,-47.316,18.135,48.499
1747663856.60,-0.071,0.115,0.073,0.831,-0.016,0.178,-46.814,18.014,48.424
1747663856.60,-0.109,0.052,0.030,0.747,0.069,0.213,-46.351,17.998,48.413
1747663856.61,-0.124,-0.031,-0.053,0.689,0.088,0.255,-45.921,18.044,48.415
1747663856.62,-0.064,-0.089,-0.101,0.684,0.104,0.273,-45.502,18.124,48.500
1747663856.63,0.038,-0.115,-0.041,0.748,0.032,0.254,-45.068,18.183,48.524
1747663856.64,0.082,-0.094,0.008,0.812,-0.078,0.221,-44.600,18.159,48.554
1747663856.65,0.073,-0.036,-0.033,0.829,-0.159,0.174,-44.120,18.052,48.500
1747663856.66,0.023,0.016,-0.028,0.834,-0.137,0.107,-43.643,17.896,48.457
1747663856.67,-0.030,0.044,0.018,0.856,-0.010,0.037,-43.171,17.752,48.308
1747663856.68,-0.074,0.053,0.048,0.862,0.065,-0.017,-42.700,17.635,48.163
1747663856.69,-0.117,0.045,-0.022,0.766,0.055,-0.005,-42.257,17.533,47.959
1747663856.70,-0.108,0.020,-0.099,0.676,0.091,0.046,-41.863,17.471,47.871
1747663856.71,-0.030,-0.019,-0.055,0.685,0.108,0.094,-41.482,17.462,47.768
1747663856.72,0.048,-0.037,0.040,0.723,0.039,0.130,-41.080,17.455,47.750
1747663856.73,0.094,-0.010,0.069,0.755,-0.070,0.145,-40.653,17.401,47.683
1747663856.74,0.108,0.035,0.023,0.808,-0.146,0.138,-40.205,17.292,47.675
1747663856.75,0.112,0.066,0.010,0.899,-0.229,0.132,-39.716,17.124,47.582
1747663856.76,0.096,0.067,0.032,0.943,-0.263,0.125,-39.189,16.912,47.542
1747663856.77,0.082,0.043,0.046,0.943,-0.200,0.104,-38.654,16.702,47.424
1747663856.78,0.077,-0.006,0.058,0.893,-0.093,0.072,-38.134,16.537,47.368
1747663856.79,0.044,-0.049,0.008,0.777,-0.009,0.063,-37.665,16.430,47.239
1747663856.80,0.021,-0.084,-0.040,0.675,0.038,0.156,-37.251,16.393,47.243
1747663856.81,0.030,-0.138,-0.007,0.613,0.044,0.292,-36.864,16.434,47.270
1747663856.82,0.052,-0.140,0.046,0.577,0.017,0.362,-36.485,16.516,47.442
1747663856.83,0.100,-0.038,0.028,0.581,-0.077,0.360,-36.108,16.578,47.574
1747663856.84,0.127,0.122,-0.007,0.625,-0.212,0.315,-35.725,16.562,47.771
1747663856.85,0.096,0.253,0.010,0.720,-0.365,0.256,-35.311,16.430,47.829
1747663856.86,0.029,0.300,0.011,0.795,-0.466,0.222,-34.858,16.196,47.929
1747663856.87,-0.024,0.248,0.048,0.846,-0.469,0.201,-34.373,15.916,47.912
1747663856.88,-0.048,0.143,0.106,0.864,-0.402,0.191,-33.872,15.649,47.960
1747663856.89,-0.036,0.031,0.039,0.866,-0.313,0.179,-33.367,15.425,47.924
1747663856.90,-0.026,-0.063,-0.095,0.816,-0.249,0.150,-32.876,15.241,47.964
1747663856.91,-0.072,-0.128,-0.122,0.758,-0.147,0.111,-32.424,15.097,47.912
1747663856.92,-0.145,-0.158,-0.027,0.766,-0.059,0.070,-31.992,15.001,47.921
1747663856.93,-0.191,-0.138,0.016,0.771,-0.007,0.031,-31.559,14.930,47.820
1747663856.94,-0.191,-0.065,0.003,0.764,0.017,-0.003,-31.133,14.871,47.788
1747663856.95,-0.134,0.020,0.004,0.775,-0.012,-0.023,-30.710,14.802,47.648
1747663856.96,-0.056,0.091,0.012,0.764,-0.086,-0.016,-30.287,14.702,47.585
1747663856.97,0.017,0.131,0.015,0.754,-0.177,0.012,-29.868,14.565,47.459
1747663856.98,0.070,0.125,0.007,0.746,-0.243,0.042,-29.450,14.390,47.420
1747663856.99,0.101,0.090,-0.015,0.744,-0.220,0.081,-29.030,14.215,47.338
1747663857.00,0.116,0.044,-0.001,0.719,-0.209,0.136,-28.609,14.070,47.365
1747663857.01,0.101,-0.010,0.022,0.685,-0.205,0.202,-28.198,13.946,47.362
1747663857.02,0.066,-0.076,0.001,0.703,-0.091,0.241,-27.784,13.877,47.473
1747663857.03,0.057,-0.136,0.004,0.731,-0.116,0.254,-27.353,13.837,47.518
1747663857.04,0.029,-0.181,0.003,0.772,-0.117,0.239,-26.901,13.787,47.643
1747663857.05,0.060,-0.195,-0.021,0.799,-0.145,0.203,-26.434,13.722,47.660
1747663857.06,0.130,-0.179,-0.019,0.807,-0.224,0.186,-25.961,13.616,47.750
1747663857.07,0.176,-0.134,-0.024,0.785,-0.264,0.203,-25.492,13.473,47.750
1747663857.08,0.159,-0.081,-0.035,0.718,-0.191,0.205,-25.046,13.345,47.843
1747663857.09,0.082,-0.040,-0.053,0.654,-0.126,0.252,-24.636,13.275,47.881
1747663857.10,-0.029,-0.041,-0.039,0.593,-0.119,0.345,-24.250,13.241,48.052
1747663857.11,-0.133,-0.031,-0.006,0.591,0.010,0.376,-23.875,13.264,48.192
1747663857.12,-0.141,0.044,0.086,0.677,0.115,0.317,-23.478,13.353,48.398
1747663857.13,-0.097,0.139,0.113,0.774,0.116,0.240,-23.038,13.447,48.554
1747663857.14,-0.070,0.175,0.060,0.835,0.053,0.196,-22.561,13.503,48.568
1747663857.15,-0.054,0.143,-0.004,0.861,-0.023,0.151,-22.064,13.504,48.644
1747663857.16,-0.036,0.102,-0.057,0.863,-0.082,0.104,-21.568,13.456,48.597
1747663857.17,-0.048,0.070,-0.046,0.872,-0.119,0.066,-21.075,13.369,48.613
1747663857.18,-0.105,0.031,-0.011,0.876,-0.060,0.037,-20.582,13.282,48.520
1747663857.19,-0.150,-0.008,-0.037,0.853,0.035,0.022,-20.098,13.240,48.511
1747663857.20,-0.121,-0.048,-0.083,0.831,0.122,-0.010,-19.628,13.245,48.398
1747663857.21,-0.039,-0.065,-0.089,0.808,0.244,-0.028,-19.174,13.310,48.366
1747663857.22,0.053,-0.046,-0.062,0.761,0.221,-0.017,-18.741,13.410,48.240
1747663857.23,0.036,0.008,-0.048,0.667,0.096,0.069,-18.341,13.470,48.237
1747663857.24,-0.046,0.103,-0.017,0.600,0.097,0.145,-17.976,13.514,48.214
1747663857.25,0.002,0.188,0.035,0.616,0.097,0.152,-17.620,13.575,48.306
1747663857.26,0.109,0.217,0.039,0.654,-0.025,0.147,-17.247,13.599,48.303
1747663857.27,0.186,0.172,-0.025,0.672,-0.202,0.164,-16.858,13.532,48.384
1747663857.28,0.214,0.076,-0.065,0.677,-0.328,0.195,-16.461,13.382,48.396
1747663857.29,0.192,-0.022,-0.014,0.673,-0.341,0.174,-16.060,13.193,48.490
1747663857.30,0.105,-0.080,0.052,0.682,-0.274,0.128,-15.665,13.014,48.486
1747663857.31,-0.006,-0.098,0.048,0.690,-0.172,0.131,-15.265,12.881,48.549
1747663857.32,-0.098,-0.105,0.038,0.687,-0.030,0.156,-14.865,12.819,48.541
1747663857.33,-0.152,-0.084,0.054,0.725,0.083,0.155,-14.452,12.837,48.624
1747663857.34,-0.155,-0.043,0.032,0.709,0.103,0.144,-14.031,12.891,48.616
1747663857.35,-0.116,-0.000,-0.027,0.685,0.087,0.098,-13.630,12.943,48.677
1747663857.36,-0.037,0.029,-0.082,0.725,0.036,0.089,-13.226,12.969,48.633
1747663857.37,0.034,0.051,-0.057,0.714,-0.067,0.034,-12.815,12.948,48.651
1747663857.38,0.071,0.067,-0.007,0.678,-0.185,0.029,-12.425,12.860,48.576
1747663857.39,0.094,0.045,-0.023,0.677,-0.240,0.076,-12.043,12.723,48.597
1747663857.40,0.070,-0.029,-0.027,0.663,-0.195,0.129,-11.655,12.590,48.571
1747663857.41,0.025,-0.094,-0.007,0.656,-0.055,0.147,-11.270,12.515,48.646
1747663857.42,0.026,-0.123,-0.008,0.671,0.139,0.131,-10.881,12.538,48.641
1747663857.43,0.032,-0.095,0.040,0.678,0.251,0.138,-10.489,12.652,48.708
1747663857.44,0.010,-0.005,0.106,0.664,0.231,0.211,-10.092,12.795,48.719
1747663857.45,0.015,0.065,0.075,0.624,0.136,0.276,-9.703,12.911,48.863
1747663857.46,0.039,0.081,-0.010,0.609,0.020,0.300,-9.325,12.969,48.948
1747663857.47,0.080,0.077,-0.089,0.634,-0.081,0.250,-8.944,12.965,49.101
1747663857.48,0.083,0.044,-0.124,0.634,-0.147,0.151,-8.562,12.901,49.132
1747663857.49,0.033,-0.011,-0.150,0.608,-0.166,0.060,-8.204,12.807,49.167
1747663857.50,-0.051,-0.070,-0.126,0.579,-0.142,0.032,-7.866,12.709,49.115
1747663857.51,-0.154,-0.111,-0.079,0.525,-0.071,0.041,-7.554,12.642,49.136
1747663857.52,-0.182,-0.108,-0.054,0.490,-0.021,0.060,-7.267,12.612,49.101
1747663857.53,-0.122,-0.032,-0.010,0.507,-0.001,0.076,-6.980,12.605,49.150
1747663857.54,-0.009,0.080,0.028,0.496,-0.045,0.059,-6.692,12.591,49.126
1747663857.55,0.083,0.121,-0.028,0.500,-0.086,0.057,-6.407,12.549,49.153
1747663857.56,0.115,0.084,-0.084,0.487,-0.057,0.094,-6.121,12.500,49.133
1747663857.57,0.073,0.036,-0.059,0.433,0.032,0.118,-5.851,12.493,49.188
1747663857.58,0.035,0.024,-0.042,0.394,0.069,0.132,-5.606,12.526,49.207
1747663857.59,0.018,0.050,-0.029,0.373,0.065,0.169,-5.374,12.569,49.291
1747663857.60,0.051,0.066,-0.009,0.356,0.002,0.189,-5.148,12.597,49.345
1747663857.61,0.136,0.042,-0.026,0.369,-0.115,0.202,-4.922,12.572,49.468
1747663857.62,0.194,0.005,-0.036,0.360,-0.216,0.195,-4.693,12.480,49.534
1747663857.63,0.179,-0.013,-0.042,0.357,-0.223,0.192,-4.470,12.359,49.647
1747663857.64,0.106,-0.023,-0.030,0.370,-0.194,0.200,-4.244,12.241,49.712
1747663857.65,-0.019,0.001,0.014,0.370,-0.049,0.218,-4.011,12.173,49.820
1747663857.66,-0.110,0.076,0.042,0.352,0.101,0.214,-3.785,12.195,49.899
1747663857.67,-0.154,0.130,0.007,0.377,0.195,0.207,-3.556,12.287,50.016
1747663857.68,-0.169,0.109,-0.021,0.356,0.237,0.166,-3.327,12.416,50.077
1747663857.69,-0.092,0.031,-0.062,0.351,0.162,0.085,-3.115,12.538,50.141
1747663857.70,0.008,-0.043,-0.091,0.352,0.006,0.023,-2.911,12.586,50.126
1747663857.71,0.070,-0.069,-0.111,0.335,-0.148,-0.025,-2.719,12.543,50.117
1747663857.72,0.090,-0.051,-0.099,0.370,-0.244,-0.048,-2.531,12.424,50.052
1747663857.73,0.033,0.000,-0.077,0.428,-0.210,-0.051,-2.312,12.287,50.020
1747663857.74,-0.079,0.081,-0.015,0.441,-0.038,-0.079,-2.078,12.209,49.932
1747663857.75,-0.170,0.138,0.037,0.438,0.126,-0.108,-1.842,12.233,49.859
1747663857.76,-0.199,0.128,0.009,0.403,0.227,-0.095,-1.620,12.333,49.751
1747663857.77,-0.155,0.053,-0.044,0.370,0.266,-0.086,-1.416,12.473,49.693
1747663857.78,-0.052,0.001,-0.074,0.352,0.229,-0.112,-1.226,12.614,49.596
1747663857.79,0.048,-0.013,-0.072,0.341,0.127,-0.159,-1.051,12.716,49.515
1747663857.80,0.115,0.004,-0.049,0.339,-0.000,-0.189,-0.882,12.749,49.374
1747663857.81,0.134,-0.005,-0.049,0.319,-0.106,-0.181,-0.722,12.716,49.277
1747663857.82,0.139,-0.047,-0.043,0.295,-0.172,-0.177,-0.572,12.632,49.137
1747663857.83,0.128,-0.068,-0.029,0.258,-0.173,-0.155,-0.440,12.531,49.041
1747663857.84,0.097,-0.063,-0.002,0.272,-0.134,-0.105,-0.308,12.442,48.935
1747663857.85,0.049,-0.032,0.008,0.249,-0.059,-0.058,-0.171,12.385,48.891
1747663857.86,0.009,0.021,0.005,0.231,0.038,-0.024,-0.043,12.379,48.838
1747663857.87,0.004,0.058,0.002,0.236,0.127,-0.002,0.085,12.428,48.827
1747663857.88,0.022,0.044,-0.006,0.220,0.151,-0.004,0.214,12.509,48.798
1747663857.89,0.040,-0.013,-0.019,0.166,0.111,0.007,0.320,12.586,48.802
1747663857.90,0.063,-0.073,-0.039,0.152,0.060,0.011,0.409,12.633,48.787
1747663857.91,0.080,-0.095,-0.040,0.120,-0.004,0.022,0.488,12.650,48.803
1747663857.92,0.093,-0.063,-0.055,0.097,-0.087,0.027,0.550,12.623,48.803
1747663857.93,0.088,-0.016,-0.080,0.119,-0.134,0.030,0.614,12.557,48.830
1747663857.94,0.066,0.012,-0.063,0.074,-0.135,0.036,0.674,12.480,48.836
1747663857.95,0.051,0.012,-0.047,0.039,-0.115,0.057,0.710,12.407,48.874
1747663857.96,0.044,-0.004,-0.034,0.030,-0.068,0.086,0.734,12.356,48.910
1747663857.97,0.015,-0.003,-0.007,-0.002,-0.017,0.096,0.754,12.336,48.988
1747663857.98,-0.005,0.012,-0.015,-0.018,-0.008,0.107,0.768,12.337,49.046
1747663857.99,-0.011,0.014,-0.050,-0.016,0.005,0.123,0.784,12.342,49.141
1747663858.00,-0.016,0.003,-0.038,-0.022,0.018,0.097,0.794,12.361,49.238
1747663858.01,-0.001,-0.011,-0.020,-0.024,-0.013,0.057,0.790,12.372,49.284
1747663858.02,0.032,-0.031,-0.042,-0.019,-0.044,0.016,0.781,12.361,49.336
1747663858.03,0.056,-0.049,-0.046,-0.009,-0.090,-0.007,0.773,12.328,49.339
1747663858.04,0.044,-0.036,-0.070,-0.061,-0.137,-0.031,0.753,12.264,49.371
1747663858.05,-0.002,-0.017,-0.100,-0.089,-0.092,-0.025,0.708,12.199,49.362
1747663858.06,-0.046,-0.013,-0.069,-0.133,-0.057,-0.009,0.644,12.157,49.399
1747663858.07,-0.068,0.009,-0.055,-0.162,-0.036,-0.001,0.559,12.128,49.414
1747663858.08,-0.046,0.038,-0.060,-0.155,0.002,-0.020,0.469,12.115,49.461
1747663858.09,-0.013,0.037,-0.055,-0.185,0.036,-0.071,0.372,12.126,49.456
1747663858.10,-0.010,0.013,-0.080,-0.243,0.052,-0.137,0.242,12.155,49.459
1747663858.11,-0.007,-0.048,-0.127,-0.223,0.061,-0.184,0.093,12.189,49.396
1747663858.12,-0.055,-0.095,-0.075,-0.254,0.101,-0.215,-0.057,12.237,49.350
1747663858.13,-0.091,-0.079,-0.047,-0.330,0.141,-0.264,-0.248,12.308,49.250
1747663858.14,-0.044,-0.042,-0.146,-0.401,0.089,-0.241,-0.484,12.372,49.187
1747663858.15,0.024,-0.031,-0.166,-0.477,0.038,-0.167,-0.751,12.401,49.125
1747663858.16,0.110,-0.032,-0.178,-0.586,-0.022,-0.107,-1.065,12.405,49.153
1747663858.17,0.196,-0.017,-0.230,-0.642,-0.082,-0.074,-1.420,12.372,49.179
1747663858.18,0.203,0.010,-0.186,-0.707,-0.091,-0.067,-1.804,12.324,49.257
1747663858.19,0.154,0.016,-0.124,-0.752,-0.104,-0.056,-2.220,12.269,49.311
1747663858.20,0.097,-0.010,-0.112,-0.791,-0.037,-0.053,-2.656,12.228,49.425
1747663858.21,0.042,-0.039,-0.052,-0.855,0.059,-0.066,-3.122,12.240,49.492
1747663858.22,0.012,-0.046,-0.049,-0.898,0.062,-0.078,-3.621,12.281,49.604
1747663858.23,-0.011,-0.043,-0.092,-0.945,0.075,-0.071,-4.143,12.324,49.674
1747663858.24,0.005,-0.032,-0.114,-0.998,0.075,-0.091,-4.695,12.375,49.800
1747663858.25,0.040,-0.014,-0.142,-1.036,0.023,-0.132,-5.277,12.409,49.862
1747663858.26,0.042,-0.009,-0.119,-1.072,-0.016,-0.165,-5.884,12.415,49.954
1747663858.27,0.026,-0.024,-0.092,-1.103,-0.070,-0.194,-6.513,12.395,49.987
1747663858.28,0.010,-0.050,-0.097,-1.123,-0.112,-0.211,-7.160,12.344,50.056
1747663858.29,-0.006,-0.064,-0.064,-1.117,-0.070,-0.224,-7.812,12.293,50.071
1747663858.30,-0.010,-0.065,-0.013,-1.161,-0.011,-0.233,-8.475,12.270,50.126
1747663858.31,-0.031,-0.056,-0.018,-1.179,0.070,-0.239,-9.157,12.287,50.137
1747663858.32,-0.058,-0.039,-0.025,-1.202,0.185,-0.234,-9.850,12.363,50.184
1747663858.33,-0.064,-0.019,-0.048,-1.205,0.245,-0.214,-10.550,12.493,50.206
1747663858.34,-0.073,-0.016,-0.097,-1.209,0.297,-0.217,-11.249,12.652,50.276
1747663858.35,-0.072,-0.025,-0.083,-1.238,0.352,-0.249,-11.959,12.844,50.301
1747663858.36,-0.028,-0.041,-0.047,-1.260,0.326,-0.283,-12.689,13.043,50.359
1747663858.37,0.010,-0.065,-0.034,-1.267,0.239,-0.298,-13.430,13.207,50.360
1747663858.38,0.038,-0.083,-0.036,-1.275,0.105,-0.275,-14.174,13.307,50.413
1747663858.39,0.064,-0.087,-0.035,-1.295,-0.001,-0.244,-14.922,13.341,50.439
1747663858.40,0.080,-0.078,-0.049,-1.298,-0.050,-0.244,-15.675,13.335,50.514
1747663858.41,0.048,-0.058,-0.014,-1.287,-0.049,-0.272,-16.427,13.311,50.542
1747663858.42,-0.029,-0.054,0.067,-1.277,0.025,-0.276,-17.175,13.307,50.589
1747663858.43,-0.068,-0.083,0.083,-1.299,0.099,-0.250,-17.925,13.351,50.613
1747663858.44,-0.056,-0.135,0.047,-1.317,0.186,-0.210,-18.683,13.446,50.680
1747663858.45,0.009,-0.184,0.000,-1.373,0.291,-0.163,-19.452,13.608,50.760
1747663858.46,0.091,-0.208,-0.009,-1.415,0.371,-0.108,-20.246,13.840,50.892
1747663858.47,0.128,-0.200,-0.007,-1.413,0.343,-0.033,-21.039,14.107,51.059
1747663858.48,0.087,-0.163,-0.005,-1.414,0.221,0.029,-21.821,14.348,51.289
1747663858.49,-0.011,-0.102,0.014,-1.395,0.143,0.033,-22.594,14.538,51.525
1747663858.50,-0.071,-0.032,0.009,-1.357,0.094,-0.018,-23.353,14.693,51.766
1747663858.51,-0.085,0.024,-0.007,-1.344,0.079,-0.085,-24.106,14.814,51.949
1747663858.52,-0.078,0.046,-0.019,-1.332,0.144,-0.148,-24.863,14.936,52.104
1747663858.53,-0.056,0.035,0.000,-1.315,0.202,-0.194,-25.617,15.084,52.215
1747663858.54,-0.049,0.008,0.011,-1.327,0.185,-0.198,-26.374,15.240,52.330
1747663858.55,-0.047,-0.019,-0.013,-1.392,0.117,-0.166,-27.149,15.379,52.446
1747663858.56,-0.040,-0.033,-0.021,-1.447,0.057,-0.112,-27.954,15.501,52.621
1747663858.57,-0.006,-0.037,0.009,-1.437,0.033,-0.065,-28.762,15.619,52.818
1747663858.58,0.055,-0.023,0.048,-1.412,-0.009,-0.063,-29.555,15.732,53.050
1747663858.59,0.067,0.017,0.099,-1.389,-0.100,-0.093,-30.337,15.801,53.252
1747663858.60,0.029,0.058,0.084,-1.333,-0.153,-0.128,-31.104,15.817,53.424
1747663858.61,0.005,0.080,-0.004,-1.277,-0.145,-0.170,-31.842,15.804,53.564
1747663858.62,0.005,0.076,-0.078,-1.263,-0.124,-0.173,-32.566,15.792,53.686
1747663858.63,0.009,0.031,-0.084,-1.261,-0.114,-0.141,-33.283,15.794,53.815
1747663858.64,0.002,-0.036,-0.049,-1.254,-0.109,-0.103,-33.993,15.815,53.972
1747663858.65,-0.009,-0.082,-0.031,-1.261,-0.075,-0.084,-34.697,15.862,54.147
1747663858.66,-0.019,-0.105,-0.020,-1.297,-0.062,-0.083,-35.413,15.931,54.341
1747663858.67,-0.038,-0.114,0.012,-1.328,0.034,-0.077,-36.145,16.038,54.542
1747663858.68,-0.025,-0.121,0.023,-1.336,0.133,-0.086,-36.889,16.212,54.746
1747663858.69,-0.004,-0.121,0.025,-1.337,0.149,-0.092,-37.635,16.420,54.953
1747663858.70,0.007,-0.110,-0.007,-1.371,0.150,-0.098,-38.389,16.636,55.170
1747663858.71,0.037,-0.094,-0.028,-1.396,0.113,-0.101,-39.164,16.853,55.393
1747663858.72,0.047,-0.076,-0.013,-1.370,0.036,-0.109,-39.938,17.040,55.625
1747663858.73,0.028,-0.047,-0.003,-1.346,-0.024,-0.106,-40.696,17.186,55.848
1747663858.74,0.011,-0.007,-0.006,-1.340,-0.041,-0.117,-41.448,17.313,56.074
1747663858.75,-0.006,0.027,-0.004,-1.319,-0.082,-0.121,-42.194,17.425,56.291
1747663858.76,-0.025,0.041,-0.019,-1.311,-0.132,-0.098,-42.929,17.513,56.526
1747663858.77,-0.020,0.029,-0.057,-1.307,-0.144,-0.078,-43.656,17.602,56.770
1747663858.78,0.007,0.003,-0.059,-1.299,-0.112,-0.089,-44.380,17.702,57.015
1747663858.79,0.034,-0.029,-0.032,-1.275,-0.066,-0.118,-45.099,17.820,57.253
1747663858.80,0.044,-0.054,-0.020,-1.244,-0.021,-0.163,-45.807,17.940,57.458
1747663858.81,0.030,-0.068,-0.028,-1.268,-0.001,-0.191,-46.520,18.067,57.638
1747663858.82,0.001,-0.065,-0.001,-1.280,-0.016,-0.199,-47.247,18.189,57.811
1747663858.83,-0.043,-0.049,0.003,-1.263,0.014,-0.210,-47.974,18.317,57.985
1747663858.84,-0.055,-0.030,0.018,-1.252,0.027,-0.232,-48.695,18.449,58.144
1747663858.85,-0.041,-0.011,0.033,-1.249,0.004,-0.244,-49.416,18.572,58.293
1747663858.86,-0.015,-0.002,-0.025,-1.246,-0.051,-0.269,-50.139,18.665,58.418
1747663858.87,0.000,-0.002,-0.053,-1.242,-0.085,-0.295,-50.863,18.714,58.507
1747663858.88,0.010,-0.006,-0.041,-1.250,-0.062,-0.309,-51.592,18.753,58.609
1747663858.89,0.036,-0.006,-0.025,-1.259,-0.082,-0.321,-52.328,18.791,58.680
1747663858.90,0.033,0.005,-0.015,-1.266,-0.079,-0.345,-53.073,18.810,58.765
1747663858.91,0.014,0.028,0.002,-1.254,-0.017,-0.358,-53.819,18.841,58.806
1747663858.92,0.009,0.051,0.027,-1.259,-0.012,-0.385,-54.565,18.877,58.860
1747663858.93,-0.014,0.058,0.037,-1.263,-0.008,-0.397,-55.321,18.900,58.869
1747663858.94,-0.022,0.040,0.054,-1.256,0.005,-0.386,-56.073,18.932,58.908
1747663858.95,0.009,0.007,0.040,-1.292,0.019,-0.372,-56.830,18.984,58.932
1747663858.96,0.049,-0.023,0.006,-1.320,0.042,-0.384,-57.606,19.065,59.005
1747663858.97,0.089,-0.033,0.013,-1.325,-0.033,-0.384,-58.392,19.133,59.034
1747663858.98,0.098,-0.026,-0.003,-1.325,-0.094,-0.394,-59.178,19.162,59.111
1747663858.99,0.087,-0.008,-0.001,-1.342,-0.127,-0.413,-59.973,19.150,59.119
1747663859.00,0.067,0.014,0.043,-1.340,-0.150,-0.402,-60.775,19.126,59.182
1747663859.01,0.045,0.032,0.058,-1.303,-0.189,-0.393,-61.563,19.090,59.205
1747663859.02,0.023,0.050,0.045,-1.292,-0.224,-0.386,-62.334,19.032,59.272
1747663859.03,0.012,0.058,0.026,-1.356,-0.206,-0.396,-63.120,18.977,59.290
1747663859.04,0.009,0.045,0.043,-1.410,-0.155,-0.433,-63.946,18.943,59.366
1747663859.05,-0.016,0.015,0.070,-1.402,-0.170,-0.455,-64.790,18.895,59.337
1747663859.06,-0.039,-0.031,0.023,-1.379,-0.204,-0.467,-65.624,18.797,59.348
1747663859.07,-0.035,-0.075,-0.036,-1.386,-0.209,-0.423,-66.455,18.707,59.311
1747663859.08,0.002,-0.103,-0.041,-1.364,-0.182,-0.400,-67.275,18.667,59.388
1747663859.09,0.040,-0.104,-0.035,-1.312,-0.188,-0.398,-68.072,18.635,59.397
1747663859.10,0.057,-0.078,-0.068,-1.257,-0.180,-0.394,-68.839,18.577,59.451
1747663859.11,0.060,-0.043,-0.086,-1.281,-0.103,-0.391,-69.594,18.543,59.414
1747663859.12,0.051,-0.021,-0.008,-1.320,-0.040,-0.414,-70.374,18.557,59.473
1747663859.13,0.018,-0.010,0.052,-1.295,0.016,-0.402,-71.157,18.596,59.436
1747663859.14,-0.012,0.001,0.031,-1.318,0.056,-0.375,-71.934,18.698,59.521
1747663859.15,-0.027,0.001,0.045,-1.293,0.036,-0.350,-72.708,18.870,59.580
1747663859.16,-0.029,-0.029,0.033,-1.239,-0.049,-0.332,-73.454,19.034,59.755
1747663859.17,-0.014,-0.072,-0.033,-1.224,-0.089,-0.343,-74.180,19.161,59.845
1747663859.18,0.009,-0.102,-0.069,-1.221,-0.048,-0.323,-74.902,19.300,60.031
1747663859.19,0.037,-0.105,-0.064,-1.186,-0.009,-0.326,-75.611,19.501,60.143
1747663859.20,0.032,-0.073,-0.068,-1.157,-0.015,-0.372,-76.309,19.644,60.297
1747663859.21,-0.007,-0.015,-0.079,-1.085,-0.006,-0.412,-76.989,19.654,60.199
1747663859.22,-0.024,0.041,-0.060,-1.009,0.047,-0.423,-77.631,19.557,60.087
1747663859.23,-0.019,0.069,-0.013,-0.939,0.072,-0.414,-78.235,19.404,59.788
1747663859.24,-0.018,0.070,-0.003,-0.916,0.133,-0.392,-78.808,19.239,59.561
1747663859.25,-0.021,0.033,0.013,-0.971,0.201,-0.340,-79.384,19.231,59.331
1747663859.26,-0.013,-0.034,0.053,-1.061,0.221,-0.296,-79.991,19.462,59.443
1747663859.27,-0.018,-0.088,0.031,-1.112,0.279,-0.263,-80.632,19.970,59.690
1747663859.28,-0.017,-0.112,0.047,-1.090,0.284,-0.263,-81.275,20.615,60.175
1747663859.29,-0.036,-0.118,0.058,-1.052,0.189,-0.248,-81.899,21.319,60.623
1747663859.30,-0.054,-0.082,0.007,-1.005,0.105,-0.269,-82.500,21.991,61.216
1747663859.31,-0.035,-0.012,-0.043,-0.966,0.095,-0.295,-83.082,22.554,61.582
1747663859.32,-0.002,0.048,-0.077,-0.892,0.201,-0.320,-83.640,23.016,61.965
1747663859.33,0.016,0.065,-0.076,-0.845,0.297,-0.337,-84.168,23.370,62.023
1747663859.34,0.002,0.048,-0.039,-0.838,0.274,-0.348,-84.687,23.638,62.124
1747663859.35,-0.041,0.021,0.023,-0.819,0.168,-0.307,-85.197,23.998,62.198
1747663859.36,-0.079,-0.010,0.018,-0.736,0.107,-0.280,-85.673,24.466,62.591
1747663859.37,-0.076,-0.049,-0.026,-0.642,0.126,-0.245,-86.091,24.923,62.810
1747663859.38,-0.032,-0.083,-0.056,-0.632,0.210,-0.214,-86.474,25.538,63.332
1747663859.39,0.040,-0.096,-0.055,-0.682,0.329,-0.173,-86.857,26.812,64.276
1747663859.40,0.096,-0.078,-0.017,-0.743,0.343,-0.145,-87.260,29.188,66.458
1747663859.41,0.081,-0.047,-0.014,-0.755,0.322,-0.141,-87.670,32.822,69.743
1747663859.42,0.040,-0.004,-0.045,-0.718,0.326,-0.140,-88.061,37.789,74.528
1747663859.43,0.010,0.049,-0.050,-0.643,0.362,-0.148,-88.409,44.233,80.624
1747663859.44,-0.024,0.089,-0.071,-0.568,0.368,-0.161,-88.704,52.406,88.590
1747663859.45,-0.065,0.074,-0.063,-0.516,0.355,-0.211,-88.959,62.542,98.363
1747663859.46,-0.086,0.006,-0.041,-0.506,0.338,-0.244,-89.184,76.845,112.471
1747663859.47,-0.066,-0.046,-0.036,-0.482,0.323,-0.242,-89.338,98.533,133.808
1747663859.48,-0.019,-0.049,-0.053,-0.441,0.337,-0.226,-89.364,124.989,160.079
1747663859.49,0.020,-0.012,-0.051,-0.381,0.350,-0.186,-89.278,146.315,-178.956
1747663859.50,0.031,0.029,-0.028,-0.327,0.343,-0.136,-89.141,159.149,-166.321
1747663859.51,0.026,0.046,-0.007,-0.319,0.283,-0.079,-88.984,166.156,-159.665
1747663859.52,0.011,0.030,-0.023,-0.316,0.265,-0.065,-88.814,170.302,-155.674
1747663859.53,-0.005,-0.011,-0.027,-0.318,0.255,-0.079,-88.641,173.414,-152.886
1747663859.54,-0.022,-0.044,-0.006,-0.311,0.252,-0.103,-88.465,176.269,-150.174
1747663859.55,-0.012,-0.059,-0.002,-0.305,0.285,-0.113,-88.293,178.889,-147.881
1747663859.56,0.034,-0.043,-0.011,-0.332,0.270,-0.119,-88.111,-178.821,-145.750
1747663859.57,0.081,-0.027,0.004,-0.363,0.184,-0.110,-87.909,-176.945,-144.171
1747663859.58,0.128,-0.010,-0.003,-0.327,0.037,-0.045,-87.708,-176.045,-143.336
1747663859.59,0.167,0.007,-0.030,-0.269,-0.196,-0.013,-87.536,-176.002,-143.421
1747663859.60,0.163,0.011,-0.040,-0.150,-0.436,-0.003,-87.415,-176.283,-143.520
1747663859.61,0.129,0.010,-0.069,-0.041,-0.521,-0.008,-87.362,-176.561,-143.697
1747663859.62,0.084,0.014,-0.044,-0.033,-0.518,-0.016,-87.344,-176.751,-143.588
1747663859.63,-0.001,0.008,0.037,-0.101,-0.468,-0.041,-87.305,-176.726,-143.455
1747663859.63,-0.095,-0.013,0.091,-0.144,-0.340,-0.070,-87.231,-176.375,-142.871
1747663859.65,-0.149,-0.025,0.118,-0.138,-0.243,-0.096,-87.146,-175.690,-142.190
1747663859.65,-0.165,-0.026,0.108,-0.071,-0.163,-0.114,-87.079,-174.705,-141.087
1747663859.67,-0.142,-0.016,0.081,-0.001,-0.082,-0.077,-87.054,-173.717,-140.192
1747663859.67,-0.085,-0.009,0.084,0.025,-0.039,-0.000,-87.060,-173.307,-139.748
1747663859.68,-0.043,-0.013,0.120,0.020,-0.038,0.054,-87.075,-173.625,-140.191
1747663859.69,-0.040,-0.011,0.131,0.017,-0.062,0.068,-87.089,-174.344,-140.883
1747663859.71,-0.065,-0.004,0.099,0.044,-0.034,0.064,-87.109,-175.101,-141.752
1747663859.71,-0.083,-0.007,0.068,0.088,0.096,0.054,-87.148,-175.691,-142.357
1747663859.72,-0.069,-0.018,0.060,0.142,0.264,0.055,-87.217,-176.094,-143.005
1747663859.73,-0.031,-0.014,0.059,0.162,0.318,0.082,-87.308,-176.615,-143.824
1747663859.74,-0.001,0.004,0.050,0.150,0.236,0.107,-87.400,-177.524,-144.899
1747663859.77,0.011,0.012,0.061,0.149,0.038,0.102,-87.486,-178.726,-146.322
1747663859.78,0.009,-0.000,0.043,0.166,-0.121,0.078,-87.567,-179.842,-147.412
1747663859.79,0.026,-0.017,0.027,0.208,-0.168,0.068,-87.661,179.156,-148.476
1747663859.80,0.074,-0.028,0.050,0.245,-0.184,0.092,-87.783,177.955,-149.579
1747663859.81,0.120,-0.027,0.062,0.273,-0.258,0.126,-87.923,176.076,-151.464
1747663859.82,0.132,0.001,0.045,0.346,-0.364,0.152,-88.087,173.246,-154.117
1747663859.83,0.118,0.039,0.007,0.412,-0.426,0.154,-88.287,169.287,-157.983
1747663859.83,0.086,0.073,0.000,0.448,-0.425,0.129,-88.504,164.230,-162.797
1747663859.84,0.032,0.084,0.050,0.525,-0.427,0.086,-88.747,157.790,-169.119
1747663859.85,-0.040,0.055,0.075,0.600,-0.428,0.054,-89.016,148.186,-178.479
1747663859.86,-0.098,0.010,0.058,0.628,-0.382,0.045,-89.269,131.210,164.663
1747663859.87,-0.124,-0.029,0.060,0.627,-0.325,0.066,-89.406,101.942,135.598
1747663859.88,-0.120,-0.058,0.080,0.676,-0.208,0.097,-89.324,68.252,101.947
1747663859.88,-0.102,-0.067,0.086,0.683,-0.136,0.136,-89.056,47.119,80.908
1747663859.89,-0.080,-0.039,0.078,0.630,-0.165,0.196,-88.715,37.635,71.398
1747663859.90,-0.078,0.031,0.046,0.641,-0.239,0.236,-88.348,33.342,67.221
1747663859.91,-0.111,0.064,-0.010,0.742,-0.153,0.215,-87.946,30.247,64.156
1747663859.92,-0.119,0.016,-0.010,0.820,0.132,0.186,-87.498,27.293,61.210
1747663859.93,-0.063,-0.030,0.062,0.823,0.345,0.179,-87.031,25.035,58.718
1747663859.94,-0.015,-0.036,0.103,0.841,0.314,0.182,-86.557,23.435,56.921
1747663859.95,-0.016,-0.030,0.048,0.867,0.256,0.197,-86.065,22.208,55.448
1747663859.96,0.004,-0.023,0.021,0.875,0.216,0.245,-85.557,21.378,54.478
1747663859.97,0.061,-0.002,0.035,0.860,0.107,0.302,-85.038,21.068,54.008
1747663859.98,0.092,0.024,0.028,0.849,-0.033,0.298,-84.521,20.941,53.858
1747663859.99,0.051,0.058,0.019,0.888,-0.212,0.293,-83.999,20.683,53.599
1747663860.00,-0.020,0.046,-0.024,0.926,-0.170,0.287,-83.454,20.329,53.365
1747663860.01,-0.017,-0.032,-0.000,0.939,0.015,0.244,-82.901,19.950,52.965
1747663860.02,0.034,-0.092,0.108,0.962,0.035,0.203,-82.347,19.474,52.465
1747663860.03,0.048,-0.108,0.072,0.993,-0.038,0.190,-81.783,18.911,51.824
1747663860.04,0.036,-0.083,-0.000,1.027,-0.074,0.202,-81.201,18.354,51.296
1747663860.05,0.026,-0.028,-0.036,1.032,-0.065,0.226,-80.602,17.891,50.801
1747663860.06,0.011,0.045,-0.031,1.007,-0.115,0.264,-80.005,17.588,50.544
1747663860.07,-0.025,0.114,-0.014,1.014,-0.152,0.266,-79.409,17.359,50.347
1747663860.08,-0.065,0.132,0.018,1.040,-0.094,0.253,-78.804,17.114,50.173
1747663860.09,-0.091,0.085,0.038,1.026,0.057,0.248,-78.197,16.922,49.954
1747663860.10,-0.089,-0.000,0.060,0.966,0.148,0.255,-77.610,16.852,49.818
1747663860.11,-0.103,-0.075,0.083,0.944,0.158,0.261,-77.048,16.865,49.701
1747663860.12,-0.130,-0.112,0.035,0.978,0.185,0.247,-76.481,16.874,49.611
1747663860.13,-0.136,-0.100,-0.015,0.992,0.258,0.224,-75.903,16.853,49.432
1747663860.14,-0.108,-0.048,-0.023,1.000,0.430,0.218,-75.322,16.868,49.251
1747663860.15,-0.037,0.013,-0.024,0.988,0.694,0.257,-74.738,17.054,49.085
1747663860.16,0.045,0.063,0.042,0.974,0.794,0.289,-74.157,17.431,49.027
1747663860.17,0.059,0.103,0.093,0.953,0.673,0.299,-73.580,17.833,48.985
1747663860.18,0.033,0.092,0.052,0.889,0.443,0.326,-73.024,18.173,49.009
1747663860.19,0.026,0.021,0.006,0.849,0.365,0.347,-72.493,18.484,49.092
1747663860.20,0.049,-0.079,-0.005,0.819,0.298,0.367,-71.977,18.803,49.224
1747663860.21,0.074,-0.154,-0.017,0.839,0.149,0.392,-71.461,19.088,49.379
1747663860.22,0.098,-0.168,-0.084,0.892,0.025,0.406,-70.919,19.290,49.543
1747663860.23,0.130,-0.120,-0.118,0.934,-0.037,0.388,-70.351,19.402,49.659
1747663860.24,0.125,-0.046,-0.073,0.956,0.043,0.341,-69.771,19.443,49.708
1747663860.25,0.093,0.014,-0.019,0.922,0.172,0.256,-69.206,19.462,49.654
1747663860.26,0.051,0.067,0.049,0.865,0.197,0.196,-68.682,19.438,49.512
1747663860.27,0.022,0.091,0.030,0.740,0.173,0.224,-68.209,19.436,49.391
1747663860.28,0.022,0.076,0.022,0.635,0.087,0.309,-67.791,19.547,49.427
1747663860.29,0.013,0.031,0.038,0.622,-0.122,0.360,-67.390,19.687,49.586
1747663860.30,-0.004,-0.003,-0.019,0.635,-0.255,0.356,-66.982,19.745,49.772
1747663860.31,0.025,-0.012,-0.070,0.663,-0.313,0.321,-66.569,19.722,49.928
1747663860.32,0.063,-0.026,-0.074,0.758,-0.368,0.256,-66.134,19.571,49.978
1747663860.33,0.039,-0.048,-0.104,0.869,-0.412,0.183,-65.653,19.266,49.901
1747663860.34,-0.035,-0.057,-0.114,0.951,-0.371,0.107,-65.133,18.836,49.681
1747663860.35,-0.139,-0.054,-0.110,0.941,-0.127,0.040,-64.605,18.400,49.386
1747663860.36,-0.226,-0.042,-0.083,0.899,0.249,0.018,-64.102,18.117,49.035
1747663860.37,-0.258,-0.028,-0.023,0.833,0.567,0.049,-63.623,18.076,48.727
1747663860.38,-0.257,-0.010,0.064,0.708,0.686,0.135,-63.189,18.263,48.528
1747663860.39,-0.219,-0.002,0.112,0.635,0.700,0.268,-62.791,18.637,48.514
1747663860.40,-0.111,-0.016,0.053,0.573,0.671,0.360,-62.405,19.147,48.643
1747663860.41,0.060,-0.023,0.025,0.586,0.522,0.409,-62.024,19.682,48.866
1747663860.42,0.233,-0.011,0.035,0.686,0.228,0.417,-61.602,20.088,49.077
1747663860.43,0.334,0.016,-0.012,0.770,-0.099,0.362,-61.133,20.245,49.229
1747663860.44,0.316,0.032,-0.063,0.861,-0.333,0.280,-60.634,20.141,49.256
1747663860.45,0.221,0.028,-0.081,0.966,-0.416,0.189,-60.095,19.829,49.156
1747663860.46,0.088,0.014,-0.076,0.968,-0.315,0.101,-59.543,19.422,48.934
1747663860.47,-0.027,-0.009,-0.029,0.887,-0.058,0.072,-59.027,19.094,48.692
1747663860.48,-0.112,-0.049,0.002,0.800,0.133,0.103,-58.555,18.939,48.476
1747663860.49,-0.166,-0.098,-0.008,0.697,0.199,0.175,-58.124,18.925,48.381
1747663860.50,-0.135,-0.141,-0.050,0.611,0.334,0.272,-57.732,19.079,48.382
1747663860.51,0.028,-0.150,-0.007,0.632,0.284,0.319,-57.345,19.336,48.493
1747663860.52,0.194,-0.114,0.029,0.709,0.018,0.341,-56.920,19.505,48.588
1747663860.53,0.269,-0.053,-0.021,0.780,-0.238,0.344,-56.455,19.504,48.693
1747663860.54,0.271,0.003,-0.030,0.857,-0.396,0.331,-55.950,19.359,48.741
1747663860.55,0.196,0.023,-0.022,0.896,-0.412,0.311,-55.414,19.137,48.774
1747663860.56,0.078,0.019,-0.037,0.889,-0.281,0.291,-54.875,18.926,48.767
1747663860.57,-0.010,0.006,-0.029,0.819,-0.077,0.287,-54.357,18.821,48.793
1747663860.58,-0.069,-0.013,0.019,0.681,0.056,0.306,-53.896,18.847,48.826
1747663860.59,-0.121,-0.036,0.046,0.561,0.096,0.361,-53.500,18.983,48.974
1747663860.60,-0.130,-0.052,-0.000,0.521,0.069,0.424,-53.137,19.184,49.225
1747663860.61,-0.080,-0.029,-0.013,0.546,-0.014,0.453,-52.767,19.382,49.454
1747663860.62,0.002,0.034,0.014,0.629,-0.084,0.411,-52.370,19.519,49.723
1747663860.63,0.057,0.097,0.064,0.774,-0.194,0.322,-51.924,19.523,49.828
1747663860.64,0.023,0.138,0.037,0.922,-0.239,0.222,-51.414,19.376,49.858
1747663860.65,-0.073,0.140,-0.024,0.985,-0.147,0.133,-50.862,19.156,49.722
1747663860.66,-0.141,0.111,-0.030,0.960,0.008,0.067,-50.316,18.959,49.576
1747663860.67,-0.166,0.063,-0.046,0.900,0.216,0.037,-49.804,18.848,49.349
1747663860.68,-0.163,0.001,-0.019,0.822,0.323,0.052,-49.330,18.848,49.198
1747663860.69,-0.107,-0.057,0.033,0.726,0.286,0.127,-48.896,18.912,49.049
1747663860.70,0.005,-0.090,0.049,0.669,0.216,0.237,-48.487,19.021,49.066
1747663860.71,0.151,-0.090,0.063,0.684,0.074,0.299,-48.074,19.129,49.097
1747663860.72,0.231,-0.055,0.032,0.718,-0.076,0.335,-47.635,19.171,49.221
1747663860.73,0.253,-0.014,0.007,0.760,-0.229,0.345,-47.174,19.136,49.291
1747663860.74,0.201,0.018,0.013,0.793,-0.306,0.324,-46.690,19.017,49.409
1747663860.75,0.095,0.051,0.033,0.796,-0.289,0.272,-46.207,18.861,49.432
1747663860.76,0.016,0.082,0.035,0.796,-0.240,0.199,-45.730,18.687,49.456
1747663860.77,-0.049,0.099,-0.024,0.683,-0.131,0.150,-45.297,18.534,49.396
1747663860.78,-0.095,0.075,-0.026,0.635,-0.030,0.160,-44.917,18.457,49.408
1747663860.79,-0.093,0.018,0.027,0.674,-0.036,0.204,-44.530,18.418,49.380
1747663860.80,-0.084,-0.018,0.019,0.703,-0.008,0.233,-44.117,18.401,49.437
1747663860.81,-0.071,-0.011,0.029,0.763,-0.030,0.212,-43.681,18.381,49.422
1747663860.82,-0.066,0.013,-0.005,0.818,-0.041,0.169,-43.217,18.321,49.437
1747663860.83,-0.052,0.029,-0.025,0.825,-0.014,0.133,-42.742,18.242,49.347
1747663860.84,-0.015,0.030,-0.015,0.808,0.038,0.105,-42.278,18.174,49.309
1747663860.85,0.009,0.013,-0.034,0.775,0.063,0.087,-41.830,18.123,49.188
1747663860.86,-0.003,-0.009,-0.017,0.683,0.103,0.100,-41.419,18.099,49.148
1747663860.87,-0.014,-0.035,-0.013,0.643,0.129,0.105,-41.043,18.115,49.067
1747663860.88,-0.010,-0.047,0.020,0.640,0.049,0.151,-40.674,18.126,49.074
1747663860.89,-0.017,-0.036,0.048,0.662,-0.007,0.205,-40.288,18.124,49.052
1747663860.90,0.020,0.015,0.026,0.711,-0.092,0.199,-39.880,18.089,49.110
1747663860.91,0.058,0.091,-0.018,0.787,-0.185,0.153,-39.442,17.980,49.063
1747663860.92,0.056,0.136,-0.027,0.834,-0.268,0.097,-38.978,17.788,49.031
1747663860.93,0.023,0.137,0.005,0.870,-0.270,0.062,-38.500,17.546,48.895
1747663860.94,0.001,0.091,0.027,0.873,-0.213,0.059,-38.014,17.316,48.802
1747663860.95,-0.006,0.019,0.021,0.864,-0.121,0.062,-37.529,17.129,48.658
1747663860.96,-0.006,-0.048,-0.013,0.775,0.016,0.046,-37.069,17.014,48.592
1747663860.97,-0.005,-0.094,-0.009,0.690,0.162,0.091,-36.660,17.004,48.484
1747663860.98,-0.007,-0.115,0.033,0.657,0.178,0.178,-36.271,17.078,48.510
1747663860.99,-0.014,-0.084,0.035,0.625,0.100,0.234,-35.886,17.160,48.516
1747663861.00,-0.004,0.024,0.026,0.635,0.052,0.233,-35.505,17.223,48.623
1747663861.01,0.050,0.143,0.018,0.740,-0.075,0.173,-35.096,17.218,48.619
1747663861.02,0.058,0.211,0.006,0.812,-0.229,0.126,-34.646,17.095,48.642
1747663861.03,0.024,0.200,0.007,0.817,-0.326,0.097,-34.180,16.882,48.550
1747663861.04,0.008,0.142,0.012,0.821,-0.356,0.062,-33.719,16.626,48.526
1747663861.05,0.019,0.065,0.004,0.834,-0.384,0.034,-33.259,16.343,48.396
1747663861.06,0.020,-0.013,0.004,0.855,-0.353,0.052,-32.790,16.058,48.355
1747663861.07,0.024,-0.080,0.026,0.836,-0.291,0.098,-32.311,15.817,48.246
1747663861.08,0.031,-0.109,0.025,0.788,-0.260,0.129,-31.847,15.621,48.272
1747663861.09,0.029,-0.098,-0.007,0.775,-0.221,0.158,-31.397,15.458,48.224
1747663861.10,0.023,-0.074,-0.002,0.793,-0.195,0.186,-30.940,15.325,48.297
1747663861.11,0.006,-0.053,0.014,0.807,-0.157,0.188,-30.471,15.214,48.278
1747663861.12,-0.018,-0.043,-0.007,0.836,-0.118,0.150,-29.994,15.119,48.343
1747663861.13,-0.026,-0.045,-0.017,0.897,-0.113,0.107,-29.497,15.019,48.275
1747663861.14,-0.020,-0.060,0.001,0.921,-0.094,0.061,-28.981,14.908,48.272
1747663861.15,0.021,-0.077,0.048,0.932,-0.055,0.061,-28.461,14.807,48.154
1747663861.16,0.117,-0.095,0.070,0.895,-0.007,0.086,-27.944,14.744,48.143
1747663861.17,0.197,-0.095,0.070,0.831,-0.090,0.153,-27.451,14.684,48.073
1747663861.18,0.214,-0.088,0.032,0.823,-0.187,0.270,-26.965,14.605,48.158
1747663861.19,0.224,-0.064,-0.013,0.818,-0.280,0.371,-26.465,14.498,48.225
1747663861.20,0.174,0.004,-0.014,0.829,-0.309,0.411,-25.954,14.378,48.440
1747663861.21,0.075,0.105,0.021,0.884,-0.275,0.378,-25.425,14.257,48.550
1747663861.22,-0.051,0.195,0.075,0.907,-0.209,0.322,-24.878,14.149,48.729
1747663861.23,-0.162,0.221,0.077,0.907,-0.158,0.306,-24.333,14.066,48.780
1747663861.24,-0.203,0.157,0.017,0.908,-0.039,0.311,-23.788,14.027,48.929
1747663861.25,-0.189,0.060,-0.032,0.936,0.079,0.280,-23.235,14.061,48.968
1747663861.26,-0.145,-0.004,-0.027,0.946,0.052,0.244,-22.677,14.107,49.088
1747663861.27,-0.117,-0.023,-0.023,0.975,0.008,0.191,-22.115,14.118,49.074
1747663861.28,-0.076,-0.009,0.003,1.011,-0.012,0.127,-21.543,14.096,49.123
1747663861.29,-0.003,0.025,0.019,1.032,-0.006,0.092,-20.962,14.057,49.034
1747663861.30,0.074,0.053,0.037,1.025,0.033,0.053,-20.380,14.028,49.019
1747663861.31,0.138,0.078,-0.014,0.987,-0.035,0.039,-19.816,13.990,48.895
1747663861.32,0.127,0.098,-0.094,0.925,-0.206,0.118,-19.276,13.890,48.885
1747663861.33,0.011,0.068,-0.086,0.858,-0.239,0.214,-18.759,13.744,48.856
1747663861.34,-0.095,0.034,-0.048,0.825,-0.107,0.206,-18.264,13.645,48.954
1747663861.35,-0.133,0.041,-0.009,0.839,0.069,0.144,-17.780,13.629,48.939
1747663861.36,-0.147,0.056,0.019,0.839,0.166,0.119,-17.295,13.687,48.984
1747663861.37,-0.140,0.051,0.028,0.840,0.153,0.105,-16.815,13.767,48.931
1747663861.38,-0.115,0.022,-0.006,0.865,0.095,0.095,-16.329,13.820,48.962
1747663861.39,-0.057,-0.011,-0.028,0.860,0.004,0.078,-15.838,13.829,48.890
1747663861.40,0.008,-0.031,-0.039,0.862,-0.088,0.023,-15.355,13.780,48.880
1747663861.41,0.032,-0.039,-0.022,0.915,-0.098,-0.062,-14.863,13.688,48.745
1747663861.42,0.031,-0.033,0.020,0.946,-0.054,-0.126,-14.361,13.598,48.646
1747663861.43,0.038,-0.024,-0.022,0.937,-0.025,-0.124,-13.852,13.529,48.443
1747663861.44,0.026,-0.038,-0.122,0.828,-0.076,-0.075,-13.375,13.457,48.354
1747663861.45,-0.007,-0.051,-0.139,0.742,-0.113,0.053,-12.943,13.376,48.240
1747663861.46,0.011,-0.028,-0.048,0.710,-0.134,0.142,-12.527,13.295,48.288
1747663861.47,0.024,0.073,0.014,0.720,-0.079,0.155,-12.110,13.232,48.374
1747663861.48,-0.010,0.171,0.051,0.741,-0.030,0.152,-11.685,13.198,48.364
1747663861.49,-0.047,0.159,0.048,0.784,0.057,0.137,-11.243,13.200,48.436
1747663861.50,-0.051,0.080,0.047,0.844,0.127,0.114,-10.773,13.249,48.398
1747663861.51,-0.042,-0.004,0.062,0.851,0.100,0.079,-10.287,13.306,48.432
1747663861.52,-0.047,-0.075,0.003,0.844,0.013,0.048,-9.809,13.325,48.354
1747663861.53,-0.037,-0.130,-0.057,0.890,-0.030,0.007,-9.326,13.300,48.365
1747663861.54,0.024,-0.145,-0.053,0.929,-0.042,-0.032,-8.817,13.261,48.235
1747663861.55,0.095,-0.124,-0.021,0.823,-0.067,-0.026,-8.330,13.209,48.198
1747663861.56,0.123,-0.090,-0.061,0.802,-0.105,-0.058,-7.889,13.141,48.060
1747663861.57,0.105,-0.028,-0.052,0.776,-0.111,0.055,-7.448,13.063,48.042
1747663861.58,0.035,0.034,0.030,0.729,-0.053,0.137,-7.017,13.009,48.000
1747663861.59,-0.018,0.129,0.039,0.715,0.029,0.192,-6.593,13.001,48.074
1747663861.60,-0.018,0.190,-0.002,0.696,0.097,0.239,-6.173,13.042,48.105
1747663861.61,0.023,0.144,0.007,0.687,0.103,0.275,-5.754,13.109,48.227
1747663861.62,0.077,0.045,0.001,0.679,0.037,0.271,-5.338,13.157,48.292
1747663861.63,0.145,-0.016,-0.041,0.668,-0.093,0.242,-4.930,13.147,48.423
1747663861.64,0.194,-0.047,-0.048,0.641,-0.210,0.226,-4.536,13.064,48.467
1747663861.65,0.204,-0.084,-0.046,0.632,-0.276,0.230,-4.154,12.927,48.578
1747663861.66,0.173,-0.096,-0.030,0.669,-0.303,0.256,-3.762,12.764,48.630
1747663861.67,0.085,-0.046,0.011,0.671,-0.239,0.265,-3.354,12.609,48.753
1747663861.68,-0.042,0.051,0.013,0.643,-0.091,0.253,-2.956,12.516,48.816
1747663861.69,-0.176,0.134,-0.021,0.637,0.127,0.249,-2.570,12.527,48.939
1747663861.70,-0.285,0.117,-0.056,0.640,0.346,0.208,-2.184,12.667,48.989
1747663861.71,-0.303,0.046,-0.050,0.636,0.437,0.106,-1.808,12.898,49.063
1747663861.72,-0.191,-0.004,-0.070,0.628,0.342,0.007,-1.450,13.125,49.013
1747663861.73,-0.046,-0.028,-0.082,0.648,0.165,-0.064,-1.100,13.268,48.967
1747663861.74,0.057,-0.033,-0.080,0.631,-0.040,-0.111,-0.753,13.303,48.833
1747663861.75,0.116,-0.031,-0.101,0.621,-0.205,-0.119,-0.424,13.229,48.740
1747663861.76,0.117,-0.002,-0.108,0.624,-0.293,-0.099,-0.090,13.083,48.598
1747663861.77,0.046,0.049,-0.082,0.593,-0.257,-0.089,0.236,12.921,48.513
1747663861.78,-0.034,0.087,-0.058,0.607,-0.109,-0.078,0.559,12.815,48.391
1747663861.79,-0.074,0.110,-0.044,0.579,0.090,-0.097,0.881,12.811,48.311
1747663861.80,-0.105,0.099,-0.041,0.540,0.217,-0.123,1.178,12.906,48.178
1747663861.81,-0.111,0.011,-0.042,0.503,0.246,-0.124,1.454,13.042,48.092
1747663861.82,-0.061,-0.088,-0.056,0.457,0.252,-0.115,1.706,13.191,47.963
1747663861.83,0.068,-0.134,-0.061,0.395,0.131,-0.113,1.928,13.310,47.898
1747663861.84,0.173,-0.096,-0.080,0.350,-0.060,-0.084,2.120,13.333,47.794
1747663861.85,0.197,-0.020,-0.090,0.338,-0.182,-0.055,2.302,13.264,47.767
1747663861.86,0.168,0.009,-0.083,0.305,-0.201,-0.040,2.476,13.153,47.700
1747663861.87,0.121,-0.017,-0.062,0.253,-0.139,-0.050,2.627,13.057,47.692
1747663861.88,0.083,-0.044,-0.059,0.186,-0.073,-0.033,2.743,13.000,47.638
1747663861.89,0.037,-0.059,-0.072,0.140,-0.019,0.013,2.833,12.975,47.659
1747663861.90,-0.018,-0.054,-0.050,0.101,0.025,0.065,2.905,12.977,47.665
1747663861.91,-0.003,-0.023,-0.049,0.085,-0.011,0.082,2.967,12.983,47.739
1747663861.92,0.079,0.021,-0.070,0.089,-0.083,0.058,3.024,12.955,47.767
1747663861.93,0.136,0.056,-0.055,0.097,-0.116,0.040,3.082,12.897,47.817
1747663861.94,0.122,0.022,-0.030,0.067,-0.136,0.019,3.133,12.825,47.823
1747663861.95,0.045,-0.032,-0.032,0.025,-0.116,0.030,3.161,12.750,47.879
1747663861.96,-0.019,-0.046,-0.040,0.004,-0.031,0.052,3.173,12.705,47.899
1747663861.97,-0.036,-0.034,-0.013,-0.023,0.031,0.069,3.176,12.707,47.975
1747663861.98,-0.016,-0.004,-0.021,-0.056,0.000,0.082,3.164,12.714,48.022
1747663861.99,0.050,0.003,-0.062,-0.055,-0.033,0.101,3.146,12.700,48.136
1747663862.00,0.114,-0.026,-0.052,-0.077,-0.062,0.114,3.121,12.672,48.203
1747663862.01,0.130,-0.054,-0.066,-0.102,-0.108,0.141,3.084,12.627,48.344
1747663862.02,0.082,-0.065,-0.078,-0.133,-0.080,0.152,3.035,12.571,48.441
1747663862.03,0.011,-0.046,-0.051,-0.141,0.025,0.126,2.977,12.550,48.586
1747663862.04,-0.024,-0.033,-0.017,-0.131,0.078,0.114,2.920,12.577,48.669
1747663862.05,-0.045,-0.023,0.004,-0.150,0.077,0.121,2.860,12.614,48.798
1747663862.06,-0.043,0.004,-0.012,-0.154,0.086,0.114,2.791,12.655,48.883
1747663862.07,0.020,0.031,-0.006,-0.155,0.064,0.077,2.718,12.697,48.993
1747663862.08,0.062,0.046,-0.034,-0.172,0.039,0.045,2.636,12.732,49.046
1747663862.09,0.056,0.021,-0.083,-0.199,0.004,0.044,2.542,12.749,49.138
1747663862.10,-0.002,-0.034,-0.123,-0.227,0.034,0.035,2.436,12.762,49.188
1747663862.11,-0.030,-0.050,-0.145,-0.294,0.062,0.003,2.296,12.786,49.278
1747663862.12,-0.002,-0.027,-0.148,-0.332,0.059,-0.015,2.123,12.819,49.313
1747663862.13,0.008,-0.001,-0.106,-0.353,0.052,-0.049,1.931,12.847,49.413
1747663862.14,-0.038,0.021,-0.055,-0.398,0.055,-0.097,1.716,12.872,49.420
1747663862.15,-0.051,0.017,-0.053,-0.432,0.103,-0.123,1.469,12.917,49.454
1747663862.16,-0.004,-0.029,-0.067,-0.478,0.127,-0.117,1.199,12.988,49.445
1747663862.17,0.044,-0.067,-0.123,-0.535,0.095,-0.093,0.904,13.052,49.504
1747663862.18,0.058,-0.054,-0.195,-0.597,0.087,-0.059,0.579,13.102,49.535
1747663862.19,0.052,0.003,-0.165,-0.645,0.101,-0.038,0.227,13.156,49.644
1747663862.20,0.051,0.060,-0.154,-0.695,0.072,-0.051,-0.151,13.205,49.708
1747663862.21,0.029,0.086,-0.146,-0.723,0.051,-0.089,-0.555,13.239,49.825
1747663862.22,0.001,0.066,-0.087,-0.747,0.019,-0.125,-0.978,13.261,49.862
1747663862.23,-0.006,-0.007,-0.066,-0.790,0.037,-0.160,-1.422,13.276,49.940
1747663862.24,-0.019,-0.096,-0.066,-0.837,0.093,-0.196,-1.898,13.313,49.947
1747663862.25,-0.031,-0.139,-0.055,-0.858,0.107,-0.216,-2.396,13.371,49.994
1747663862.26,-0.023,-0.143,-0.092,-0.907,0.114,-0.205,-2.913,13.435,49.994
1747663862.27,0.011,-0.106,-0.099,-0.957,0.094,-0.183,-3.456,13.498,50.065
1747663862.28,0.046,-0.042,-0.097,-0.979,0.035,-0.177,-4.019,13.536,50.095
1747663862.29,0.062,0.012,-0.102,-1.028,-0.029,-0.144,-4.594,13.541,50.187
1747663862.30,0.090,0.016,-0.090,-1.102,-0.047,-0.080,-5.201,13.522,50.267
1747663862.31,0.137,-0.031,-0.074,-1.152,-0.011,-0.011,-5.833,13.517,50.447
1747663862.32,0.171,-0.082,-0.056,-1.177,0.020,0.040,-6.478,13.537,50.613
1747663862.33,0.157,-0.102,-0.058,-1.220,0.072,0.071,-7.133,13.587,50.872
1747663862.34,0.113,-0.095,-0.033,-1.273,0.104,0.070,-7.817,13.665,51.133
1747663862.35,0.058,-0.070,-0.008,-1.300,0.094,0.070,-8.521,13.753,51.348
1747663862.36,0.004,-0.039,-0.013,-1.328,0.096,0.063,-9.242,13.840,51.626
1747663862.37,-0.016,-0.016,-0.035,-1.330,0.085,0.040,-9.971,13.929,51.840
1747663862.38,-0.012,-0.013,-0.032,-1.309,0.081,0.022,-10.699,14.012,52.102
1747663862.39,-0.007,-0.033,-0.005,-1.315,0.060,0.019,-11.418,14.092,52.298
1747663862.40,0.004,-0.073,-0.023,-1.361,0.061,-0.007,-12.160,14.165,52.553
1747663862.41,0.011,-0.126,-0.040,-1.372,0.094,-0.038,-12.918,14.249,52.735
1747663862.42,0.022,-0.172,-0.049,-1.422,0.106,-0.032,-13.696,14.349,52.982
1747663862.43,0.006,-0.192,-0.057,-1.458,0.109,-0.004,-14.496,14.458,53.182
1747663862.44,-0.022,-0.183,-0.028,-1.502,0.156,0.017,-15.313,14.591,53.472
1747663862.45,-0.025,-0.144,0.018,-1.498,0.181,0.016,-16.140,14.754,53.708
1747663862.46,-0.030,-0.093,0.013,-1.484,0.173,-0.022,-16.964,14.920,53.989
1747663862.47,-0.051,-0.046,-0.005,-1.470,0.211,-0.067,-17.785,15.088,54.191
1747663862.48,-0.068,-0.025,-0.010,-1.439,0.231,-0.119,-18.601,15.272,54.417
1747663862.49,-0.073,-0.034,-0.041,-1.426,0.221,-0.168,-19.411,15.446,54.561
1747663862.50,-0.082,-0.050,-0.046,-1.424,0.242,-0.210,-20.225,15.621,54.734
1747663862.51,-0.074,-0.060,0.001,-1.428,0.191,-0.228,-21.042,15.785,54.840
1747663862.52,-0.076,-0.050,0.032,-1.449,0.104,-0.198,-21.866,15.910,55.012
1747663862.53,-0.065,-0.029,0.021,-1.446,0.077,-0.167,-22.691,16.012,55.150
1747663862.54,-0.021,-0.003,0.013,-1.404,0.068,-0.171,-23.500,16.110,55.341
1747663862.55,0.021,0.020,0.001,-1.393,0.115,-0.211,-24.296,16.211,55.470
1747663862.56,0.052,0.018,-0.025,-1.395,0.179,-0.251,-25.097,16.340,55.627
1747663862.57,0.050,-0.019,-0.048,-1.383,0.153,-0.283,-25.902,16.474,55.713
1747663862.58,-0.011,-0.061,-0.023,-1.353,0.117,-0.303,-26.697,16.581,55.819
1747663862.59,-0.071,-0.076,0.038,-1.363,0.130,-0.316,-27.491,16.676,55.878
1747663862.60,-0.098,-0.057,0.078,-1.388,0.137,-0.321,-28.295,16.780,55.951
1747663862.61,-0.096,-0.015,0.036,-1.417,0.151,-0.319,-29.115,16.891,56.014
1747663862.62,-0.077,0.038,-0.016,-1.425,0.203,-0.302,-29.945,17.032,56.122
1747663862.63,-0.039,0.079,-0.013,-1.401,0.211,-0.296,-30.766,17.195,56.209
1747663862.64,-0.028,0.103,-0.019,-1.389,0.156,-0.284,-31.575,17.349,56.327
1747663862.65,-0.013,0.088,-0.017,-1.364,0.050,-0.272,-32.373,17.458,56.426
1747663862.66,0.011,0.033,-0.022,-1.321,0.021,-0.275,-33.152,17.528,56.540
1747663862.67,0.042,-0.036,-0.005,-1.296,0.039,-0.325,-33.913,17.587,56.615
1747663862.68,0.062,-0.096,-0.043,-1.363,0.071,-0.402,-34.698,17.637,56.676
