Time,AccX,AccY,AccZ,GyroX,GyroY,GyroZ,Pitch,Roll,Yaw
1747663765.75,0.025,-0.005,-0.023,0.049,-0.064,0.024,-85.551,30.522,44.202
1747663765.77,0.020,0.011,-0.035,0.050,-0.086,0.025,-85.517,30.524,44.248
1747663765.78,0.005,0.008,-0.025,0.041,-0.056,0.025,-85.486,30.489,44.256
1747663765.78,0.002,-0.005,-0.004,0.016,0.002,0.031,-85.464,30.513,44.296
1747663765.79,0.000,0.001,0.008,0.004,0.038,0.027,-85.454,30.654,44.425
1747663765.80,-0.007,0.005,0.004,0.011,0.035,0.018,-85.450,30.781,44.530
1747663765.81,-0.005,0.003,-0.006,0.022,0.028,0.014,-85.441,30.855,44.587
1747663765.82,0.008,0.006,-0.001,0.026,0.025,0.021,-85.421,30.935,44.651
1747663765.83,0.009,0.008,0.005,0.028,0.006,0.022,-85.393,31.002,44.709
1747663765.84,-0.006,-0.001,0.003,0.030,-0.011,0.015,-85.364,31.000,44.709
1747663765.85,-0.015,-0.009,0.005,0.027,-0.002,0.009,-85.341,30.934,44.647
1747663765.86,-0.010,-0.009,0.006,0.028,0.024,0.008,-85.325,30.895,44.602
1747663765.87,-0.006,-0.002,0.001,0.035,0.045,0.003,-85.310,30.850,44.537
1747663765.88,-0.013,0.009,-0.003,0.045,0.045,-0.001,-85.293,30.721,44.382
1747663765.89,-0.015,0.011,0.001,0.038,0.044,-0.003,-85.273,30.545,44.180
1747663765.90,-0.007,0.004,0.012,0.015,0.031,0.006,-85.258,30.501,44.114
1747663765.91,0.002,-0.003,0.001,-0.008,-0.009,0.007,-85.255,30.569,44.176
1747663765.92,0.013,-0.017,-0.008,-0.010,-0.020,0.010,-85.259,30.647,44.265
1747663765.93,0.038,-0.026,-0.003,-0.001,-0.012,0.010,-85.262,30.686,44.313
1747663765.94,0.049,-0.012,-0.000,0.010,-0.022,0.017,-85.259,30.723,44.360
1747663765.95,0.038,0.005,-0.007,0.013,-0.044,0.007,-85.252,30.722,44.378
1747663765.96,0.009,0.015,-0.011,0.030,-0.064,-0.004,-85.242,30.592,44.280
1747663765.97,-0.006,0.013,-0.016,0.036,-0.049,-0.010,-85.229,30.369,44.089
1747663765.98,-0.009,0.008,-0.017,0.039,-0.033,-0.015,-85.218,30.166,43.908
1747663765.99,-0.004,-0.005,-0.020,0.050,-0.000,-0.021,-85.201,29.912,43.662
1747663766.00,-0.002,-0.018,-0.015,0.066,0.030,-0.018,-85.175,29.640,43.380
1747663766.01,-0.007,-0.027,-0.014,0.090,0.048,-0.016,-85.136,29.399,43.116
1747663766.02,-0.011,-0.009,-0.011,0.117,0.061,-0.005,-85.082,29.152,42.837
1747663766.03,-0.009,0.012,0.006,0.125,0.089,0.011,-85.016,28.908,42.549
1747663766.04,-0.009,0.016,0.019,0.144,0.080,0.036,-84.941,28.689,42.279
1747663766.05,-0.012,0.006,0.012,0.145,0.058,0.063,-84.853,28.522,42.071
1747663766.06,-0.011,-0.005,0.032,0.124,0.063,0.066,-84.766,28.481,41.995
1747663766.07,-0.017,-0.002,0.056,0.111,0.069,0.058,-84.688,28.487,41.963
1747663766.08,-0.027,0.008,0.052,0.107,0.067,0.043,-84.618,28.462,41.899
1747663766.09,-0.026,0.014,0.043,0.111,0.069,0.027,-84.553,28.349,41.747
1747663766.10,-0.011,0.009,0.043,0.107,0.043,0.016,-84.494,28.167,41.530
1747663766.11,0.010,0.005,0.032,0.119,0.008,0.011,-84.438,27.935,41.284
1747663766.12,0.028,0.006,0.019,0.134,-0.015,0.010,-84.377,27.650,41.000
1747663766.13,0.026,0.016,0.020,0.141,-0.049,-0.000,-84.312,27.276,40.642
1747663766.14,0.008,0.026,0.007,0.150,-0.073,0.011,-84.246,26.893,40.294
1747663766.15,-0.007,0.019,0.012,0.144,-0.044,0.026,-84.182,26.602,40.037
1747663766.16,-0.019,0.004,0.036,0.122,-0.026,0.024,-84.122,26.379,39.832
1747663766.17,-0.027,-0.008,0.029,0.105,-0.024,0.023,-84.071,26.204,39.671
1747663766.18,-0.013,-0.014,0.021,0.089,0.004,0.024,-84.028,26.104,39.576
1747663766.19,0.015,-0.016,0.023,0.079,0.022,0.026,-83.987,26.098,39.560
1747663766.20,0.028,-0.013,0.023,0.076,-0.013,0.026,-83.945,26.132,39.588
1747663766.21,0.034,-0.002,0.008,0.088,-0.070,0.029,-83.899,26.107,39.586
1747663766.22,0.040,0.005,-0.002,0.101,-0.127,0.029,-83.845,25.986,39.522
1747663766.23,0.040,0.011,-0.007,0.102,-0.152,0.030,-83.789,25.810,39.425
1747663766.24,0.027,0.012,-0.010,0.109,-0.173,0.024,-83.737,25.603,39.311
1747663766.25,0.012,0.010,-0.026,0.123,-0.174,0.025,-83.680,25.340,39.145
1747663766.26,-0.001,0.006,-0.019,0.118,-0.172,0.033,-83.617,25.113,39.015
1747663766.27,-0.008,-0.008,-0.004,0.110,-0.130,0.026,-83.554,24.965,38.955
1747663766.28,-0.004,-0.015,0.015,0.103,-0.083,0.027,-83.496,24.874,38.922
1747663766.29,-0.001,-0.012,0.015,0.099,-0.067,0.038,-83.436,24.842,38.931
1747663766.30,-0.003,-0.003,0.005,0.088,-0.052,0.045,-83.374,24.876,38.999
1747663766.31,-0.009,0.005,0.004,0.075,-0.052,0.049,-83.318,24.964,39.115
1747663766.32,-0.017,-0.001,-0.006,0.074,-0.073,0.042,-83.267,25.017,39.204
1747663766.33,-0.009,-0.005,-0.014,0.069,-0.056,0.037,-83.216,24.995,39.221
1747663766.34,0.024,-0.002,0.002,0.045,-0.043,0.038,-83.176,24.996,39.249
1747663766.35,0.041,0.004,0.007,0.056,-0.070,0.035,-83.144,25.009,39.294
1747663766.36,0.023,0.009,-0.015,0.074,-0.116,0.027,-83.107,24.967,39.305
1747663766.37,-0.002,0.010,-0.026,0.080,-0.154,0.007,-83.067,24.820,39.236
1747663766.38,-0.010,0.004,-0.018,0.086,-0.134,0.004,-83.025,24.595,39.093
1747663766.39,-0.004,-0.004,-0.005,0.082,-0.092,0.008,-82.983,24.385,38.946
1747663766.40,-0.004,-0.006,-0.001,0.079,-0.055,0.005,-82.941,24.195,38.797
1747663766.41,-0.012,-0.001,-0.004,0.078,-0.053,0.007,-82.899,24.011,38.643
1747663766.42,-0.015,0.007,-0.003,0.075,-0.047,0.008,-82.857,23.914,38.574
1747663766.43,-0.009,0.016,0.000,0.074,-0.029,0.017,-82.813,23.880,38.561
1747663766.44,-0.012,0.019,0.012,0.054,-0.016,0.009,-82.773,23.843,38.536
1747663766.45,-0.024,0.008,0.014,0.048,-0.011,0.006,-82.741,23.749,38.449
1747663766.46,-0.021,-0.011,0.006,0.032,0.015,0.011,-82.716,23.677,38.376
1747663766.47,-0.005,-0.020,0.018,0.004,0.039,0.013,-82.705,23.702,38.386
1747663766.48,0.011,-0.016,0.017,0.006,0.047,0.013,-82.701,23.762,38.420
1747663766.49,0.028,-0.008,0.008,0.027,0.033,0.016,-82.691,23.795,38.430
1747663766.50,0.030,0.006,-0.004,0.066,0.012,0.019,-82.664,23.767,38.388
1747663766.51,0.023,0.018,-0.014,0.081,-0.001,0.024,-82.622,23.704,38.323
1747663766.52,0.017,0.019,-0.006,0.093,0.011,0.031,-82.574,23.655,38.271
1747663766.53,0.009,0.011,-0.006,0.095,0.023,0.026,-82.523,23.591,38.196
1747663766.54,-0.012,-0.000,0.003,0.075,0.020,0.010,-82.478,23.502,38.094
1747663766.55,-0.026,-0.005,0.017,0.056,0.009,-0.000,-82.447,23.420,38.003
1747663766.56,-0.020,0.003,0.020,0.056,-0.001,-0.009,-82.422,23.343,37.922
1747663766.57,-0.010,0.012,0.026,0.076,-0.039,-0.004,-82.390,23.245,37.833
1747663766.58,-0.003,0.014,0.023,0.096,-0.085,0.001,-82.343,23.102,37.724
1747663766.59,-0.009,0.009,0.020,0.121,-0.151,-0.006,-82.284,22.876,37.563
1747663766.60,-0.033,-0.002,0.008,0.156,-0.183,-0.021,-82.214,22.520,37.301
1747663766.61,-0.047,-0.005,-0.003,0.197,-0.165,-0.034,-82.127,22.041,36.920
1747663766.62,-0.046,0.001,-0.002,0.224,-0.146,-0.030,-82.023,21.504,36.467
1747663766.63,-0.042,0.008,-0.003,0.241,-0.099,-0.020,-81.909,20.981,36.012
1747663766.64,-0.033,0.006,0.007,0.261,0.004,0.001,-81.781,20.550,35.605
1747663766.65,-0.031,-0.001,0.012,0.263,0.121,0.027,-81.643,20.287,35.302
1747663766.66,-0.041,-0.020,0.013,0.253,0.165,0.031,-81.506,20.154,35.082
1747663766.67,-0.047,-0.043,0.003,0.277,0.165,0.033,-81.368,20.023,34.853
1747663766.68,-0.006,-0.053,-0.008,0.318,0.159,0.050,-81.208,19.853,34.589
1747663766.69,0.047,-0.039,-0.013,0.370,0.145,0.071,-81.017,19.688,34.335
1747663766.70,0.077,-0.016,-0.025,0.438,0.093,0.089,-80.787,19.530,34.105
1747663766.71,0.073,0.009,-0.058,0.510,0.004,0.101,-80.514,19.311,33.855
1747663766.72,0.049,0.020,-0.070,0.571,-0.078,0.116,-80.202,19.040,33.603
1747663766.73,0.028,0.015,-0.066,0.638,-0.088,0.117,-79.853,18.716,33.326
1747663766.74,-0.000,0.004,-0.037,0.687,-0.010,0.096,-79.474,18.341,32.973
1747663766.75,-0.041,-0.021,0.010,0.715,0.070,0.076,-79.077,17.943,32.549
1747663766.76,-0.077,-0.042,0.015,0.720,0.125,0.074,-78.674,17.570,32.112
1747663766.77,-0.084,-0.049,-0.006,0.736,0.202,0.076,-78.265,17.252,31.694
1747663766.78,-0.062,-0.037,-0.001,0.723,0.321,0.087,-77.852,17.025,31.311
1747663766.79,-0.026,-0.020,0.054,0.679,0.384,0.096,-77.452,16.923,30.995
1747663766.80,-0.005,0.011,0.056,0.667,0.274,0.089,-77.071,16.850,30.723
1747663766.81,-0.002,0.049,-0.009,0.722,0.195,0.072,-76.680,16.678,30.413
1747663766.82,0.033,0.052,0.010,0.763,0.217,0.082,-76.259,16.460,30.069
1747663766.83,0.075,0.029,0.072,0.796,0.203,0.111,-75.817,16.291,29.770
1747663766.84,0.070,0.014,0.067,0.841,0.140,0.142,-75.348,16.153,29.527
1747663766.85,0.026,0.006,0.041,0.844,0.131,0.151,-74.859,16.029,29.320
1747663766.86,-0.016,-0.000,0.058,0.781,0.143,0.146,-74.389,15.936,29.142
1747663766.87,-0.037,-0.023,0.089,0.747,0.200,0.136,-73.949,15.889,28.994
1747663766.88,-0.019,-0.037,0.097,0.755,0.281,0.144,-73.515,15.884,28.846
1747663766.89,0.011,-0.028,0.096,0.782,0.234,0.160,-73.070,15.915,28.718
1747663766.90,0.020,-0.006,0.039,0.838,0.100,0.184,-72.598,15.905,28.607
1747663766.91,0.036,0.010,-0.006,0.868,0.014,0.170,-72.102,15.822,28.490
1747663766.92,0.067,0.005,-0.003,0.898,0.042,0.182,-71.589,15.705,28.392
1747663766.93,0.097,-0.001,0.025,0.900,0.076,0.220,-71.063,15.661,28.307
1747663766.94,0.053,0.020,0.056,0.900,-0.000,0.203,-70.536,15.626,28.282
1747663766.95,-0.068,0.039,0.029,0.909,-0.017,0.183,-70.007,15.524,28.185
1747663766.96,-0.134,0.024,0.048,0.877,0.118,0.165,-69.488,15.437,28.112
1747663766.97,-0.136,0.001,0.064,0.857,0.238,0.171,-68.985,15.442,28.005
1747663766.98,-0.112,-0.003,0.048,0.829,0.280,0.152,-68.496,15.489,27.937
1747663766.99,-0.043,0.015,0.028,0.823,0.317,0.131,-68.022,15.540,27.808
1747663767.00,0.034,0.023,0.026,0.920,0.307,0.118,-67.527,15.567,27.703
1747663767.01,0.057,0.015,-0.003,1.049,0.204,0.112,-66.966,15.504,27.477
1747663767.02,0.039,0.009,-0.027,1.023,0.113,0.134,-66.370,15.380,27.301
1747663767.03,0.000,0.006,0.007,0.871,0.134,0.148,-65.827,15.297,27.141
1747663767.04,-0.059,-0.009,0.024,0.797,0.227,0.143,-65.348,15.309,27.090
1747663767.05,-0.105,-0.029,0.012,0.731,0.265,0.155,-64.903,15.373,27.003
1747663767.06,-0.089,-0.040,0.027,0.691,0.290,0.193,-64.489,15.513,27.047
1747663767.07,-0.015,-0.030,-0.003,0.766,0.273,0.188,-64.061,15.664,27.100
1747663767.08,0.061,-0.008,-0.034,0.831,0.155,0.183,-63.592,15.746,27.052
1747663767.09,0.071,0.006,-0.068,0.903,0.046,0.155,-63.091,15.720,27.029
1747663767.10,0.066,-0.015,-0.099,1.030,-0.007,0.101,-62.538,15.583,26.863
1747663767.11,0.078,-0.042,-0.088,1.096,-0.070,0.065,-61.939,15.331,26.664
1747663767.12,0.054,-0.067,-0.052,1.049,-0.026,0.100,-61.330,15.082,26.417
1747663767.13,0.003,-0.088,-0.039,0.887,0.095,0.140,-60.776,14.961,26.326
1747663767.14,-0.055,-0.116,-0.061,0.748,0.258,0.206,-60.302,15.012,26.270
1747663767.15,-0.067,-0.141,0.013,0.690,0.400,0.263,-59.872,15.245,26.394
1747663767.16,-0.021,-0.103,0.068,0.695,0.386,0.326,-59.448,15.572,26.505
1747663767.17,0.046,-0.026,0.006,0.747,0.259,0.398,-58.996,15.908,26.744
1747663767.18,0.095,0.039,-0.024,0.814,0.067,0.387,-58.507,16.160,26.930
1747663767.19,0.112,0.071,-0.047,0.938,-0.087,0.308,-57.972,16.237,27.088
1747663767.20,0.101,0.068,-0.055,1.034,-0.149,0.206,-57.386,16.139,27.057
1747663767.21,0.030,0.046,-0.020,1.009,-0.086,0.133,-56.796,15.957,26.986
1747663767.22,-0.062,0.001,0.059,0.936,0.027,0.128,-56.241,15.819,26.839
1747663767.23,-0.163,-0.031,0.047,0.863,0.042,0.131,-55.728,15.739,26.784
1747663767.24,-0.206,-0.043,-0.012,0.771,0.107,0.214,-55.252,15.724,26.722
1747663767.25,-0.091,-0.046,0.026,0.699,0.236,0.284,-54.812,15.861,26.824
1747663767.26,0.075,-0.016,0.069,0.737,0.174,0.290,-54.375,16.046,26.898
1747663767.27,0.155,0.015,0.021,0.797,-0.018,0.341,-53.905,16.161,27.051
1747663767.28,0.146,0.018,0.001,0.844,-0.137,0.380,-53.395,16.206,27.166
1747663767.29,0.102,0.017,-0.022,0.881,-0.174,0.378,-52.861,16.208,27.351
1747663767.30,0.030,-0.002,-0.016,0.887,-0.122,0.333,-52.315,16.195,27.442
1747663767.31,-0.046,-0.017,0.010,0.814,-0.068,0.283,-51.801,16.183,27.557
1747663767.32,-0.056,-0.031,-0.015,0.780,-0.039,0.275,-51.319,16.183,27.595
1747663767.33,0.001,-0.035,-0.059,0.691,-0.032,0.302,-50.869,16.212,27.729
1747663767.34,0.062,-0.017,-0.038,0.661,-0.053,0.331,-50.451,16.269,27.833
1747663767.35,0.106,-0.013,-0.006,0.678,-0.116,0.367,-50.030,16.324,28.034
1747663767.36,0.104,-0.007,0.022,0.720,-0.207,0.388,-49.585,16.344,28.183
1747663767.37,0.060,0.007,-0.023,0.734,-0.237,0.382,-49.125,16.324,28.376
1747663767.38,0.029,0.008,-0.038,0.794,-0.217,0.365,-48.647,16.287,28.501
1747663767.39,0.014,0.004,0.007,0.827,-0.157,0.340,-48.143,16.252,28.673
1747663767.40,0.002,-0.004,0.060,0.853,-0.112,0.326,-47.630,16.229,28.743
1747663767.41,-0.005,-0.014,0.041,0.819,-0.103,0.341,-47.114,16.219,28.877
1747663767.42,-0.006,-0.020,0.014,0.694,-0.068,0.377,-46.641,16.249,28.989
1747663767.43,0.028,-0.024,0.025,0.597,-0.005,0.416,-46.225,16.351,29.241
1747663767.44,0.060,-0.017,0.062,0.577,-0.038,0.460,-45.836,16.493,29.450
1747663767.45,0.060,0.016,0.047,0.581,-0.118,0.514,-45.439,16.626,29.789
1747663767.46,0.046,0.070,-0.028,0.623,-0.228,0.512,-45.027,16.714,30.051
1747663767.47,-0.002,0.121,-0.080,0.690,-0.287,0.434,-44.591,16.714,30.352
1747663767.48,-0.063,0.153,-0.041,0.781,-0.236,0.319,-44.127,16.650,30.474
1747663767.49,-0.129,0.147,0.018,0.848,-0.217,0.211,-43.635,16.532,30.572
1747663767.50,-0.199,0.103,0.033,0.861,-0.169,0.139,-43.137,16.376,30.512
1747663767.51,-0.222,0.034,-0.013,0.819,-0.078,0.103,-42.656,16.241,30.504
1747663767.52,-0.192,-0.037,-0.080,0.772,-0.041,0.080,-42.205,16.138,30.400
1747663767.53,-0.120,-0.083,-0.076,0.769,-0.007,0.077,-41.771,16.054,30.398
1747663767.54,-0.020,-0.073,-0.029,0.794,0.001,0.073,-41.331,15.981,30.289
1747663767.55,0.021,-0.018,-0.012,0.841,-0.007,0.045,-40.872,15.897,30.279
1747663767.56,0.003,0.043,-0.005,0.853,0.010,0.009,-40.401,15.797,30.123
1747663767.57,-0.043,0.065,0.027,0.853,0.006,-0.003,-39.932,15.691,30.060
1747663767.58,-0.075,0.045,0.057,0.874,0.035,0.001,-39.458,15.589,29.884
1747663767.59,-0.049,0.009,0.052,0.874,0.101,0.024,-38.972,15.524,29.817
1747663767.60,-0.002,-0.015,-0.016,0.826,0.114,-0.003,-38.501,15.492,29.661
1747663767.61,0.025,-0.015,-0.052,0.780,0.073,0.002,-38.059,15.443,29.595
1747663767.62,0.044,0.001,-0.003,0.759,0.081,0.010,-37.634,15.403,29.457
1747663767.63,0.057,0.037,0.034,0.751,0.028,0.029,-37.215,15.354,29.425
1747663767.64,0.058,0.061,0.029,0.740,-0.001,0.052,-36.799,15.295,29.314
1747663767.65,0.051,0.078,0.040,0.754,-0.027,0.053,-36.380,15.226,29.307
1747663767.66,0.035,0.088,0.023,0.780,-0.081,0.049,-35.949,15.133,29.198
1747663767.67,0.024,0.087,0.032,0.784,-0.146,0.052,-35.510,15.002,29.190
1747663767.68,0.022,0.079,0.025,0.819,-0.161,0.030,-35.063,14.847,29.074
1747663767.69,0.033,0.049,-0.012,0.818,-0.183,0.003,-34.607,14.672,29.042
1747663767.70,0.037,0.003,-0.016,0.795,-0.167,0.012,-34.161,14.494,28.905
1747663767.71,0.068,-0.037,0.018,0.762,-0.166,0.041,-33.727,14.333,28.882
1747663767.72,0.118,-0.051,0.040,0.764,-0.141,0.097,-33.297,14.200,28.798
1747663767.73,0.177,-0.037,0.041,0.753,-0.180,0.169,-32.857,14.089,28.860
1747663767.74,0.192,-0.012,0.031,0.774,-0.248,0.210,-32.409,13.967,28.860
1747663767.75,0.161,-0.006,0.001,0.794,-0.287,0.225,-31.943,13.822,28.984
1747663767.76,0.100,-0.024,-0.049,0.746,-0.321,0.236,-31.482,13.660,29.010
1747663767.77,0.032,-0.070,-0.091,0.696,-0.294,0.256,-31.049,13.505,29.167
1747663767.78,-0.048,-0.112,-0.057,0.679,-0.183,0.238,-30.635,13.394,29.221
1747663767.79,-0.115,-0.103,0.001,0.678,-0.059,0.201,-30.227,13.346,29.382
1747663767.80,-0.146,-0.052,-0.011,0.673,-0.011,0.162,-29.828,13.335,29.396
1747663767.81,-0.155,0.023,-0.002,0.691,0.021,0.116,-29.431,13.333,29.498
1747663767.82,-0.130,0.083,0.018,0.710,0.004,0.079,-29.030,13.322,29.454
1747663767.83,-0.083,0.092,-0.001,0.743,-0.097,0.045,-28.619,13.263,29.501
1747663767.84,-0.026,0.056,-0.001,0.817,-0.169,0.012,-28.183,13.137,29.405
1747663767.85,0.020,0.015,0.048,0.936,-0.194,-0.046,-27.697,12.969,29.371
1747663767.86,0.029,-0.014,0.037,1.019,-0.202,-0.110,-27.160,12.768,29.181
1747663767.87,-0.004,-0.032,-0.007,0.989,-0.152,-0.157,-26.614,12.564,29.073
1747663767.88,-0.060,-0.047,-0.013,0.945,-0.044,-0.170,-26.096,12.401,28.837
1747663767.89,-0.103,-0.061,-0.019,0.894,0.106,-0.132,-25.602,12.320,28.730
1747663767.90,-0.105,-0.067,-0.029,0.811,0.183,-0.064,-25.132,12.334,28.547
1747663767.91,-0.034,-0.025,-0.019,0.731,0.190,0.082,-24.703,12.403,28.547
1747663767.92,0.019,0.066,0.010,0.679,0.167,0.095,-24.301,12.491,28.509
1747663767.93,0.136,0.150,0.027,0.687,0.075,0.131,-23.908,12.549,28.584
1747663767.94,0.232,0.164,0.026,0.757,-0.138,0.182,-23.487,12.535,28.584
1747663767.95,0.236,0.134,0.060,0.811,-0.315,0.212,-23.025,12.405,28.697
1747663767.96,0.199,0.064,0.098,0.839,-0.362,0.238,-22.535,12.220,28.726
1747663767.97,0.170,-0.041,0.046,0.817,-0.355,0.259,-22.043,12.030,28.852
1747663767.98,0.125,-0.163,-0.014,0.793,-0.320,0.308,-21.558,11.861,29.018
1747663767.99,0.097,-0.233,-0.047,0.724,-0.199,0.362,-21.094,11.747,29.124
1747663768.00,0.128,-0.224,-0.029,0.667,-0.074,0.418,-20.660,11.725,29.377
1747663768.01,0.149,-0.126,0.021,0.628,-0.050,0.474,-20.246,11.756,29.562
1747663768.02,0.156,0.021,-0.003,0.571,-0.060,0.532,-19.852,11.804,29.907
1747663768.03,0.149,0.125,-0.031,0.531,-0.140,0.563,-19.481,11.835,30.164
1747663768.04,0.091,0.161,-0.023,0.561,-0.186,0.586,-19.109,11.830,30.548
1747663768.05,0.020,0.154,0.031,0.567,-0.208,0.554,-18.727,11.804,30.818
1747663768.06,-0.072,0.143,0.035,0.606,-0.214,0.467,-18.341,11.758,31.157
1747663768.07,-0.149,0.114,-0.011,0.634,-0.222,0.391,-17.943,11.685,31.332
1747663768.08,-0.183,0.052,-0.052,0.660,-0.150,0.299,-17.542,11.615,31.582
1747663768.09,-0.177,-0.024,-0.066,0.692,-0.093,0.188,-17.134,11.565,31.642
1747663768.10,-0.173,-0.053,-0.086,0.693,-0.051,0.087,-16.732,11.523,31.770
1747663768.11,-0.151,-0.023,-0.108,0.699,-0.052,0.034,-16.334,11.482,31.720
1747663768.12,-0.141,0.045,-0.069,0.652,-0.068,0.033,-15.952,11.429,31.777
1747663768.13,-0.133,0.140,-0.013,0.605,-0.073,0.037,-15.596,11.375,31.723
1747663768.14,-0.112,0.182,-0.021,0.594,-0.051,0.027,-15.258,11.324,31.790
1747663768.15,-0.092,0.133,-0.035,0.596,-0.027,0.021,-14.920,11.286,31.734
1747663768.16,-0.045,0.035,-0.051,0.591,0.006,0.017,-14.586,11.264,31.785
1747663768.17,0.017,-0.054,-0.043,0.598,0.040,-0.010,-14.252,11.261,31.721
1747663768.18,0.049,-0.093,-0.005,0.658,0.045,-0.045,-13.905,11.265,31.745
1747663768.19,0.041,-0.096,0.005,0.710,0.017,-0.075,-13.526,11.257,31.631
1747663768.20,0.049,-0.072,-0.021,0.723,-0.038,-0.073,-13.132,11.222,31.600
1747663768.21,0.088,-0.051,-0.020,0.702,-0.113,-0.041,-12.736,11.153,31.485
1747663768.22,0.094,-0.023,0.022,0.661,-0.137,-0.019,-12.358,11.058,31.473
1747663768.23,0.060,0.027,0.014,0.620,-0.123,-0.004,-12.000,10.966,31.394
1747663768.24,0.007,0.056,-0.048,0.639,-0.058,0.017,-11.647,10.901,31.415
1747663768.25,-0.036,0.043,-0.101,0.617,-0.006,0.029,-11.288,10.872,31.359
1747663768.26,-0.049,0.007,-0.104,0.625,-0.001,0.011,-10.936,10.863,31.389
1747663768.27,-0.035,-0.070,-0.060,0.607,-0.010,-0.014,-10.590,10.847,31.322
1747663768.28,0.003,-0.099,-0.030,0.590,-0.028,-0.059,-10.257,10.822,31.313
1747663768.29,0.025,-0.107,0.003,0.595,-0.063,-0.105,-9.934,10.776,31.202
1747663768.30,0.019,-0.100,0.056,0.593,-0.066,-0.123,-9.612,10.714,31.162
1747663768.31,0.013,-0.086,0.069,0.585,-0.044,-0.108,-9.294,10.660,31.032
1747663768.32,0.017,-0.044,0.064,0.581,-0.011,-0.073,-8.974,10.626,31.010
1747663768.33,0.036,0.045,0.073,0.582,0.030,-0.024,-8.654,10.618,30.919
1747663768.34,0.060,0.125,0.065,0.588,0.044,0.028,-8.323,10.631,30.944
1747663768.35,0.055,0.173,0.005,0.552,0.043,0.047,-7.998,10.651,30.905
1747663768.36,0.070,0.157,-0.070,0.518,0.005,0.064,-7.692,10.662,30.944
1747663768.37,0.075,0.068,-0.104,0.490,-0.037,0.058,-7.402,10.650,30.926
1747663768.38,0.071,-0.024,-0.086,0.454,-0.084,0.030,-7.132,10.614,30.956
1747663768.39,0.045,-0.096,-0.067,0.456,-0.130,-0.009,-6.876,10.546,30.914
1747663768.39,-0.005,-0.122,-0.041,0.453,-0.098,-0.028,-6.620,10.472,30.906
1747663768.41,-0.018,-0.123,-0.014,0.452,-0.049,-0.024,-6.370,10.424,30.842
1747663768.42,0.007,-0.104,0.009,0.450,-0.037,0.012,-6.115,10.395,30.827
1747663768.42,0.040,-0.007,0.048,0.421,-0.057,0.050,-5.867,10.365,30.800
1747663768.43,0.044,0.128,0.035,0.396,-0.091,0.092,-5.631,10.324,30.852
1747663768.44,0.031,0.164,-0.037,0.392,-0.114,0.129,-5.395,10.266,30.875
1747663768.46,0.015,0.087,-0.065,0.362,-0.056,0.115,-5.171,10.216,30.966
1747663768.46,0.020,-0.018,-0.039,0.390,-0.002,0.081,-4.952,10.205,30.983
1747663768.48,0.011,-0.088,-0.079,0.379,-0.026,0.058,-4.726,10.198,31.036
1747663768.48,-0.023,-0.121,-0.103,0.357,-0.036,0.026,-4.516,10.178,31.022
1747663768.49,-0.018,-0.132,-0.074,0.343,-0.042,0.008,-4.316,10.153,31.033
1747663768.50,0.001,-0.100,-0.030,0.326,-0.039,-0.018,-4.128,10.128,30.998
1747663768.51,-0.009,-0.011,0.008,0.334,-0.049,-0.022,-3.945,10.098,31.005
1747663768.52,-0.031,0.080,0.014,0.332,-0.023,-0.005,-3.758,10.074,30.964
1747663768.53,-0.032,0.127,0.003,0.309,-0.011,0.017,-3.578,10.065,30.960
1747663768.54,-0.014,0.132,-0.024,0.305,-0.022,0.062,-3.402,10.054,30.952
1747663768.55,0.011,0.106,-0.064,0.257,-0.017,0.073,-3.235,10.043,30.971
1747663768.56,0.040,0.037,-0.119,0.209,-0.037,0.064,-3.100,10.032,30.987
1747663768.57,0.079,-0.048,-0.138,0.186,-0.100,0.062,-2.981,9.993,31.005
1747663768.58,0.092,-0.078,-0.088,0.163,-0.138,0.044,-2.879,9.926,31.019
1747663768.59,0.070,-0.066,-0.034,0.176,-0.178,0.033,-2.782,9.836,31.048
1747663768.60,0.004,-0.033,-0.009,0.192,-0.178,0.035,-2.674,9.733,31.048
1747663768.61,-0.057,0.033,0.016,0.175,-0.126,0.036,-2.568,9.645,31.068
1747663768.62,-0.090,0.078,0.017,0.220,-0.063,0.042,-2.455,9.591,31.071
1747663768.63,-0.109,0.070,0.006,0.206,0.010,0.030,-2.329,9.575,31.077
1747663768.64,-0.094,0.011,-0.012,0.185,0.074,0.004,-2.219,9.601,31.069
1747663768.65,-0.022,-0.059,-0.055,0.174,0.064,-0.018,-2.117,9.642,31.053
1747663768.66,0.064,-0.098,-0.104,0.139,-0.016,-0.015,-2.029,9.658,31.028
1747663768.67,0.117,-0.099,-0.110,0.111,-0.116,-0.012,-1.960,9.621,31.001
1747663768.68,0.093,-0.050,-0.072,0.088,-0.174,0.007,-1.905,9.535,30.990
1747663768.69,0.020,0.015,-0.036,0.067,-0.159,0.022,-1.861,9.437,30.983
1747663768.70,-0.049,0.062,-0.006,0.077,-0.108,0.016,-1.820,9.359,30.988
1747663768.71,-0.092,0.073,0.023,0.112,-0.033,0.011,-1.767,9.317,30.993
1747663768.72,-0.099,0.056,0.044,0.160,0.042,0.007,-1.689,9.320,30.985
1747663768.73,-0.077,0.031,0.040,0.154,0.071,-0.015,-1.599,9.352,30.986
1747663768.74,-0.029,-0.005,-0.014,0.144,0.065,-0.036,-1.516,9.392,30.958
1747663768.75,0.037,-0.048,-0.083,0.118,0.018,-0.044,-1.445,9.418,30.935
1747663768.76,0.082,-0.061,-0.116,0.100,-0.056,-0.051,-1.387,9.408,30.898
1747663768.77,0.083,-0.023,-0.103,0.071,-0.102,-0.051,-1.344,9.360,30.882
1747663768.78,0.046,0.037,-0.056,0.048,-0.114,-0.044,-1.316,9.295,30.849
1747663768.79,-0.004,0.074,-0.029,0.056,-0.110,-0.027,-1.295,9.228,30.846
1747663768.80,-0.044,0.070,0.001,0.084,-0.091,-0.021,-1.258,9.168,30.826
1747663768.81,-0.070,0.044,0.028,0.089,-0.048,-0.029,-1.213,9.124,30.824
1747663768.82,-0.054,0.022,0.025,0.110,0.005,-0.046,-1.159,9.113,30.795
1747663768.83,-0.024,0.014,-0.002,0.108,0.025,-0.062,-1.101,9.122,30.790
1747663768.84,0.005,0.010,-0.019,0.093,0.020,-0.068,-1.048,9.137,30.744
1747663768.85,0.034,0.014,-0.011,0.076,0.006,-0.060,-1.007,9.144,30.717
1747663768.86,0.058,0.016,-0.005,0.093,-0.024,-0.034,-0.963,9.141,30.683
1747663768.87,0.058,0.029,-0.020,0.088,-0.065,-0.006,-0.915,9.115,30.690
1747663768.88,0.054,0.041,-0.023,0.101,-0.087,0.012,-0.866,9.068,30.710
1747663768.89,0.036,0.054,-0.001,0.102,-0.063,0.028,-0.806,9.020,30.712
1747663768.90,0.009,0.051,0.008,0.073,-0.000,0.031,-0.756,8.999,30.761
1747663768.91,-0.007,0.013,-0.011,0.069,0.044,0.051,-0.713,9.012,30.778
1747663768.92,-0.014,-0.016,-0.019,0.053,0.068,0.070,-0.674,9.045,30.838
1747663768.93,0.012,-0.015,-0.020,0.039,0.064,0.074,-0.643,9.085,30.875
1747663768.94,0.043,-0.015,-0.046,0.036,0.015,0.079,-0.617,9.112,30.942
1747663768.95,0.051,-0.030,-0.079,0.024,-0.025,0.073,-0.594,9.112,30.983
1747663768.96,0.045,-0.036,-0.071,0.030,-0.038,0.060,-0.576,9.097,31.051
1747663768.97,0.015,-0.026,-0.042,0.022,-0.030,0.046,-0.561,9.080,31.079
1747663768.98,-0.030,-0.000,-0.022,0.019,-0.018,0.050,-0.549,9.067,31.124
1747663768.99,-0.041,0.014,-0.035,-0.009,-0.016,0.065,-0.541,9.056,31.156
1747663769.00,-0.029,0.008,-0.041,-0.018,0.016,0.065,-0.543,9.055,31.227
1747663769.01,-0.011,0.018,-0.019,-0.038,0.052,0.046,-0.551,9.075,31.260
1747663769.02,0.007,0.017,-0.035,-0.063,0.069,0.028,-0.576,9.113,31.321
1747663769.03,0.008,-0.012,-0.070,-0.085,0.081,0.023,-0.613,9.157,31.343
1747663769.04,-0.002,-0.025,-0.083,-0.096,0.089,0.019,-0.662,9.208,31.385
1747663769.05,-0.013,-0.012,-0.089,-0.140,0.066,0.009,-0.724,9.253,31.404
1747663769.06,-0.004,-0.028,-0.093,-0.176,0.070,-0.000,-0.814,9.288,31.473
1747663769.07,0.033,-0.071,-0.075,-0.205,0.077,0.001,-0.919,9.329,31.492
1747663769.08,0.051,-0.084,-0.062,-0.238,0.073,0.009,-1.045,9.374,31.551
1747663769.09,0.051,-0.068,-0.094,-0.293,0.057,0.017,-1.192,9.411,31.583
1747663769.10,0.024,-0.043,-0.114,-0.321,0.089,0.023,-1.366,9.451,31.668
1747663769.11,0.001,-0.019,-0.119,-0.353,0.116,0.022,-1.551,9.512,31.714
1747663769.12,-0.004,0.010,-0.142,-0.417,0.150,0.004,-1.766,9.588,31.796
1747663769.13,0.012,0.031,-0.143,-0.491,0.173,-0.015,-2.021,9.684,31.836
1747663769.14,0.025,0.017,-0.143,-0.572,0.127,-0.017,-2.322,9.773,31.916
1747663769.15,0.051,-0.027,-0.163,-0.653,0.066,-0.013,-2.667,9.829,31.968
1747663769.16,0.091,-0.059,-0.156,-0.735,0.047,-0.026,-3.059,9.863,32.061
1747663769.17,0.105,-0.070,-0.141,-0.789,0.031,-0.051,-3.493,9.888,32.114
1747663769.18,0.079,-0.073,-0.116,-0.831,0.002,-0.068,-3.954,9.900,32.210
1747663769.19,0.045,-0.052,-0.115,-0.891,0.004,-0.078,-4.447,9.904,32.252
1747663769.20,0.038,-0.030,-0.146,-0.929,0.033,-0.074,-4.966,9.917,32.351
1747663769.21,0.022,-0.021,-0.124,-0.994,0.066,-0.055,-5.513,9.951,32.409
1747663769.22,0.014,-0.016,-0.108,-1.069,0.097,-0.053,-6.098,10.004,32.540
1747663769.23,0.029,-0.001,-0.105,-1.110,0.105,-0.071,-6.719,10.071,32.614
1747663769.24,0.057,0.002,-0.085,-1.140,0.095,-0.075,-7.358,10.138,32.753
1747663769.25,0.070,-0.006,-0.056,-1.177,0.053,-0.077,-8.017,10.192,32.829
1747663769.26,0.058,-0.017,-0.044,-1.196,0.007,-0.086,-8.692,10.220,32.947
1747663769.27,0.040,-0.034,-0.033,-1.208,-0.005,-0.107,-9.377,10.230,33.014
1747663769.28,0.009,-0.066,-0.038,-1.224,-0.001,-0.135,-10.074,10.235,33.127
1747663769.29,-0.019,-0.077,-0.063,-1.230,0.068,-0.134,-10.778,10.261,33.175
1747663769.30,-0.044,-0.078,-0.052,-1.270,0.125,-0.128,-11.492,10.330,33.289
1747663769.31,-0.073,-0.055,-0.028,-1.302,0.148,-0.126,-12.230,10.421,33.352
1747663769.32,-0.055,-0.025,-0.036,-1.291,0.161,-0.134,-12.971,10.523,33.476
1747663769.33,-0.018,0.001,-0.016,-1.290,0.175,-0.145,-13.710,10.633,33.535
1747663769.34,0.005,0.010,-0.003,-1.286,0.168,-0.170,-14.450,10.743,33.643
1747663769.35,0.013,-0.003,-0.024,-1.269,0.156,-0.196,-15.186,10.846,33.677
1747663769.36,0.004,-0.041,-0.038,-1.277,0.149,-0.189,-15.919,10.939,33.748
1747663769.37,-0.008,-0.095,-0.062,-1.297,0.160,-0.185,-16.659,11.038,33.785
1747663769.38,-0.023,-0.136,-0.054,-1.336,0.167,-0.181,-17.416,11.144,33.869
1747663769.39,-0.017,-0.150,-0.021,-1.385,0.207,-0.178,-18.199,11.267,33.924
1747663769.40,0.005,-0.138,0.020,-1.412,0.232,-0.196,-19.003,11.412,34.011
1747663769.41,0.002,-0.104,0.054,-1.399,0.226,-0.207,-19.814,11.561,34.061
1747663769.42,0.002,-0.060,0.044,-1.383,0.186,-0.219,-20.615,11.694,34.146
1747663769.43,0.008,-0.014,0.002,-1.399,0.121,-0.228,-21.420,11.797,34.185
1747663769.44,0.015,0.008,-0.046,-1.391,0.076,-0.217,-22.227,11.866,34.269
1747663769.45,0.013,-0.002,-0.032,-1.395,0.060,-0.196,-23.028,11.924,34.322
1747663769.46,-0.011,-0.020,-0.016,-1.430,0.080,-0.183,-23.839,11.989,34.421
1747663769.47,-0.037,-0.050,-0.009,-1.455,0.125,-0.183,-24.667,12.079,34.499
1747663769.48,-0.059,-0.074,0.020,-1.441,0.183,-0.201,-25.501,12.198,34.595
1747663769.49,-0.055,-0.083,0.015,-1.418,0.241,-0.214,-26.324,12.349,34.659
1747663769.50,-0.034,-0.080,-0.003,-1.421,0.236,-0.229,-27.142,12.513,34.760
1747663769.51,-0.021,-0.069,-0.005,-1.429,0.201,-0.227,-27.965,12.662,34.818
1747663769.52,-0.000,-0.057,0.009,-1.447,0.176,-0.234,-28.795,12.798,34.912
1747663769.53,0.022,-0.036,0.016,-1.459,0.145,-0.242,-29.636,12.919,34.972
1747663769.54,0.018,-0.011,-0.023,-1.435,0.111,-0.257,-30.473,13.018,35.061
1747663769.55,0.002,0.018,-0.045,-1.434,0.091,-0.267,-31.303,13.100,35.105
1747663769.56,-0.007,0.043,-0.032,-1.440,0.041,-0.271,-32.139,13.159,35.179
1747663769.57,-0.029,0.055,0.003,-1.438,0.035,-0.276,-32.975,13.202,35.222
1747663769.58,-0.048,0.055,0.058,-1.429,0.083,-0.293,-33.810,13.254,35.268
1747663769.59,-0.051,0.040,0.040,-1.412,0.126,-0.299,-34.638,13.327,35.293
1747663769.60,-0.031,0.011,-0.007,-1.421,0.150,-0.285,-35.463,13.424,35.332
1747663769.61,-0.004,-0.013,-0.016,-1.436,0.174,-0.283,-36.295,13.541,35.373
1747663769.62,0.010,-0.029,0.009,-1.407,0.200,-0.292,-37.124,13.673,35.435
1747663769.63,-0.002,-0.026,0.016,-1.370,0.186,-0.311,-37.935,13.801,35.463
1747663769.64,-0.038,-0.004,0.004,-1.361,0.155,-0.336,-38.735,13.904,35.506
1747663769.65,-0.075,0.017,0.006,-1.372,0.141,-0.359,-39.540,13.985,35.500
1747663769.66,-0.087,0.023,-0.001,-1.395,0.167,-0.370,-40.357,14.063,35.487
1747663769.67,-0.070,0.017,-0.015,-1.402,0.196,-0.379,-41.185,14.157,35.470
1747663769.68,-0.035,0.010,-0.025,-1.422,0.181,-0.380,-42.019,14.255,35.452
1747663769.69,0.003,0.001,-0.012,-1.420,0.194,-0.384,-42.860,14.351,35.438
1747663769.70,0.044,-0.003,0.021,-1.402,0.219,-0.397,-43.697,14.457,35.412
1747663769.71,0.069,-0.004,0.033,-1.385,0.188,-0.384,-44.523,14.559,35.387
1747663769.72,0.082,-0.000,0.030,-1.383,0.128,-0.358,-45.342,14.643,35.378
1747663769.73,0.086,0.006,0.043,-1.388,0.062,-0.332,-46.157,14.707,35.392
1747663769.74,0.094,0.004,0.044,-1.403,0.056,-0.290,-46.973,14.771,35.444
1747663769.75,0.115,-0.003,0.026,-1.405,0.049,-0.267,-47.789,14.861,35.521
1747663769.76,0.109,-0.009,-0.011,-1.400,-0.035,-0.268,-48.602,14.932,35.614
1747663769.77,0.080,-0.018,-0.033,-1.418,-0.104,-0.290,-49.419,14.951,35.694
1747663769.78,0.058,-0.030,-0.009,-1.431,-0.151,-0.327,-50.252,14.926,35.765
1747663769.79,0.023,-0.045,0.014,-1.391,-0.195,-0.353,-51.081,14.852,35.796
1747663769.80,-0.003,-0.058,0.019,-1.362,-0.208,-0.371,-51.893,14.737,35.801
1747663769.81,-0.008,-0.059,0.011,-1.361,-0.186,-0.380,-52.699,14.610,35.763
1747663769.82,-0.004,-0.064,-0.011,-1.376,-0.173,-0.365,-53.510,14.495,35.745
1747663769.83,0.003,-0.065,-0.025,-1.377,-0.188,-0.327,-54.322,14.399,35.725
1747663769.84,0.013,-0.057,-0.023,-1.385,-0.196,-0.296,-55.128,14.320,35.764
1747663769.85,0.032,-0.045,0.015,-1.405,-0.176,-0.274,-55.942,14.271,35.796
1747663769.86,0.047,-0.027,0.028,-1.374,-0.177,-0.276,-56.750,14.239,35.876
1747663769.87,0.036,-0.008,-0.007,-1.342,-0.206,-0.295,-57.540,14.178,35.890
1747663769.88,0.022,-0.006,-0.007,-1.347,-0.203,-0.314,-58.326,14.088,35.923
1747663769.89,0.022,-0.024,0.027,-1.353,-0.181,-0.337,-59.120,13.990,35.896
1747663769.90,0.015,-0.052,0.028,-1.330,-0.234,-0.352,-59.914,13.864,35.884
1747663769.91,0.009,-0.084,-0.009,-1.281,-0.305,-0.349,-60.684,13.679,35.801
1747663769.92,0.020,-0.104,-0.030,-1.258,-0.342,-0.312,-61.434,13.465,35.770
1747663769.93,0.040,-0.107,-0.048,-1.222,-0.336,-0.283,-62.163,13.268,35.724
1747663769.94,0.040,-0.086,-0.072,-1.198,-0.318,-0.293,-62.871,13.078,35.719
1747663769.95,0.040,-0.057,-0.060,-1.230,-0.327,-0.290,-63.584,12.879,35.655
1747663769.96,0.070,-0.031,-0.009,-1.263,-0.316,-0.273,-64.315,12.696,35.656
1747663769.97,0.100,0.003,0.045,-1.280,-0.339,-0.247,-65.056,12.540,35.630
1747663769.98,0.086,0.028,0.060,-1.257,-0.350,-0.214,-65.794,12.403,35.699
1747663769.99,0.046,0.022,0.030,-1.175,-0.257,-0.211,-66.500,12.295,35.702
1747663770.00,-0.012,-0.014,-0.002,-1.107,-0.189,-0.217,-67.160,12.211,35.746
1747663770.01,-0.072,-0.062,-0.027,-1.129,-0.202,-0.208,-67.809,12.137,35.722
1747663770.02,-0.091,-0.101,-0.047,-1.143,-0.201,-0.200,-68.472,12.077,35.786
1747663770.03,-0.077,-0.107,-0.064,-1.051,-0.128,-0.213,-69.111,12.024,35.763
1747663770.04,-0.064,-0.066,-0.064,-1.003,-0.036,-0.247,-69.708,11.958,35.742
1747663770.05,-0.062,-0.000,-0.008,-1.000,-0.013,-0.280,-70.298,11.867,35.570
1747663770.06,-0.065,0.048,-0.005,-0.997,-0.017,-0.295,-70.890,11.725,35.433
1747663770.07,-0.052,0.054,0.015,-0.949,0.018,-0.308,-71.471,11.560,35.159
1747663770.08,-0.019,0.033,0.043,-0.904,0.041,-0.277,-72.022,11.393,34.966
1747663770.09,-0.001,0.002,0.055,-0.922,0.054,-0.223,-72.560,11.307,34.735
1747663770.10,-0.033,-0.038,0.050,-0.915,0.116,-0.203,-73.099,11.305,34.685
1747663770.11,-0.077,-0.080,-0.016,-0.903,0.175,-0.194,-73.628,11.356,34.552
1747663770.12,-0.089,-0.104,-0.054,-0.952,0.249,-0.205,-74.169,11.454,34.529
1747663770.13,-0.054,-0.094,-0.038,-0.933,0.324,-0.234,-74.725,11.569,34.403
1747663770.14,-0.005,-0.042,-0.062,-0.845,0.339,-0.245,-75.251,11.641,34.281
1747663770.15,0.033,0.046,-0.069,-0.772,0.322,-0.255,-75.731,11.652,34.002
1747663770.16,0.031,0.126,-0.019,-0.733,0.276,-0.282,-76.180,11.567,33.738
1747663770.17,0.010,0.149,0.042,-0.699,0.296,-0.278,-76.613,11.411,33.322
1747663770.18,0.017,0.098,0.100,-0.723,0.315,-0.239,-77.037,11.300,33.026
1747663770.19,0.025,0.020,0.113,-0.793,0.227,-0.180,-77.487,11.319,32.792
1747663770.20,0.024,-0.061,0.058,-0.779,0.102,-0.163,-77.948,11.382,32.761
1747663770.21,0.025,-0.122,0.019,-0.746,0.059,-0.173,-78.392,11.392,32.612
1747663770.22,0.036,-0.126,0.043,-0.767,0.029,-0.193,-78.834,11.330,32.523
1747663770.23,0.025,-0.083,0.039,-0.780,-0.001,-0.234,-79.294,11.180,32.234
1747663770.24,-0.009,-0.024,-0.004,-0.728,-0.044,-0.304,-79.747,10.796,31.857
1747663770.25,-0.019,0.029,-0.024,-0.700,-0.016,-0.343,-80.180,10.151,31.081
1747663770.26,0.024,0.072,0.011,-0.696,0.065,-0.319,-80.605,9.459,30.366
1747663770.27,0.060,0.111,0.031,-0.681,0.093,-0.286,-81.021,8.835,29.543
1747663770.28,0.055,0.127,0.034,-0.676,0.077,-0.236,-81.423,8.300,28.951
1747663770.29,0.016,0.088,0.055,-0.702,0.007,-0.206,-81.831,7.856,28.325
1747663770.30,-0.031,-0.025,0.071,-0.704,-0.010,-0.196,-82.243,7.412,27.885
1747663770.31,-0.051,-0.124,0.063,-0.774,0.035,-0.182,-82.672,7.013,27.318
1747663770.32,-0.048,-0.153,0.027,-0.827,0.105,-0.203,-83.141,6.619,26.882
1747663770.33,-0.023,-0.117,0.007,-0.793,0.112,-0.219,-83.617,6.083,26.134
1747663770.34,0.009,-0.036,-0.035,-0.676,0.062,-0.200,-84.048,5.420,25.419
1747663770.35,0.032,0.055,-0.052,-0.581,0.032,-0.171,-84.412,4.724,24.544
1747663770.36,0.017,0.096,-0.007,-0.495,-0.032,-0.177,-84.727,3.932,23.750
1747663770.37,-0.030,0.087,-0.018,-0.394,-0.050,-0.185,-84.987,2.937,22.609
1747663770.38,-0.073,0.071,-0.021,-0.336,-0.022,-0.192,-85.197,1.759,21.448
1747663770.39,-0.105,0.036,0.008,-0.344,0.053,-0.192,-85.391,0.470,19.966
1747663770.40,-0.107,-0.003,0.019,-0.369,0.132,-0.183,-85.595,-0.852,18.586
1747663770.41,-0.090,-0.048,0.001,-0.379,0.228,-0.163,-85.807,-2.147,17.048
1747663770.42,-0.033,-0.070,-0.030,-0.389,0.374,-0.138,-86.021,-3.349,15.673
1747663770.43,0.054,-0.071,-0.003,-0.441,0.490,-0.086,-86.253,-4.285,14.332
1747663770.44,0.111,-0.056,0.015,-0.491,0.485,-0.020,-86.517,-4.798,13.535
1747663770.45,0.119,-0.037,-0.036,-0.455,0.398,-0.001,-86.790,-5.029,12.891
1747663770.46,0.098,-0.037,-0.073,-0.383,0.324,-0.015,-87.028,-5.296,12.418
1747663770.47,0.073,-0.014,-0.083,-0.335,0.286,-0.035,-87.230,-5.806,11.542
1747663770.48,0.051,0.022,-0.073,-0.275,0.277,-0.070,-87.402,-6.672,10.513
1747663770.49,0.016,0.042,-0.070,-0.149,0.203,-0.081,-87.518,-7.870,8.984
1747663770.50,-0.024,0.050,-0.112,-0.018,0.131,-0.072,-87.557,-8.935,7.824
1747663770.51,-0.051,0.051,-0.099,0.048,0.125,-0.055,-87.539,-9.670,6.831
1747663770.52,-0.057,0.028,-0.035,0.000,0.155,-0.031,-87.517,-10.064,6.355
1747663770.53,-0.073,-0.018,0.032,-0.098,0.163,-0.015,-87.543,-10.363,5.803
1747663770.54,-0.089,-0.061,0.047,-0.137,0.218,-0.023,-87.610,-10.814,5.245
1747663770.55,-0.060,-0.079,0.038,-0.139,0.275,-0.015,-87.685,-11.312,4.465
1747663770.56,-0.010,-0.066,0.039,-0.138,0.304,0.004,-87.762,-11.628,3.981
1747663770.57,0.033,-0.034,0.058,-0.107,0.253,0.031,-87.833,-11.574,3.733
1747663770.58,0.051,0.001,0.050,-0.094,0.157,0.041,-87.893,-11.163,4.025
1747663770.59,0.032,0.024,0.049,-0.070,-0.020,0.012,-87.943,-10.954,4.040
1747663770.60,-0.000,0.029,-0.004,-0.014,-0.123,-0.036,-87.965,-11.310,3.729
1747663770.61,-0.007,0.025,-0.018,0.027,-0.182,-0.066,-87.954,-12.206,2.761
1747663770.62,0.000,0.020,-0.018,0.048,-0.163,-0.064,-87.926,-13.292,1.777
1747663770.63,0.016,0.020,0.008,0.089,-0.062,-0.047,-87.881,-14.032,0.943
1747663770.64,0.010,0.024,0.034,0.106,-0.029,-0.028,-87.821,-14.233,0.763
1747663770.65,-0.028,0.017,0.042,0.105,-0.073,-0.003,-87.763,-14.091,0.786
1747663770.66,-0.043,-0.002,0.028,0.077,-0.084,0.024,-87.717,-13.590,1.336
1747663770.67,-0.031,-0.014,0.034,0.007,-0.042,0.045,-87.703,-12.980,1.854
1747663770.68,-0.025,-0.022,0.059,-0.028,0.028,0.049,-87.716,-12.376,2.462
1747663770.69,-0.033,-0.025,0.058,-0.040,0.071,0.034,-87.739,-11.879,2.798
1747663770.70,-0.042,-0.010,0.054,-0.059,0.143,0.025,-87.768,-11.579,3.040
1747663770.71,-0.019,0.013,0.092,-0.084,0.221,0.035,-87.813,-11.214,3.161
1747663770.72,-0.001,0.023,0.111,-0.092,0.184,0.047,-87.871,-10.724,3.402
1747663770.73,-0.000,0.024,0.065,-0.061,0.107,0.020,-87.922,-10.402,3.641
1747663770.74,0.003,0.026,0.036,-0.014,0.018,-0.027,-87.945,-10.653,3.232
1747663770.75,0.018,0.020,0.006,0.011,-0.114,-0.050,-87.942,-11.397,2.515
1747663770.76,0.042,0.009,-0.015,-0.007,-0.193,-0.048,-87.938,-12.356,1.508
1747663770.77,0.059,-0.011,0.001,-0.026,-0.253,-0.035,-87.947,-13.336,0.654
1747663770.78,0.051,-0.038,0.009,-0.022,-0.281,-0.013,-87.963,-14.136,-0.114
1747663770.79,0.039,-0.042,0.005,0.016,-0.238,0.008,-87.974,-14.474,-0.303
1747663770.80,0.019,-0.019,0.012,0.048,-0.210,0.031,-87.970,-14.270,-0.086
1747663770.81,-0.014,0.000,0.005,0.077,-0.187,0.052,-87.947,-13.518,0.781
1747663770.82,-0.033,0.001,0.004,0.116,-0.149,0.051,-87.905,-12.468,1.819
1747663770.83,-0.044,-0.006,0.011,0.165,-0.152,0.047,-87.833,-11.317,3.054
1747663770.84,-0.041,-0.010,0.007,0.211,-0.171,0.047,-87.732,-10.120,4.249
1747663770.85,-0.003,-0.004,0.002,0.268,-0.167,0.081,-87.605,-8.668,5.801
1747663770.86,0.042,0.002,-0.017,0.318,-0.204,0.134,-87.448,-6.723,7.740
1747663770.87,0.048,0.000,-0.027,0.321,-0.251,0.158,-87.275,-4.558,10.039
1747663770.88,0.017,0.004,0.002,0.309,-0.269,0.140,-87.106,-2.707,11.943
1747663770.89,-0.019,0.014,0.016,0.331,-0.284,0.118,-86.929,-1.373,13.438
1747663770.90,-0.036,0.016,0.012,0.399,-0.232,0.106,-86.723,-0.319,14.577
1747663770.91,-0.031,-0.001,0.034,0.485,-0.123,0.098,-86.470,0.567,15.567
1747663770.92,-0.026,-0.006,0.049,0.562,-0.055,0.104,-86.170,1.328,16.298
1747663770.93,-0.032,-0.013,0.040,0.635,-0.063,0.119,-85.825,2.052,17.055
1747663770.94,-0.039,-0.014,0.021,0.664,-0.089,0.150,-85.449,2.792,17.766
1747663770.95,-0.028,-0.004,0.021,0.648,-0.105,0.182,-85.067,3.628,18.662
1747663770.96,-0.031,-0.014,0.040,0.645,-0.109,0.210,-84.692,4.529,19.552
1747663770.97,-0.042,-0.035,0.064,0.656,-0.145,0.234,-84.312,5.442,20.540
1747663770.98,-0.042,-0.027,0.040,0.706,-0.215,0.249,-83.912,6.279,21.403
1747663770.99,-0.027,-0.003,-0.018,0.758,-0.263,0.272,-83.479,7.028,22.297
1747663771.00,0.009,0.009,-0.030,0.823,-0.195,0.267,-83.013,7.706,23.055
1747663771.01,0.031,0.010,0.013,0.888,-0.062,0.220,-82.508,8.189,23.616
1747663771.02,0.018,-0.002,0.065,0.916,0.025,0.181,-81.979,8.447,23.823
1747663771.03,-0.005,-0.009,0.074,0.885,0.094,0.182,-81.453,8.645,23.989
1747663771.04,-0.014,-0.000,0.067,0.869,0.120,0.211,-80.943,8.929,24.158
1747663771.05,-0.033,0.029,0.030,0.921,0.029,0.244,-80.418,9.262,24.448
1747663771.06,-0.046,0.060,0.007,0.878,-0.058,0.283,-79.881,9.614,24.775
1747663771.07,-0.031,0.045,0.112,0.787,-0.099,0.325,-79.385,10.060,25.275
1747663771.08,-0.011,-0.007,0.147,0.807,-0.147,0.343,-78.907,10.555,25.800
1747663771.09,-0.007,-0.049,0.049,0.888,-0.202,0.329,-78.395,10.945,26.301
1747663771.10,-0.009,-0.080,-0.019,0.958,-0.154,0.320,-77.843,11.218,26.648
1747663771.11,-0.006,-0.081,0.005,1.000,-0.016,0.310,-77.256,11.470,26.957
1747663771.12,-0.034,-0.028,0.040,0.994,0.047,0.293,-76.664,11.719,27.167
1747663771.13,-0.100,0.050,0.027,0.984,0.003,0.286,-76.077,11.918,27.358
1747663771.14,-0.140,0.093,0.025,1.009,0.049,0.269,-75.490,12.071,27.481
1747663771.15,-0.131,0.072,0.051,1.075,0.228,0.269,-74.875,12.237,27.572
1747663771.16,-0.097,0.019,0.071,1.098,0.348,0.322,-74.231,12.513,27.660
1747663771.17,-0.085,-0.025,0.048,1.018,0.442,0.357,-73.593,12.938,27.869
1747663771.18,-0.084,-0.072,0.054,0.936,0.472,0.335,-73.008,13.427,28.088
1747663771.19,-0.040,-0.107,0.016,0.945,0.449,0.320,-72.444,13.867,28.274
1747663771.20,0.069,-0.085,-0.031,0.975,0.377,0.320,-71.869,14.245,28.405
1747663771.21,0.131,-0.014,-0.056,1.028,0.136,0.302,-71.271,14.489,28.504
1747663771.22,0.096,0.042,-0.089,1.094,0.008,0.265,-70.643,14.534,28.509
1747663771.23,0.062,0.049,-0.008,1.140,0.100,0.248,-69.987,14.504,28.448
1747663771.24,0.016,0.013,0.076,1.119,0.134,0.244,-69.326,14.506,28.382
1747663771.25,-0.064,-0.034,0.034,1.058,0.185,0.228,-68.689,14.525,28.310
1747663771.26,-0.089,-0.070,0.020,0.930,0.375,0.228,-68.108,14.637,28.263
1747663771.27,-0.061,-0.084,0.076,0.869,0.584,0.243,-67.580,14.914,28.264
1747663771.28,-0.028,-0.047,0.045,0.833,0.599,0.279,-67.070,15.297,28.303
1747663771.29,0.020,0.022,-0.025,0.802,0.521,0.345,-66.576,15.724,28.421
1747663771.30,0.128,0.054,-0.014,0.909,0.444,0.393,-66.053,16.162,28.609
1747663771.31,0.242,0.041,-0.007,1.059,0.264,0.432,-65.445,16.520,28.775
1747663771.32,0.265,-0.002,-0.017,1.219,-0.019,0.450,-64.749,16.711,28.915
1747663771.33,0.173,-0.048,-0.001,1.250,-0.194,0.431,-63.993,16.722,29.003
1747663771.34,0.035,-0.054,0.023,1.134,-0.143,0.334,-63.275,16.652,29.045
1747663771.35,-0.105,-0.034,-0.005,0.996,-0.020,0.204,-62.648,16.557,28.989
1747663771.36,-0.219,-0.005,-0.064,0.900,0.083,0.105,-62.107,16.440,28.858
1747663771.37,-0.243,0.081,-0.081,0.824,0.196,0.072,-61.621,16.350,28.663
1747663771.38,-0.184,0.191,0.016,0.801,0.191,0.073,-61.167,16.299,28.496
1747663771.39,-0.067,0.251,0.066,0.865,0.055,0.098,-60.700,16.215,28.316
1747663771.40,0.084,0.211,0.022,1.011,-0.110,0.110,-60.170,16.042,28.150
1747663771.41,0.203,0.113,0.016,1.183,-0.183,0.099,-59.553,15.757,27.922
1747663771.42,0.235,-0.010,0.055,1.366,-0.184,0.097,-58.835,15.413,27.655
1747663771.43,0.142,-0.113,0.044,1.420,-0.192,0.065,-58.047,15.039,27.339
1747663771.44,-0.010,-0.186,0.005,1.278,-0.222,0.065,-57.287,14.652,27.053
1747663771.45,-0.096,-0.236,-0.062,1.004,0.014,0.184,-56.635,14.429,26.872
1747663771.46,-0.043,-0.268,-0.059,0.814,0.343,0.308,-56.106,14.552,26.917
1747663771.47,0.037,-0.256,-0.094,0.755,0.406,0.381,-55.620,14.891,27.054
1747663771.48,0.114,-0.208,-0.046,0.675,0.250,0.467,-55.166,15.267,27.318
1747663771.49,0.205,-0.132,0.031,0.754,0.015,0.543,-54.700,15.590,27.614
1747663771.50,0.239,-0.060,-0.039,0.878,-0.319,0.575,-54.164,15.761,27.974
1747663771.51,0.176,-0.012,-0.115,1.022,-0.543,0.493,-53.559,15.715,28.230
1747663771.51,0.051,0.019,-0.109,1.150,-0.566,0.323,-52.895,15.467,28.383
1747663771.53,-0.068,0.035,-0.033,1.143,-0.300,0.169,-52.221,15.160,28.316
1747663771.54,-0.189,0.035,0.071,1.014,-0.016,0.081,-51.607,14.955,28.215
1747663771.54,-0.324,0.016,0.053,0.877,0.106,0.091,-51.073,14.865,28.061
1747663771.56,-0.344,-0.012,-0.024,0.728,0.237,0.247,-50.608,14.926,28.067
1747663771.56,-0.166,-0.034,0.018,0.666,0.296,0.435,-50.175,15.191,28.206
1747663771.57,0.056,-0.002,0.050,0.709,0.157,0.463,-49.731,15.504,28.493
1747663771.58,0.220,0.060,0.054,0.814,-0.156,0.464,-49.241,15.671,28.704
1747663771.59,0.281,0.090,0.032,0.969,-0.444,0.446,-48.683,15.625,28.935
1747663771.61,0.211,0.120,0.008,1.113,-0.491,0.320,-48.046,15.410,29.099
1747663771.61,0.081,0.136,0.039,1.122,-0.320,0.163,-47.390,15.131,29.044
1747663771.62,-0.045,0.107,0.083,1.061,-0.068,0.084,-46.768,14.916,28.976
1747663771.63,-0.153,0.059,0.079,0.938,0.133,0.115,-46.202,14.837,28.838
1747663771.65,-0.161,0.014,-0.008,0.835,0.191,0.201,-45.691,14.893,28.862
1747663771.65,-0.063,-0.025,-0.067,0.781,0.149,0.304,-45.209,15.010,28.891
1747663771.66,0.082,-0.049,-0.006,0.804,0.142,0.368,-44.724,15.168,29.074
1747663771.67,0.166,-0.032,0.052,0.885,-0.072,0.381,-44.203,15.274,29.189
1747663771.68,0.121,0.003,-0.022,0.968,-0.291,0.349,-43.636,15.227,29.363
1747663771.69,0.047,0.033,-0.076,1.037,-0.343,0.256,-43.038,15.059,29.389
1747663771.70,-0.028,0.038,-0.080,1.122,-0.242,0.162,-42.412,14.845,29.413
1747663771.71,-0.101,0.025,0.058,1.146,-0.047,0.076,-41.766,14.672,29.280
1747663771.72,-0.153,0.020,0.104,1.102,0.131,-0.009,-41.138,14.570,29.168
1747663771.73,-0.133,-0.001,-0.063,0.982,0.223,-0.034,-40.563,14.534,28.951
1747663771.74,-0.081,-0.054,-0.080,0.866,0.208,0.050,-40.054,14.547,28.880
1747663771.75,-0.032,-0.094,-0.004,0.827,0.234,0.158,-39.573,14.622,28.800
1747663771.76,0.038,-0.072,0.064,0.820,0.116,0.209,-39.091,14.718,28.869
1747663771.77,0.054,0.017,0.019,0.852,-0.064,0.234,-38.598,14.731,28.873
1747663771.78,0.054,0.122,-0.036,0.906,-0.146,0.190,-38.081,14.664,28.959
1747663771.79,0.035,0.180,-0.050,0.971,-0.249,0.110,-37.541,14.511,28.894
1747663771.80,0.006,0.182,0.019,1.058,-0.277,0.019,-36.971,14.273,28.862
1747663771.81,0.017,0.144,0.207,1.138,-0.190,-0.031,-36.364,14.019,28.664
1747663771.82,0.077,0.073,0.163,1.087,-0.073,-0.020,-35.743,13.822,28.552
1747663771.83,0.085,-0.023,-0.045,0.926,-0.057,0.019,-35.186,13.691,28.382
1747663771.84,0.046,-0.145,-0.133,0.818,-0.113,0.156,-34.692,13.591,28.367
1747663771.85,0.070,-0.246,-0.070,0.765,-0.034,0.324,-34.222,13.565,28.402
1747663771.86,0.128,-0.233,0.072,0.770,-0.037,0.371,-33.751,13.617,28.597
1747663771.87,0.105,-0.074,0.014,0.835,-0.186,0.315,-33.260,13.608,28.698
1747663771.88,0.049,0.105,-0.062,0.897,-0.302,0.258,-32.739,13.496,28.838
1747663771.89,0.015,0.202,-0.017,0.918,-0.458,0.207,-32.205,13.285,28.846
1747663771.90,-0.023,0.222,0.056,0.954,-0.517,0.162,-31.661,12.987,28.923
1747663771.91,-0.015,0.184,0.109,1.003,-0.364,0.077,-31.099,12.696,28.856
1747663771.92,0.024,0.106,0.001,0.980,-0.196,-0.010,-30.540,12.477,28.823
1747663771.93,0.001,-0.015,-0.128,0.901,-0.270,0.023,-30.014,12.281,28.687
1747663771.94,-0.064,-0.123,-0.085,0.818,-0.287,0.180,-29.522,12.086,28.741
1747663771.95,-0.025,-0.148,0.058,0.754,-0.185,0.266,-29.057,11.974,28.781
1747663771.96,0.054,-0.073,0.049,0.745,-0.183,0.241,-28.610,11.903,28.953
1747663771.97,0.095,0.031,0.002,0.779,-0.232,0.229,-28.157,11.809,29.001
1747663771.98,0.080,0.097,0.028,0.820,-0.315,0.236,-27.683,11.672,29.155
1747663771.99,0.036,0.098,0.048,0.852,-0.349,0.229,-27.187,11.497,29.194
1747663772.00,0.004,0.069,0.063,0.892,-0.328,0.224,-26.674,11.314,29.329
1747663772.01,-0.017,0.021,0.047,0.926,-0.246,0.226,-26.139,11.161,29.358
1747663772.02,-0.067,-0.014,0.020,0.929,-0.206,0.201,-25.594,11.041,29.495
1747663772.03,-0.115,-0.030,-0.041,0.912,-0.107,0.169,-25.059,10.952,29.499
1747663772.04,-0.123,-0.033,-0.063,0.917,-0.017,0.129,-24.532,10.913,29.573
1747663772.05,-0.147,-0.034,-0.053,0.952,0.034,0.065,-23.997,10.901,29.524
1747663772.06,-0.167,-0.054,-0.043,0.970,0.045,0.025,-23.455,10.890,29.539
1747663772.07,-0.164,-0.087,-0.024,1.030,0.047,-0.034,-22.896,10.871,29.422
1747663772.08,-0.136,-0.112,-0.002,1.091,0.054,-0.108,-22.308,10.836,29.352
1747663772.09,-0.091,-0.122,0.055,1.147,0.072,-0.182,-21.697,10.789,29.135
1747663772.10,-0.052,-0.103,0.060,1.185,0.097,-0.244,-21.064,10.742,28.984
1747663772.11,-0.034,-0.066,0.027,1.182,0.125,-0.237,-20.425,10.705,28.702
1747663772.12,0.023,-0.028,-0.027,1.146,0.091,-0.182,-19.792,10.681,28.552
1747663772.13,0.123,0.003,-0.067,1.107,-0.056,-0.071,-19.174,10.625,28.348
1747663772.14,0.200,0.016,-0.064,1.057,-0.141,0.065,-18.565,10.523,28.328
1747663772.15,0.218,0.016,0.006,0.976,-0.110,0.146,-17.983,10.436,28.282
1747663772.16,0.169,0.005,0.066,0.937,-0.076,0.202,-17.429,10.384,28.389
1747663772.17,0.111,-0.012,0.068,0.953,-0.073,0.256,-16.875,10.352,28.424
1747663772.18,0.088,-0.016,0.064,0.980,-0.080,0.290,-16.303,10.324,28.585
1747663772.19,0.106,0.003,0.054,0.975,-0.114,0.299,-15.722,10.291,28.654
1747663772.20,0.133,0.009,0.011,0.943,-0.202,0.297,-15.153,10.220,28.828
1747663772.21,0.108,-0.021,-0.042,0.940,-0.226,0.286,-14.595,10.114,28.900
1747663772.22,0.031,-0.077,-0.081,0.954,-0.182,0.255,-14.035,10.009,29.072
1747663772.23,-0.036,-0.121,-0.135,0.948,-0.054,0.195,-13.475,9.949,29.106
1747663772.24,-0.070,-0.147,-0.152,0.899,0.067,0.134,-12.938,9.954,29.220
1747663772.25,-0.096,-0.154,-0.078,0.855,0.128,0.132,-12.432,10.010,29.206
1747663772.26,-0.100,-0.046,0.047,0.817,0.111,0.160,-11.948,10.080,29.308
1747663772.27,-0.061,0.163,0.111,0.795,0.034,0.207,-11.476,10.129,29.330
1747663772.28,0.005,0.314,0.095,0.801,-0.075,0.236,-11.007,10.126,29.480
1747663772.29,0.050,0.298,-0.006,0.842,-0.141,0.285,-10.520,10.072,29.545
1747663772.30,0.032,0.172,-0.064,0.875,-0.096,0.315,-10.005,10.016,29.730
1747663772.31,-0.009,0.056,-0.085,0.824,0.000,0.282,-9.494,10.002,29.816
1747663772.32,-0.033,-0.027,-0.101,0.719,0.104,0.239,-9.032,10.044,29.981
1747663772.33,-0.026,-0.092,-0.130,0.637,0.163,0.246,-8.631,10.131,30.050
1747663772.34,0.013,-0.152,-0.165,0.624,0.167,0.263,-8.249,10.240,30.228
1747663772.35,0.060,-0.132,-0.122,0.610,0.089,0.251,-7.877,10.328,30.312
1747663772.36,0.106,0.010,-0.033,0.616,-0.111,0.220,-7.507,10.334,30.463
1747663772.37,0.060,0.144,0.009,0.611,-0.282,0.197,-7.141,10.224,30.517
1747663772.38,-0.047,0.166,0.019,0.663,-0.333,0.172,-6.767,10.049,30.647
1747663772.39,-0.153,0.093,0.000,0.697,-0.239,0.141,-6.367,9.882,30.668
1747663772.40,-0.213,-0.003,0.009,0.688,-0.013,0.112,-5.964,9.809,30.762
1747663772.41,-0.219,-0.065,-0.014,0.666,0.154,0.075,-5.573,9.854,30.749
1747663772.42,-0.194,-0.101,-0.062,0.593,0.242,0.052,-5.214,9.967,30.816
1747663772.43,-0.089,-0.051,-0.046,0.581,0.230,0.040,-4.880,10.103,30.783
1747663772.44,0.037,0.020,-0.076,0.564,0.126,0.023,-4.555,10.202,30.822
1747663772.45,0.146,0.045,-0.067,0.601,-0.026,0.021,-4.227,10.229,30.774
1747663772.46,0.177,0.092,0.013,0.619,-0.164,0.023,-3.880,10.167,30.785
1747663772.47,0.153,0.149,0.036,0.626,-0.179,0.024,-3.528,10.063,30.735
1747663772.48,0.075,0.135,-0.002,0.619,-0.152,0.058,-3.173,9.964,30.754
1747663772.49,-0.052,0.085,-0.041,0.576,-0.016,0.124,-2.826,9.910,30.747
1747663772.50,-0.089,0.026,-0.077,0.537,0.179,0.163,-2.500,9.960,30.842
1747663772.51,-0.065,-0.022,-0.101,0.515,0.268,0.149,-2.189,10.093,30.879
1747663772.52,-0.007,-0.040,-0.093,0.484,0.219,0.133,-1.895,10.237,30.980
1747663772.53,0.084,-0.045,-0.064,0.467,0.089,0.137,-1.614,10.327,31.089
1747663772.54,0.170,-0.059,-0.043,0.456,-0.062,0.134,-1.341,10.336,31.117
1747663772.55,0.207,-0.039,-0.012,0.449,-0.221,0.125,-1.073,10.254,31.218
1747663772.56,0.122,0.025,0.031,0.444,-0.278,0.122,-0.809,10.108,31.243
1747663772.57,-0.026,0.069,0.036,0.449,-0.177,0.141,-0.545,9.973,31.335
1747663772.58,-0.153,0.062,-0.002,0.476,0.002,0.176,-0.269,9.923,31.380
1747663772.59,-0.226,0.058,-0.045,0.465,0.226,0.151,0.015,9.987,31.486
1747663772.60,-0.191,0.057,-0.054,0.431,0.360,0.096,0.278,10.159,31.511
1747663772.61,-0.099,0.017,-0.091,0.418,0.378,0.045,0.524,10.373,31.560
1747663772.62,-0.002,-0.047,-0.114,0.393,0.265,-0.006,0.755,10.562,31.528
1747663772.63,0.076,-0.065,-0.149,0.340,0.074,-0.060,0.958,10.662,31.526
1747663772.64,0.131,-0.047,-0.151,0.318,-0.117,-0.090,1.133,10.649,31.448
1747663772.65,0.097,-0.024,-0.084,0.320,-0.175,-0.086,1.303,10.562,31.415
1747663772.66,-0.001,0.034,-0.020,0.313,-0.118,-0.079,1.473,10.478,31.335
1747663772.67,-0.093,0.112,0.009,0.316,0.007,-0.069,1.640,10.446,31.289
1747663772.68,-0.134,0.158,0.039,0.325,0.167,-0.067,1.815,10.498,31.218
1747663772.69,-0.115,0.121,0.015,0.291,0.258,-0.064,1.982,10.626,31.177
1747663772.70,-0.043,0.009,-0.058,0.255,0.227,-0.053,2.129,10.771,31.115
1747663772.71,0.056,-0.096,-0.091,0.225,0.139,-0.054,2.258,10.879,31.078
1747663772.72,0.160,-0.155,-0.088,0.217,0.014,-0.072,2.374,10.928,31.019
1747663772.73,0.215,-0.154,-0.065,0.201,-0.142,-0.089,2.484,10.894,30.976
1747663772.74,0.190,-0.098,-0.031,0.184,-0.225,-0.081,2.581,10.790,30.906
1747663772.75,0.105,-0.043,0.020,0.179,-0.225,-0.036,2.677,10.662,30.882
1747663772.76,-0.019,-0.010,0.031,0.149,-0.134,-0.006,2.767,10.558,30.853
1747663772.77,-0.089,0.016,0.002,0.137,-0.007,0.022,2.847,10.519,30.848
1747663772.78,-0.096,0.024,-0.006,0.140,0.105,0.036,2.929,10.546,30.852
1747663772.79,-0.067,0.011,0.004,0.144,0.183,0.043,3.012,10.629,30.888
1747663772.80,-0.002,-0.030,-0.004,0.147,0.176,0.031,3.099,10.735,30.893
1747663772.81,0.058,-0.058,-0.016,0.138,0.117,0.024,3.180,10.819,30.929
1747663772.82,0.113,-0.070,-0.018,0.137,0.036,0.027,3.261,10.866,30.928
1747663772.83,0.129,-0.074,-0.007,0.132,-0.094,0.056,3.341,10.849,30.961
1747663772.84,0.090,-0.040,-0.014,0.140,-0.150,0.073,3.424,10.774,30.983
1747663772.85,0.035,0.023,-0.005,0.169,-0.105,0.085,3.519,10.695,31.041
1747663772.86,-0.011,0.051,-0.007,0.156,-0.042,0.089,3.620,10.651,31.072
1747663772.87,-0.038,0.023,-0.021,0.147,0.026,0.099,3.714,10.642,31.143
1747663772.88,-0.028,-0.015,-0.011,0.135,0.103,0.107,3.806,10.678,31.186
1747663772.89,0.012,-0.042,-0.005,0.126,0.095,0.106,3.890,10.737,31.255
1747663772.90,0.053,-0.056,-0.022,0.131,0.041,0.100,3.974,10.774,31.299
1747663772.91,0.088,-0.038,-0.010,0.155,0.015,0.117,4.066,10.792,31.363
1747663772.92,0.084,0.010,0.001,0.150,-0.041,0.129,4.166,10.783,31.416
1747663772.93,0.029,0.049,-0.022,0.132,-0.030,0.135,4.259,10.757,31.499
1747663772.94,0.003,0.040,-0.038,0.102,-0.002,0.131,4.335,10.744,31.562
1747663772.95,-0.011,0.016,-0.067,0.100,-0.013,0.117,4.402,10.733,31.650
1747663772.96,-0.025,0.006,-0.066,0.108,0.012,0.070,4.472,10.727,31.692
1747663772.97,-0.029,-0.001,-0.021,0.113,0.023,0.013,4.539,10.738,31.732
1747663772.98,-0.023,-0.015,-0.020,0.123,-0.013,-0.031,4.607,10.745,31.713
1747663772.99,-0.025,-0.003,-0.006,0.134,-0.004,-0.071,4.676,10.748,31.701
1747663773.00,-0.032,0.040,-0.000,0.100,0.002,-0.089,4.732,10.760,31.640
1747663773.01,-0.034,0.047,-0.079,0.060,-0.024,-0.078,4.762,10.760,31.619
1747663773.02,-0.029,0.009,-0.126,0.023,0.004,-0.077,4.773,10.753,31.572
1747663773.03,-0.013,-0.026,-0.115,-0.010,0.077,-0.107,4.765,10.781,31.543
1747663773.04,-0.005,-0.031,-0.134,-0.029,0.072,-0.138,4.741,10.830,31.475
1747663773.05,-0.021,-0.010,-0.149,-0.064,0.026,-0.135,4.701,10.862,31.423
1747663773.06,-0.023,-0.018,-0.105,-0.124,-0.003,-0.124,4.635,10.873,31.360
1747663773.07,0.002,-0.048,-0.062,-0.164,-0.034,-0.129,4.541,10.864,31.341
1747663773.08,0.048,-0.056,-0.051,-0.210,-0.047,-0.154,4.420,10.844,31.278
1747663773.09,0.121,-0.057,-0.077,-0.255,-0.023,-0.138,4.273,10.827,31.247
1747663773.10,0.141,-0.047,-0.130,-0.316,0.011,-0.113,4.100,10.825,31.206
1747663773.11,0.112,-0.035,-0.172,-0.392,0.040,-0.046,3.894,10.840,31.231
1747663773.12,0.070,-0.029,-0.176,-0.498,0.066,0.028,3.644,10.867,31.275
1747663773.13,0.065,-0.022,-0.146,-0.573,0.086,0.069,3.348,10.907,31.398
1747663773.14,0.117,-0.024,-0.124,-0.645,0.067,0.091,3.014,10.945,31.510
1747663773.15,0.176,-0.045,-0.103,-0.701,0.012,0.108,2.648,10.962,31.678
1747663773.16,0.191,-0.073,-0.083,-0.767,-0.047,0.122,2.249,10.946,31.823
1747663773.17,0.162,-0.096,-0.093,-0.801,-0.074,0.134,1.822,10.905,32.033
1747663773.18,0.104,-0.096,-0.117,-0.880,-0.044,0.139,1.367,10.863,32.200
1747663773.19,0.041,-0.062,-0.140,-0.944,0.037,0.128,0.868,10.857,32.428
1747663773.20,-0.001,-0.024,-0.144,-0.993,0.103,0.107,0.336,10.897,32.599
1747663773.21,-0.034,0.016,-0.109,-1.044,0.128,0.097,-0.224,10.965,32.826
1747663773.22,-0.028,0.037,-0.115,-1.088,0.078,0.087,-0.811,11.027,32.994
1747663773.23,0.002,0.045,-0.121,-1.147,0.001,0.077,-1.428,11.053,33.222
1747663773.24,0.040,0.030,-0.121,-1.195,-0.076,0.054,-2.076,11.036,33.389
1747663773.25,0.058,-0.020,-0.141,-1.216,-0.119,0.036,-2.749,10.985,33.603
1747663773.26,0.028,-0.068,-0.119,-1.190,-0.125,0.032,-3.419,10.924,33.753
1747663773.27,-0.044,-0.069,-0.077,-1.218,-0.065,-0.025,-4.092,10.874,33.954
1747663773.28,-0.095,-0.039,-0.050,-1.218,0.052,-0.103,-4.783,10.880,34.048
1747663773.29,-0.135,-0.023,-0.039,-1.237,0.061,-0.148,-5.484,10.919,34.172
1747663773.30,-0.179,-0.024,-0.048,-1.266,0.082,-0.152,-6.203,10.963,34.223
1747663773.31,-0.135,-0.038,-0.039,-1.297,0.183,-0.152,-6.937,11.044,34.336
1747663773.32,-0.030,-0.040,-0.012,-1.325,0.222,-0.165,-7.691,11.172,34.391
1747663773.33,0.065,-0.040,-0.023,-1.342,0.182,-0.134,-8.454,11.299,34.527
1747663773.34,0.129,-0.042,-0.043,-1.381,0.148,-0.105,-9.230,11.405,34.616
1747663773.35,0.153,-0.041,-0.055,-1.394,0.119,-0.104,-10.019,11.500,34.791
1747663773.36,0.117,-0.044,-0.047,-1.406,0.057,-0.099,-10.815,11.569,34.895
1747663773.37,0.042,-0.048,0.007,-1.398,0.070,-0.118,-11.611,11.622,35.098
1747663773.38,-0.031,-0.048,0.044,-1.416,0.093,-0.154,-12.413,11.688,35.187
1747663773.39,-0.086,-0.060,0.009,-1.422,0.130,-0.183,-13.226,11.765,35.357
1747663773.40,-0.077,-0.076,-0.010,-1.422,0.191,-0.192,-14.043,11.871,35.420
1747663773.41,-0.041,-0.074,-0.010,-1.434,0.228,-0.190,-14.863,12.008,35.587
1747663773.42,-0.020,-0.054,-0.015,-1.435,0.224,-0.196,-15.689,12.158,35.653
1747663773.43,-0.029,-0.026,-0.018,-1.431,0.176,-0.204,-16.512,12.290,35.813
1747663773.44,-0.046,-0.001,-0.008,-1.460,0.138,-0.208,-17.344,12.398,35.962
1747663773.45,-0.030,0.008,0.006,-1.454,0.129,-0.215,-18.183,12.494,36.027
1747663773.46,-0.008,-0.004,0.012,-1.438,0.099,-0.234,-19.018,12.578,36.164
1747663773.47,-0.006,-0.034,0.012,-1.416,0.076,-0.239,-19.843,12.642,36.211
1747663773.48,-0.006,-0.081,-0.002,-1.425,0.100,-0.240,-20.662,12.708,36.319
1747663773.49,-0.018,-0.121,0.002,-1.429,0.120,-0.254,-21.489,12.789,36.364
1747663773.50,-0.037,-0.143,0.016,-1.415,0.136,-0.276,-22.315,12.874,36.459
1747663773.51,-0.049,-0.138,0.052,-1.425,0.136,-0.301,-23.141,12.961,36.480
1747663773.52,-0.054,-0.106,0.063,-1.440,0.171,-0.310,-23.978,13.050,36.551
1747663773.53,-0.014,-0.069,0.044,-1.430,0.220,-0.310,-24.817,13.170,36.565
1747663773.54,0.001,-0.029,-0.012,-1.421,0.191,-0.307,-25.651,13.296,36.645
1747663773.55,-0.010,-0.008,-0.045,-1.392,0.184,-0.295,-26.472,13.412,36.665
1747663773.56,-0.007,-0.013,-0.037,-1.385,0.183,-0.293,-27.280,13.527,36.744
1747663773.57,-0.004,-0.036,-0.014,-1.389,0.180,-0.284,-28.089,13.644,36.774
1747663773.58,-0.001,-0.060,0.016,-1.398,0.158,-0.279,-28.900,13.759,36.874
1747663773.59,-0.001,-0.069,0.045,-1.397,0.158,-0.278,-29.713,13.870,36.916
1747663773.60,0.011,-0.061,0.047,-1.408,0.159,-0.275,-30.527,13.983,37.019
1747663773.61,0.030,-0.052,0.018,-1.438,0.174,-0.260,-31.353,14.107,37.076
1747663773.62,0.051,-0.039,-0.001,-1.440,0.178,-0.235,-32.186,14.248,37.205
1747663773.63,0.063,-0.028,-0.039,-1.431,0.150,-0.214,-33.011,14.393,37.299
1747663773.64,0.063,-0.016,-0.025,-1.441,0.120,-0.197,-33.834,14.530,37.434
1747663773.65,0.063,-0.011,0.001,-1.431,0.130,-0.180,-34.656,14.671,37.558
1747663773.66,0.060,-0.004,0.008,-1.402,0.079,-0.170,-35.463,14.810,37.729
1747663773.67,0.025,0.005,0.017,-1.390,0.049,-0.171,-36.259,14.923,37.866
1747663773.68,-0.007,0.007,0.026,-1.364,0.072,-0.188,-37.045,15.037,38.022
1747663773.69,-0.035,-0.001,-0.002,-1.340,0.047,-0.207,-37.820,15.143,38.137
1747663773.70,-0.075,-0.022,-0.029,-1.348,0.037,-0.207,-38.590,15.232,38.277
1747663773.71,-0.077,-0.047,-0.029,-1.413,0.080,-0.208,-39.381,15.340,38.396
1747663773.72,-0.046,-0.065,-0.026,-1.445,0.141,-0.222,-40.203,15.489,38.543
1747663773.73,-0.025,-0.069,-0.003,-1.433,0.132,-0.238,-41.030,15.649,38.668
1747663773.74,-0.028,-0.045,0.013,-1.413,0.130,-0.247,-41.850,15.798,38.790
1747663773.75,-0.029,0.002,-0.001,-1.409,0.160,-0.259,-42.664,15.954,38.901
1747663773.76,-0.032,0.057,-0.017,-1.418,0.158,-0.279,-43.481,16.117,39.015
1747663773.77,-0.042,0.100,0.002,-1.436,0.134,-0.311,-44.311,16.264,39.106
1747663773.78,-0.041,0.120,0.046,-1.434,0.113,-0.319,-45.150,16.390,39.188
1747663773.79,-0.012,0.114,0.068,-1.396,0.079,-0.319,-45.977,16.503,39.265
1747663773.80,0.016,0.096,0.013,-1.367,0.038,-0.321,-46.785,16.586,39.324
1747663773.81,0.054,0.055,-0.040,-1.374,-0.009,-0.331,-47.588,16.643,39.390
1747663773.82,0.093,-0.005,-0.042,-1.384,-0.073,-0.333,-48.398,16.669,39.440
1747663773.83,0.106,-0.057,-0.013,-1.402,-0.123,-0.333,-49.215,16.663,39.508
1747663773.84,0.098,-0.075,0.020,-1.411,-0.134,-0.336,-50.041,16.646,39.569
1747663773.85,0.072,-0.067,0.039,-1.440,-0.134,-0.330,-50.873,16.630,39.647
1747663773.86,0.046,-0.052,0.060,-1.489,-0.082,-0.303,-51.727,16.649,39.731
1747663773.87,0.043,-0.036,0.090,-1.523,-0.081,-0.266,-52.598,16.725,39.878
1747663773.88,0.041,-0.007,0.068,-1.541,-0.176,-0.225,-53.477,16.810,40.033
1747663773.89,0.047,0.021,0.055,-1.510,-0.196,-0.219,-54.348,16.883,40.259
1747663773.90,0.054,0.038,0.061,-1.446,-0.205,-0.235,-55.195,16.944,40.431
1747663773.91,0.019,0.040,0.001,-1.380,-0.257,-0.267,-56.007,16.955,40.605
1747663773.92,-0.042,0.033,-0.049,-1.385,-0.274,-0.323,-56.810,16.905,40.685
1747663773.93,-0.088,0.014,-0.066,-1.361,-0.200,-0.404,-57.622,16.812,40.740
1747663773.94,-0.103,-0.016,-0.067,-1.369,-0.116,-0.477,-58.438,16.694,40.654
1747663773.95,-0.107,-0.041,-0.016,-1.426,-0.081,-0.499,-59.283,16.574,40.579
1747663773.96,-0.098,-0.055,0.028,-1.418,-0.007,-0.495,-60.146,16.479,40.439
1747663773.97,-0.053,-0.061,0.053,-1.397,0.072,-0.476,-60.994,16.428,40.359
1747663773.98,0.018,-0.061,0.078,-1.404,0.089,-0.411,-61.833,16.450,40.249
1747663773.99,0.076,-0.049,0.068,-1.376,0.080,-0.357,-62.658,16.530,40.284
1747663774.00,0.119,-0.029,0.017,-1.351,0.030,-0.337,-63.458,16.627,40.276
1747663774.01,0.122,-0.015,0.028,-1.400,0.012,-0.332,-64.263,16.720,40.367
1747663774.02,0.072,-0.011,0.026,-1.413,0.019,-0.329,-65.090,16.846,40.428
1747663774.03,-0.004,-0.021,-0.089,-1.339,0.027,-0.383,-65.901,16.933,40.513
1747663774.04,-0.054,-0.048,-0.146,-1.205,0.102,-0.434,-66.670,16.943,40.418
1747663774.05,-0.061,-0.053,-0.106,-1.067,0.108,-0.482,-67.357,16.855,40.254
1747663774.06,-0.108,-0.010,-0.017,-1.185,0.070,-0.531,-68.054,16.677,39.933
1747663774.07,-0.159,-0.026,0.030,-1.246,0.157,-0.502,-68.807,16.517,39.698
1747663774.08,-0.167,-0.086,0.022,-1.242,0.301,-0.464,-69.567,16.491,39.451
1747663774.09,-0.156,-0.089,0.077,-1.199,0.389,-0.496,-70.314,16.520,39.271
1747663774.10,-0.096,-0.062,0.037,-1.143,0.458,-0.518,-71.037,16.508,38.922
1747663774.11,0.011,-0.035,-0.044,-1.145,0.456,-0.472,-71.741,16.507,38.645
1747663774.12,0.096,-0.005,-0.015,-1.174,0.399,-0.399,-72.448,16.602,38.393
1747663774.13,0.130,0.008,0.017,-1.116,0.277,-0.342,-73.137,16.754,38.349
1747663774.14,0.135,0.002,-0.051,-1.061,0.182,-0.312,-73.783,16.885,38.247
1747663774.15,0.144,-0.026,-0.040,-1.086,0.204,-0.269,-74.415,17.059,38.318
1747663774.16,0.145,-0.059,0.054,-1.140,0.236,-0.214,-75.063,17.392,38.405
1747663774.17,0.096,-0.048,0.062,-1.244,0.132,-0.162,-75.743,17.908,38.826
1747663774.18,0.015,-0.031,-0.006,-1.240,0.048,-0.188,-76.454,18.489,39.255
1747663774.19,-0.013,-0.034,-0.054,-1.120,-0.015,-0.269,-77.135,18.898,39.662
1747663774.20,0.014,-0.020,-0.084,-1.055,-0.120,-0.330,-77.775,19.028,39.707
1747663774.21,0.047,-0.011,-0.003,-1.069,-0.163,-0.354,-78.412,18.998,39.761
1747663774.22,0.040,0.002,0.094,-1.004,-0.201,-0.351,-79.043,18.901,39.629
1747663774.23,-0.004,0.026,0.014,-0.895,-0.241,-0.326,-79.616,18.724,39.578
1747663774.24,-0.046,0.049,-0.058,-0.847,-0.225,-0.318,-80.146,18.503,39.339
1747663774.25,-0.079,0.042,-0.025,-0.840,-0.141,-0.333,-80.657,18.241,39.181
1747663774.26,-0.115,0.003,0.047,-0.870,-0.012,-0.327,-81.181,18.028,38.860
1747663774.27,-0.142,-0.043,0.070,-0.804,0.150,-0.313,-81.696,17.895,38.685
1747663774.28,-0.141,-0.078,0.029,-0.744,0.260,-0.287,-82.168,17.810,38.313
1747663774.29,-0.112,-0.074,0.007,-0.751,0.350,-0.254,-82.618,17.859,38.184
1747663774.30,-0.070,-0.044,0.029,-0.770,0.335,-0.222,-83.075,18.100,38.064
1747663774.31,-0.033,-0.019,0.006,-0.736,0.301,-0.197,-83.522,18.472,38.257
1747663774.32,0.012,-0.006,-0.028,-0.705,0.346,-0.195,-83.945,18.890,38.341
1747663774.33,0.044,-0.001,-0.018,-0.723,0.337,-0.207,-84.369,19.339,38.424
1747663774.34,0.061,0.022,-0.044,-0.653,0.275,-0.221,-84.783,19.683,38.593
1747663774.35,0.064,0.048,-0.077,-0.609,0.189,-0.221,-85.163,19.833,38.439
1747663774.36,0.064,0.054,-0.049,-0.569,0.158,-0.232,-85.524,19.846,38.358
1747663774.37,0.080,0.032,-0.021,-0.486,0.178,-0.226,-85.851,19.643,37.887
1747663774.38,0.084,-0.004,0.007,-0.474,0.123,-0.188,-86.146,19.431,37.588
1747663774.39,0.047,-0.044,0.049,-0.482,0.085,-0.164,-86.437,19.452,37.375
1747663774.40,0.006,-0.078,0.052,-0.481,0.040,-0.180,-86.728,19.467,37.352
1747663774.41,-0.011,-0.079,0.001,-0.476,-0.004,-0.202,-87.022,19.237,36.948
1747663774.42,0.012,-0.043,-0.037,-0.460,0.013,-0.207,-87.313,18.737,36.447
1747663774.43,0.069,0.005,-0.063,-0.437,0.049,-0.170,-87.592,18.257,35.781
1747663774.44,0.098,0.034,-0.058,-0.379,-0.005,-0.100,-87.839,18.277,35.785
1747663774.45,0.077,0.036,-0.107,-0.260,-0.135,-0.036,-88.025,18.870,36.255
1747663774.46,0.037,0.017,-0.127,-0.139,-0.195,-0.004,-88.135,19.635,37.118
1747663774.47,-0.009,-0.016,-0.065,-0.083,-0.163,-0.011,-88.193,20.080,37.502
1747663774.48,-0.045,-0.053,0.000,-0.082,-0.077,-0.036,-88.240,20.131,37.622
1747663774.49,-0.067,-0.068,0.013,-0.067,-0.016,-0.077,-88.292,19.621,36.961
1747663774.50,-0.081,-0.042,-0.030,-0.022,0.052,-0.122,-88.334,18.093,35.423
1747663774.51,-0.064,-0.007,-0.049,0.017,0.132,-0.152,-88.358,15.559,32.671
1747663774.52,-0.026,0.022,-0.009,0.053,0.103,-0.131,-88.358,12.626,29.664
1747663774.53,0.008,0.049,0.020,0.037,-0.079,-0.048,-88.341,10.692,27.560
1747663774.54,0.008,0.048,0.044,0.013,-0.154,-0.012,-88.330,10.046,26.987
1747663774.55,-0.001,0.013,0.054,-0.026,-0.084,-0.014,-88.332,9.718,26.570
1747663774.56,0.010,-0.026,0.056,-0.099,0.003,-0.004,-88.370,9.702,26.579
1747663774.57,0.007,-0.038,0.031,-0.128,0.096,-0.038,-88.439,9.653,26.344
1747663774.58,0.002,-0.033,0.026,-0.121,0.168,-0.079,-88.515,8.734,25.348
1747663774.59,0.005,-0.018,0.034,-0.095,0.152,-0.103,-88.583,6.937,23.305
1747663774.60,0.001,0.019,0.027,-0.037,0.051,-0.094,-88.626,4.750,21.055
1747663774.61,-0.008,0.046,0.021,-0.015,-0.142,-0.057,-88.643,2.980,19.151
1747663774.62,-0.038,0.052,0.002,-0.004,-0.286,-0.038,-88.654,1.871,18.168
1747663774.63,-0.068,0.039,-0.030,-0.011,-0.267,-0.058,-88.661,0.530,16.839
1747663774.64,-0.065,0.018,-0.027,-0.029,-0.125,-0.080,-88.679,-1.229,15.196
1747663774.64,-0.044,-0.007,0.005,-0.062,0.089,-0.085,-88.707,-3.251,13.046
1747663774.65,-0.028,-0.021,0.052,-0.110,0.216,-0.076,-88.758,-5.379,10.827
1747663774.66,-0.027,-0.019,0.047,-0.093,0.231,-0.061,-88.818,-7.336,8.593
1747663774.68,-0.015,-0.011,0.024,-0.048,0.198,-0.037,-88.858,-8.853,6.953
1747663774.68,0.008,-0.016,0.047,-0.042,0.113,0.014,-88.882,-9.357,6.224
1747663774.69,0.014,-0.028,0.080,-0.087,0.048,0.034,-88.919,-9.178,6.358
1747663774.71,0.011,-0.018,0.084,-0.107,-0.002,0.022,-88.971,-9.211,6.176
1747663774.71,0.020,-0.013,0.047,-0.087,-0.019,0.005,-89.022,-9.720,5.673
1747663774.72,0.046,-0.004,0.033,-0.048,-0.006,-0.012,-89.058,-10.642,4.619
1747663774.73,0.061,0.012,0.035,0.000,-0.010,-0.018,-89.076,-11.663,3.600
1747663774.74,0.044,0.016,0.017,0.057,-0.107,-0.006,-89.063,-12.213,2.944
1747663774.75,0.010,0.010,-0.023,0.106,-0.158,-0.015,-89.017,-12.148,3.087
1747663774.76,-0.009,0.010,-0.008,0.093,-0.156,-0.017,-88.962,-12.131,3.072
1747663774.77,-0.014,-0.002,0.025,0.072,-0.159,0.013,-88.927,-11.843,3.450
1747663774.78,-0.014,-0.017,0.023,0.104,-0.139,0.036,-88.894,-10.708,4.550
1747663774.79,-0.013,-0.022,0.026,0.148,-0.110,0.056,-88.839,-8.707,6.621
1747663774.80,-0.007,-0.020,0.045,0.194,-0.119,0.077,-88.759,-5.952,9.322
1747663774.81,-0.001,-0.012,0.040,0.257,-0.139,0.097,-88.646,-2.769,12.579
1747663774.82,0.003,0.001,0.038,0.298,-0.157,0.108,-88.494,0.070,15.383
1747663774.83,-0.008,0.013,0.045,0.339,-0.172,0.092,-88.309,1.975,17.383
1747663774.84,-0.017,0.011,0.033,0.418,-0.159,0.077,-88.093,3.010,18.398
1747663774.85,-0.007,0.001,0.014,0.498,-0.138,0.065,-87.841,3.513,18.986
1747663774.86,-0.003,-0.004,0.003,0.543,-0.128,0.061,-87.556,3.718,19.153
1747663774.87,-0.003,0.004,0.011,0.563,-0.129,0.076,-87.253,3.912,19.419
1747663774.88,-0.009,0.027,0.011,0.558,-0.220,0.126,-86.930,4.466,19.970
1747663774.89,-0.022,0.030,0.016,0.554,-0.319,0.163,-86.607,5.323,20.985
1747663774.90,-0.054,0.007,0.042,0.560,-0.309,0.148,-86.281,6.083,21.834
1747663774.91,-0.064,-0.026,0.096,0.561,-0.167,0.137,-85.954,6.604,22.496
1747663774.92,-0.036,-0.053,0.118,0.573,-0.014,0.150,-85.623,7.129,22.976
1747663774.93,-0.010,-0.052,0.092,0.577,0.087,0.169,-85.285,7.756,23.581
1747663774.94,0.002,-0.017,0.076,0.595,0.067,0.170,-84.941,8.394,24.091
1747663774.95,-0.010,0.030,0.030,0.653,-0.006,0.141,-84.576,8.800,24.481
1747663774.96,-0.031,0.058,0.030,0.705,-0.124,0.119,-84.181,8.898,24.524
1747663774.97,-0.043,0.048,0.070,0.708,-0.226,0.120,-83.770,8.834,24.564
1747663774.98,-0.038,0.012,0.101,0.713,-0.250,0.127,-83.359,8.770,24.558
1747663774.99,-0.035,-0.022,0.084,0.692,-0.335,0.150,-82.949,8.740,24.693
1747663775.00,-0.038,-0.043,0.029,0.696,-0.411,0.162,-82.545,8.751,24.847
1747663775.01,-0.026,-0.042,-0.024,0.712,-0.386,0.142,-82.133,8.712,25.039
1747663775.02,0.003,-0.028,-0.005,0.741,-0.346,0.137,-81.712,8.611,25.074
1747663775.03,0.045,-0.015,0.027,0.837,-0.287,0.157,-81.256,8.544,25.189
1747663775.04,0.073,0.009,0.044,0.952,-0.294,0.195,-80.735,8.529,25.273
1747663775.05,0.076,0.040,0.019,0.999,-0.332,0.255,-80.161,8.606,25.532
1747663775.06,0.067,0.042,0.054,0.979,-0.315,0.316,-79.576,8.840,25.896
1747663775.07,0.024,0.011,0.076,0.916,-0.176,0.351,-79.010,9.250,26.458
1747663775.08,-0.055,-0.031,0.090,0.843,-0.110,0.354,-78.482,9.764,27.006
1747663775.09,-0.131,-0.044,0.036,0.823,-0.100,0.337,-77.981,10.244,27.561
1747663775.10,-0.137,-0.032,-0.016,0.850,0.038,0.306,-77.478,10.653,27.970
1747663775.11,-0.078,-0.009,0.018,0.873,0.134,0.288,-76.964,11.036,28.306
1747663775.12,-0.013,0.007,0.018,0.973,0.076,0.303,-76.415,11.365,28.549
1747663775.13,0.032,0.014,-0.037,1.041,-0.028,0.345,-75.812,11.644,28.825
1747663775.14,0.057,0.012,-0.030,1.028,0.042,0.359,-75.191,11.943,29.105
1747663775.15,0.018,0.007,0.050,1.031,0.148,0.308,-74.577,12.240,29.352
1747663775.16,-0.105,0.010,0.001,1.007,0.088,0.248,-73.972,12.416,29.426
1747663775.17,-0.224,0.023,-0.057,0.938,0.068,0.216,-73.401,12.479,29.454
1747663775.18,-0.249,0.020,-0.009,0.903,0.249,0.195,-72.864,12.567,29.450
1747663775.19,-0.181,0.009,0.051,0.897,0.411,0.180,-72.338,12.735,29.422
1747663775.20,-0.072,0.008,0.017,0.913,0.461,0.175,-71.814,12.934,29.365
1747663775.21,0.061,-0.007,-0.016,0.964,0.481,0.208,-71.267,13.161,29.317
1747663775.22,0.154,-0.030,0.015,1.005,0.385,0.236,-70.690,13.398,29.301
1747663775.23,0.142,-0.051,-0.009,1.041,0.186,0.241,-70.086,13.550,29.288
1747663775.24,0.071,-0.053,-0.072,0.917,0.088,0.252,-69.507,13.632,29.287
1747663775.25,0.008,-0.031,-0.034,0.826,0.197,0.251,-68.991,13.773,29.379
1747663775.26,-0.047,0.003,-0.014,0.793,0.269,0.192,-68.512,13.947,29.415
1747663775.27,-0.085,0.026,0.006,0.802,0.200,0.160,-68.049,14.046,29.399
1747663775.28,-0.047,0.012,-0.030,0.869,0.220,0.157,-67.563,14.093,29.322
1747663775.29,0.031,-0.035,-0.038,0.907,0.229,0.170,-67.048,14.142,29.243
1747663775.30,0.072,-0.091,-0.061,0.969,0.183,0.191,-66.506,14.192,29.168
1747663775.31,0.067,-0.116,-0.116,1.086,0.127,0.174,-65.910,14.183,29.086
1747663775.32,0.062,-0.098,-0.135,1.183,0.144,0.153,-65.260,14.107,28.922
1747663775.33,0.061,-0.066,-0.076,1.206,0.227,0.173,-64.567,14.043,28.750
1747663775.34,0.034,-0.040,-0.024,0.968,0.288,0.245,-63.930,14.112,28.662
1747663775.35,-0.033,-0.038,-0.002,0.751,0.374,0.304,-63.421,14.371,28.762
1747663775.36,-0.099,-0.051,-0.043,0.676,0.519,0.288,-62.985,14.752,28.902
1747663775.37,-0.087,-0.060,0.015,0.616,0.573,0.288,-62.588,15.189,29.054
1747663775.38,0.036,-0.068,0.067,0.672,0.491,0.354,-62.191,15.645,29.222
1747663775.39,0.209,-0.071,-0.011,0.791,0.243,0.428,-61.727,16.054,29.468
1747663775.40,0.303,-0.054,-0.100,0.982,-0.108,0.426,-61.177,16.270,29.673
1747663775.41,0.287,-0.023,-0.108,1.226,-0.308,0.341,-60.505,16.207,29.775
1747663775.42,0.200,-0.001,-0.017,1.299,-0.319,0.214,-59.762,15.935,29.677
1747663775.43,0.069,-0.008,0.094,1.210,-0.180,0.167,-59.037,15.627,29.508
1747663775.44,-0.056,-0.021,0.078,0.988,-0.065,0.248,-58.401,15.469,29.398
1747663775.45,-0.195,-0.036,-0.033,0.820,-0.038,0.330,-57.860,15.477,29.480
1747663775.46,-0.295,-0.068,-0.034,0.627,0.059,0.401,-57.406,15.618,29.647
1747663775.47,-0.179,-0.053,0.083,0.583,0.238,0.481,-57.012,15.944,29.977
1747663775.48,0.039,0.024,0.069,0.641,0.055,0.524,-56.597,16.319,30.306
1747663775.49,0.157,0.111,-0.005,0.741,-0.336,0.501,-56.136,16.498,30.660
1747663775.50,0.195,0.171,-0.068,0.900,-0.655,0.408,-55.616,16.387,30.873
1747663775.51,0.141,0.185,-0.062,1.061,-0.809,0.262,-55.022,16.002,30.980
1747663775.52,0.003,0.148,0.009,1.165,-0.801,0.117,-54.380,15.440,30.861
1747663775.53,-0.133,0.095,0.008,1.241,-0.566,0.021,-53.704,14.843,30.673
1747663775.54,-0.216,0.042,0.006,1.173,-0.218,-0.021,-53.032,14.378,30.372
1747663775.55,-0.274,-0.033,0.063,0.985,0.118,0.036,-52.434,14.154,30.187
1747663775.56,-0.294,-0.118,0.094,0.857,0.376,0.137,-51.915,14.195,30.056
1747663775.57,-0.256,-0.152,0.039,0.798,0.520,0.250,-51.432,14.445,30.111
1747663775.58,-0.172,-0.114,-0.053,0.771,0.609,0.282,-50.958,14.817,30.171
1747663775.59,-0.062,-0.019,-0.018,0.758,0.623,0.289,-50.496,15.228,30.329
1747663775.60,0.042,0.077,0.043,0.803,0.532,0.218,-50.030,15.591,30.364
1747663775.61,0.111,0.146,0.043,0.904,0.321,0.191,-49.532,15.810,30.406
1747663775.62,0.123,0.165,-0.004,0.993,0.153,0.192,-48.979,15.895,30.341
1747663775.63,0.120,0.157,-0.046,1.046,0.022,0.162,-48.391,15.874,30.312
1747663775.64,0.121,0.105,-0.043,1.067,0.017,0.124,-47.787,15.783,30.182
1747663775.65,0.103,0.015,0.050,1.050,0.043,0.099,-47.188,15.690,30.079
1747663775.66,0.062,-0.082,0.058,1.005,0.024,0.120,-46.603,15.604,29.931
1747663775.67,0.044,-0.154,-0.003,0.870,-0.035,0.136,-46.066,15.524,29.886
1747663775.68,0.049,-0.182,-0.084,0.758,0.016,0.150,-45.598,15.467,29.821
1747663775.69,0.094,-0.195,-0.016,0.733,0.104,0.174,-45.165,15.477,29.863
1747663775.70,0.117,-0.162,0.087,0.759,0.147,0.213,-44.726,15.547,29.853
1747663775.71,0.104,-0.068,0.108,0.782,0.069,0.289,-44.264,15.630,29.947
1747663775.72,0.076,0.042,0.046,0.862,-0.051,0.381,-43.763,15.692,30.029
1747663775.73,0.074,0.138,-0.029,0.989,-0.123,0.429,-43.192,15.718,30.231
1747663775.74,0.078,0.176,-0.018,1.070,-0.096,0.404,-42.558,15.718,30.327
1747663775.75,0.047,0.139,0.083,1.076,-0.028,0.323,-41.909,15.713,30.462
1747663775.76,-0.008,0.041,0.072,1.027,0.011,0.255,-41.284,15.706,30.456
1747663775.77,-0.063,-0.092,-0.064,0.981,-0.017,0.203,-40.698,15.681,30.495
1747663775.78,-0.081,-0.199,-0.164,0.889,-0.038,0.198,-40.150,15.631,30.448
1747663775.79,0.002,-0.252,-0.108,0.795,0.104,0.228,-39.656,15.637,30.512
1747663775.80,0.106,-0.229,0.034,0.774,0.092,0.268,-39.188,15.716,30.532
1747663775.81,0.107,-0.096,0.068,0.788,-0.038,0.328,-38.714,15.764,30.678
1747663775.82,0.057,0.108,0.064,0.829,-0.098,0.376,-38.215,15.778,30.766
1747663775.83,0.015,0.266,0.043,0.911,-0.189,0.381,-37.679,15.757,30.971
1747663775.84,-0.028,0.309,0.024,1.050,-0.267,0.338,-37.083,15.660,31.031
1747663775.85,-0.051,0.263,0.113,1.154,-0.232,0.246,-36.429,15.509,31.114
1747663775.86,-0.058,0.158,0.128,1.145,-0.163,0.162,-35.760,15.349,31.033
1747663775.87,-0.063,0.005,-0.082,1.028,-0.136,0.118,-35.139,15.205,31.012
1747663775.88,-0.091,-0.170,-0.168,0.940,-0.134,0.134,-34.580,15.068,30.915
1747663775.89,-0.075,-0.292,-0.052,0.920,0.061,0.178,-34.048,15.012,30.940
1747663775.90,-0.003,-0.309,0.081,0.936,0.109,0.188,-33.508,15.042,30.898
1747663775.91,0.006,-0.193,0.077,0.975,0.082,0.184,-32.953,15.072,30.949
1747663775.92,-0.004,0.010,0.073,1.017,0.047,0.185,-32.377,15.083,30.894
1747663775.93,-0.023,0.184,0.074,1.062,-0.094,0.189,-31.777,15.041,30.930
1747663775.94,-0.018,0.269,0.064,1.169,-0.237,0.184,-31.135,14.907,30.860
1747663775.95,0.024,0.275,0.051,1.226,-0.289,0.117,-30.448,14.699,30.863
1747663775.96,0.067,0.219,-0.031,1.226,-0.265,0.028,-29.759,14.462,30.704
1747663775.97,0.049,0.107,-0.098,1.176,-0.289,-0.041,-29.095,14.206,30.591
1747663775.98,-0.002,-0.033,-0.096,1.069,-0.222,0.027,-28.474,13.963,30.403
1747663775.99,0.035,-0.157,-0.030,0.986,-0.026,0.116,-27.897,13.838,30.385
1747663776.00,0.053,-0.191,0.018,0.949,0.109,0.184,-27.340,13.841,30.331
1747663776.01,0.010,-0.143,0.023,0.902,0.107,0.254,-26.795,13.906,30.449
1747663776.02,0.017,-0.050,0.019,0.880,0.067,0.313,-26.264,13.972,30.490
1747663776.03,0.100,0.075,0.056,0.924,-0.100,0.306,-25.722,13.993,30.665
1747663776.04,0.121,0.185,0.093,1.015,-0.315,0.278,-25.147,13.890,30.699
1747663776.05,0.119,0.223,0.079,1.129,-0.486,0.224,-24.518,13.655,30.791
1747663776.06,0.092,0.163,0.009,1.186,-0.514,0.159,-23.844,13.346,30.735
1747663776.07,0.032,0.030,-0.045,1.139,-0.499,0.147,-23.178,13.027,30.775
1747663776.08,-0.040,-0.121,-0.101,1.121,-0.448,0.166,-22.530,12.729,30.711
1747663776.09,-0.069,-0.254,-0.107,1.088,-0.301,0.217,-21.891,12.497,30.789
1747663776.10,-0.064,-0.307,-0.010,1.051,-0.110,0.256,-21.263,12.382,30.790
1747663776.11,-0.063,-0.268,0.067,0.983,-0.037,0.264,-20.665,12.353,30.922
1747663776.12,-0.035,-0.159,0.031,0.977,-0.067,0.290,-20.087,12.339,30.960
1747663776.13,0.056,-0.025,0.012,1.018,-0.162,0.307,-19.494,12.292,31.113
1747663776.14,0.126,0.099,0.069,1.067,-0.251,0.292,-18.876,12.187,31.291
1747663776.15,0.139,0.179,0.069,1.099,-0.315,0.249,-18.237,12.035,31.314
1747663776.16,0.051,0.190,0.012,1.112,-0.385,0.223,-17.591,11.832,31.442
1747663776.17,-0.082,0.125,-0.022,1.113,-0.330,0.243,-16.942,11.623,31.443
1747663776.18,-0.149,0.029,-0.003,1.117,-0.171,0.264,-16.289,11.484,31.599
1747663776.19,-0.156,-0.059,-0.012,1.078,-0.008,0.241,-15.644,11.438,31.618
1747663776.20,-0.108,-0.109,-0.048,1.075,0.113,0.201,-15.019,11.471,31.750
1747663776.21,-0.015,-0.148,-0.012,1.074,0.181,0.201,-14.392,11.555,31.739
1747663776.22,0.103,-0.147,-0.000,0.996,0.193,0.225,-13.789,11.663,31.876
1747663776.23,0.181,-0.065,0.001,0.967,0.100,0.282,-13.212,11.757,31.903
1747663776.24,0.153,0.117,0.037,1.001,-0.035,0.391,-12.625,11.792,32.103
1747663776.25,0.105,0.296,0.025,1.031,-0.183,0.490,-12.003,11.758,32.235
1747663776.26,0.059,0.398,0.025,1.056,-0.246,0.521,-11.363,11.664,32.527
1747663776.27,-0.015,0.403,0.033,1.119,-0.176,0.455,-10.697,11.571,32.680
1747663776.28,-0.125,0.293,-0.026,1.142,-0.137,0.335,-10.017,11.500,32.898
1747663776.29,-0.213,0.103,-0.097,1.198,-0.062,0.221,-9.331,11.445,32.921
1747663776.30,-0.256,-0.102,-0.059,1.245,0.069,0.120,-8.628,11.437,32.978
1747663776.31,-0.237,-0.216,-0.017,1.201,0.182,0.044,-7.930,11.499,32.883
1747663776.32,-0.150,-0.237,-0.049,1.100,0.231,-0.005,-7.284,11.602,32.864
1747663776.33,-0.028,-0.145,-0.068,1.048,0.236,-0.016,-6.687,11.722,32.732
1747663776.34,0.050,0.021,-0.092,1.031,0.165,0.020,-6.105,11.825,32.708
1747663776.35,0.035,0.170,-0.095,0.966,0.067,0.087,-5.539,11.880,32.620
1747663776.36,-0.020,0.281,-0.081,0.900,0.056,0.122,-5.007,11.906,32.668
1747663776.37,-0.037,0.264,-0.067,0.897,0.087,0.115,-4.491,11.944,32.628
1747663776.38,-0.001,0.121,-0.052,0.895,0.081,0.098,-3.979,11.992,32.665
1747663776.39,0.073,-0.034,-0.025,0.934,0.019,0.046,-3.466,12.016,32.600
1747663776.40,0.111,-0.167,0.015,0.997,-0.042,-0.026,-2.921,12.003,32.570
1747663776.41,0.114,-0.243,0.041,0.947,-0.086,-0.052,-2.382,11.959,32.431
1747663776.42,0.093,-0.203,0.038,0.911,-0.070,-0.021,-1.868,11.909,32.377
1747663776.43,0.033,-0.091,0.056,0.867,-0.011,0.050,-1.369,11.880,32.280
1747663776.44,-0.031,0.059,0.063,0.829,0.093,0.131,-0.885,11.901,32.304
1747663776.45,-0.055,0.156,0.021,0.821,0.170,0.199,-0.404,11.978,32.300
1747663776.46,-0.030,0.161,-0.094,0.783,0.207,0.211,0.070,12.087,32.391
1747663776.47,0.057,0.042,-0.174,0.724,0.198,0.142,0.512,12.207,32.401
1747663776.48,0.147,-0.132,-0.183,0.700,0.085,0.068,0.921,12.294,32.440
1747663776.49,0.164,-0.262,-0.135,0.660,-0.141,0.037,1.307,12.279,32.384
1747663776.50,0.097,-0.286,-0.083,0.615,-0.268,0.035,1.667,12.159,32.392
1747663776.51,0.008,-0.204,-0.019,0.613,-0.230,0.041,2.012,12.013,32.341
1747663776.52,-0.093,-0.058,0.061,0.624,-0.109,0.053,2.363,11.917,32.319
1747663776.53,-0.158,0.095,0.062,0.607,0.014,0.083,2.715,11.892,32.285
1747663776.54,-0.141,0.162,-0.021,0.620,0.172,0.115,3.069,11.945,32.309
1747663776.55,-0.090,0.124,-0.077,0.585,0.261,0.113,3.423,12.073,32.302
1747663776.56,-0.021,0.047,-0.130,0.530,0.242,0.085,3.745,12.223,32.335
1747663776.57,0.078,-0.033,-0.161,0.499,0.129,0.039,4.040,12.332,32.308
1747663776.58,0.147,-0.066,-0.131,0.461,-0.021,0.003,4.311,12.367,32.306
1747663776.59,0.175,-0.056,-0.095,0.427,-0.177,-0.016,4.557,12.313,32.249
1747663776.60,0.126,-0.027,-0.061,0.395,-0.221,-0.031,4.783,12.199,32.220
1747663776.61,0.043,-0.015,-0.051,0.382,-0.187,-0.021,4.996,12.088,32.158
1747663776.62,-0.033,-0.030,-0.079,0.342,-0.125,0.015,5.199,12.000,32.151
1747663776.63,-0.066,-0.023,-0.068,0.328,0.032,0.052,5.389,11.973,32.130
1747663776.64,-0.030,0.042,-0.048,0.296,0.157,0.058,5.572,12.033,32.162
1747663776.65,0.007,0.091,-0.084,0.241,0.176,0.077,5.729,12.130,32.166
1747663776.66,0.038,0.048,-0.075,0.203,0.128,0.108,5.864,12.217,32.248
1747663776.67,0.073,-0.010,-0.050,0.167,0.078,0.098,5.979,12.271,32.286
1747663776.68,0.141,-0.036,-0.057,0.137,-0.005,0.069,6.073,12.293,32.348
1747663776.69,0.176,-0.043,-0.067,0.124,-0.120,0.069,6.155,12.254,32.371
1747663776.70,0.133,-0.021,-0.062,0.115,-0.177,0.080,6.231,12.163,32.442
1747663776.71,0.055,0.004,-0.065,0.114,-0.152,0.086,6.306,12.063,32.475
1747663776.72,-0.038,0.016,-0.071,0.069,-0.069,0.078,6.367,11.994,32.565
1747663776.73,-0.081,0.010,-0.076,0.039,0.013,0.080,6.407,11.975,32.604
1747663776.74,-0.060,-0.000,-0.061,0.033,0.058,0.068,6.434,11.992,32.691
1747663776.75,-0.040,-0.004,-0.035,0.048,0.053,0.043,6.463,12.023,32.718
1747663776.76,-0.011,0.005,-0.014,0.065,0.027,-0.015,6.498,12.050,32.758
1747663776.77,0.032,0.013,-0.016,0.069,-0.069,-0.065,6.533,12.045,32.726
1747663776.78,0.065,-0.013,-0.041,0.061,-0.146,-0.080,6.562,11.990,32.714
1747663776.79,0.063,-0.048,-0.051,0.027,-0.146,-0.081,6.577,11.910,32.663
1747663776.80,0.030,-0.047,-0.054,0.004,-0.097,-0.092,6.574,11.845,32.651
1747663776.81,-0.034,-0.011,-0.061,-0.018,-0.051,-0.089,6.559,11.806,32.601
1747663776.82,-0.077,0.019,-0.039,-0.035,-0.027,-0.072,6.533,11.788,32.585
1747663776.83,-0.080,0.012,0.002,-0.037,-0.000,-0.064,6.505,11.782,32.552
1747663776.84,-0.048,-0.020,0.007,-0.040,0.016,-0.084,6.475,11.792,32.552
1747663776.85,-0.002,-0.085,-0.007,-0.025,-0.013,-0.114,6.444,11.800,32.499
1747663776.86,0.034,-0.135,0.018,0.011,-0.038,-0.118,6.426,11.795,32.461
1747663776.87,0.053,-0.120,0.054,0.029,-0.054,-0.121,6.430,11.780,32.392
1747663776.88,0.053,-0.076,0.008,-0.004,-0.071,-0.117,6.425,11.753,32.356
1747663776.89,0.064,-0.039,-0.035,-0.035,-0.089,-0.078,6.404,11.712,32.303
1747663776.90,0.040,0.002,-0.027,-0.051,-0.079,-0.051,6.370,11.660,32.313
1747663776.91,-0.003,0.022,-0.023,-0.050,-0.063,-0.033,6.336,11.616,32.296
1747663776.92,-0.038,0.015,-0.018,-0.035,-0.033,-0.031,6.310,11.587,32.324
1747663776.93,-0.020,-0.021,0.013,-0.015,0.005,-0.045,6.297,11.582,32.305
1747663776.94,0.034,-0.055,0.058,0.045,-0.006,-0.053,6.309,11.589,32.296
1747663776.95,0.048,-0.035,0.071,0.059,-0.003,-0.055,6.344,11.593,32.259
1747663776.96,0.026,0.016,0.039,0.028,0.031,-0.039,6.369,11.608,32.256
1747663776.97,0.009,0.051,-0.028,-0.003,0.031,0.013,6.376,11.630,32.247
1747663776.98,-0.010,0.072,-0.068,-0.021,0.050,0.052,6.373,11.651,32.283
1747663776.99,-0.010,0.076,-0.071,-0.035,0.076,0.049,6.362,11.685,32.316
1747663777.00,0.022,0.051,-0.069,-0.025,0.028,0.034,6.349,11.712,32.369
1747663777.01,0.052,0.013,-0.046,-0.011,-0.037,-0.001,6.341,11.706,32.380
1747663777.02,0.052,-0.034,-0.024,-0.004,-0.075,-0.029,6.340,11.676,32.400
1747663777.03,0.006,-0.066,-0.030,-0.019,-0.052,-0.050,6.332,11.645,32.379
1747663777.04,-0.044,-0.048,-0.045,-0.055,-0.015,-0.057,6.306,11.634,32.364
1747663777.05,-0.090,0.008,-0.066,-0.108,0.022,-0.062,6.247,11.638,32.340
1747663777.06,-0.104,0.033,-0.063,-0.124,0.046,-0.084,6.167,11.658,32.324
1747663777.07,-0.095,0.005,-0.064,-0.158,0.082,-0.128,6.071,11.697,32.312
1747663777.08,-0.033,-0.086,-0.114,-0.199,0.087,-0.181,5.950,11.755,32.246
1747663777.09,0.047,-0.173,-0.140,-0.241,0.077,-0.205,5.806,11.815,32.187
1747663777.10,0.115,-0.163,-0.145,-0.338,-0.002,-0.174,5.624,11.847,32.113
1747663777.11,0.127,-0.081,-0.169,-0.429,-0.066,-0.161,5.391,11.832,32.099
1747663777.12,0.089,0.015,-0.160,-0.501,-0.118,-0.077,5.118,11.777,32.084
1747663777.13,0.026,0.084,-0.149,-0.550,-0.071,-0.011,4.818,11.714,32.141
1747663777.14,-0.025,0.118,-0.139,-0.586,0.058,-0.038,4.499,11.704,32.195
1747663777.15,-0.011,0.093,-0.130,-0.628,0.118,-0.084,4.152,11.752,32.253
1747663777.16,0.037,0.003,-0.163,-0.669,0.098,-0.110,3.779,11.814,32.274
1747663777.17,0.059,-0.064,-0.153,-0.737,0.082,-0.125,3.373,11.864,32.325
1747663777.18,0.070,-0.058,-0.162,-0.833,0.046,-0.147,2.919,11.902,32.342
1747663777.19,0.061,-0.003,-0.172,-0.908,0.013,-0.132,2.414,11.914,32.408
1747663777.20,0.053,0.038,-0.182,-0.991,-0.014,-0.106,1.871,11.915,32.453
1747663777.21,0.053,0.046,-0.235,-1.082,-0.072,-0.116,1.279,11.888,32.563
1747663777.22,0.054,0.020,-0.224,-1.149,-0.092,-0.126,0.641,11.837,32.627
1747663777.23,0.062,-0.025,-0.139,-1.209,-0.093,-0.143,-0.034,11.784,32.737
1747663777.24,0.053,-0.063,-0.108,-1.273,-0.123,-0.159,-0.745,11.723,32.796
1747663777.25,0.043,-0.092,-0.101,-1.332,-0.147,-0.158,-1.492,11.646,32.917
1747663777.26,0.042,-0.111,-0.082,-1.378,-0.154,-0.160,-2.269,11.561,32.983
1747663777.27,0.059,-0.115,-0.074,-1.423,-0.142,-0.162,-3.071,11.481,33.124
1747663777.28,0.057,-0.101,-0.071,-1.456,-0.148,-0.164,-3.895,11.401,33.196
1747663777.29,0.041,-0.065,-0.069,-1.478,-0.120,-0.170,-4.736,11.330,33.340
1747663777.30,0.008,-0.029,-0.032,-1.526,-0.086,-0.165,-5.594,11.277,33.414
1747663777.31,-0.015,-0.033,-0.004,-1.568,-0.041,-0.144,-6.479,11.249,33.578
1747663777.32,0.010,-0.064,-0.014,-1.571,0.030,-0.128,-7.375,11.256,33.677
1747663777.33,0.046,-0.092,-0.001,-1.530,0.102,-0.133,-8.258,11.310,33.863
1747663777.34,0.042,-0.103,-0.008,-1.504,0.077,-0.135,-9.123,11.380,33.959
1747663777.35,0.009,-0.108,-0.010,-1.478,0.092,-0.134,-9.973,11.439,34.133
1747663777.36,-0.015,-0.098,0.065,-1.442,0.187,-0.149,-10.804,11.536,34.223
1747663777.37,-0.054,-0.073,0.079,-1.448,0.221,-0.214,-11.635,11.668,34.371
1747663777.38,-0.090,-0.069,0.025,-1.444,0.204,-0.238,-12.470,11.798,34.410
1747663777.39,-0.076,-0.083,-0.023,-1.467,0.224,-0.204,-13.309,11.930,34.541
1747663777.40,-0.028,-0.085,-0.041,-1.503,0.194,-0.167,-14.161,12.069,34.616
1747663777.41,-0.003,-0.061,-0.020,-1.497,0.149,-0.161,-15.020,12.191,34.793
1747663777.42,0.003,-0.039,0.015,-1.477,0.094,-0.179,-15.870,12.283,34.882
1747663777.43,-0.005,-0.029,0.021,-1.462,0.101,-0.216,-16.714,12.355,35.049
1747663777.44,-0.000,-0.036,0.016,-1.441,0.174,-0.276,-17.554,12.445,35.092
1747663777.45,0.004,-0.062,0.022,-1.403,0.226,-0.322,-18.384,12.565,35.181
1747663777.46,-0.015,-0.089,0.002,-1.401,0.216,-0.353,-19.205,12.687,35.166
1747663777.47,-0.045,-0.106,-0.029,-1.434,0.214,-0.352,-20.040,12.802,35.221
1747663777.48,-0.075,-0.120,-0.046,-1.466,0.233,-0.339,-20.892,12.928,35.213
1747663777.49,-0.102,-0.106,-0.024,-1.521,0.233,-0.320,-21.765,13.063,35.289
1747663777.50,-0.076,-0.070,-0.008,-1.552,0.229,-0.300,-22.661,13.207,35.319
1747663777.51,-0.017,-0.032,-0.012,-1.551,0.195,-0.288,-23.561,13.346,35.439
1747663777.52,0.040,-0.009,-0.025,-1.599,0.114,-0.285,-24.472,13.460,35.493
1747663777.53,0.086,-0.006,-0.026,-1.623,0.020,-0.296,-25.408,13.523,35.613
1747663777.54,0.136,-0.023,0.006,-1.588,0.007,-0.315,-26.340,13.549,35.663
1747663777.55,0.159,-0.037,0.082,-1.550,0.010,-0.347,-27.256,13.571,35.735
1747663777.56,0.095,-0.042,0.100,-1.536,-0.123,-0.340,-28.158,13.548,35.749
1747663777.57,0.002,-0.043,0.044,-1.579,-0.200,-0.275,-29.062,13.469,35.809
1747663777.58,-0.046,-0.042,0.028,-1.628,-0.144,-0.201,-29.986,13.413,35.902
1747663777.59,-0.054,-0.042,-0.013,-1.621,-0.034,-0.151,-30.912,13.431,36.072
1747663777.60,-0.046,-0.046,-0.053,-1.634,0.061,-0.123,-31.834,13.525,36.237
1747663777.61,-0.052,-0.051,-0.050,-1.664,0.134,-0.110,-32.764,13.681,36.450
1747663777.62,-0.077,-0.061,-0.018,-1.718,0.150,-0.078,-33.715,13.880,36.662
1747663777.63,-0.098,-0.074,0.015,-1.741,0.155,-0.054,-34.684,14.105,36.942
1747663777.64,-0.098,-0.077,0.053,-1.731,0.177,-0.051,-35.652,14.352,37.207
1747663777.65,-0.074,-0.059,0.077,-1.705,0.207,-0.088,-36.613,14.615,37.493
1747663777.66,-0.045,-0.024,0.067,-1.649,0.175,-0.149,-37.557,14.861,37.716
1747663777.67,-0.005,0.011,0.021,-1.609,0.126,-0.187,-38.480,15.061,37.924
1747663777.68,0.052,0.033,-0.007,-1.572,0.077,-0.217,-39.387,15.222,38.085
1747663777.69,0.092,0.038,-0.033,-1.516,0.023,-0.253,-40.274,15.337,38.248
1747663777.70,0.107,0.036,-0.030,-1.468,-0.009,-0.279,-41.135,15.410,38.352
1747663777.71,0.108,0.032,-0.017,-1.445,-0.035,-0.290,-41.981,15.455,38.469
1747663777.72,0.073,0.025,-0.024,-1.447,-0.084,-0.273,-42.820,15.480,38.556
1747663777.73,0.003,0.016,-0.007,-1.464,-0.106,-0.256,-43.660,15.495,38.681
1747663777.74,-0.070,-0.001,0.033,-1.488,-0.058,-0.251,-44.511,15.531,38.802
1747663777.75,-0.119,-0.038,0.055,-1.461,0.002,-0.260,-45.364,15.602,38.926
1747663777.76,-0.138,-0.084,0.006,-1.440,0.049,-0.261,-46.199,15.697,39.040
1747663777.76,-0.096,-0.117,-0.048,-1.470,0.174,-0.257,-47.038,15.848,39.151
1747663777.78,-0.013,-0.123,-0.021,-1.511,0.211,-0.263,-47.899,16.065,39.286
1747663777.78,0.032,-0.094,0.012,-1.490,0.138,-0.276,-48.765,16.265,39.427
1747663777.80,0.074,-0.031,0.028,-1.464,0.114,-0.293,-49.620,16.433,39.554
1747663777.80,0.099,0.052,0.062,-1.453,0.010,-0.322,-50.468,16.552,39.644
1747663777.82,0.066,0.110,0.032,-1.436,-0.142,-0.337,-51.313,16.580,39.731
1747663777.82,0.037,0.115,0.020,-1.418,-0.197,-0.351,-52.150,16.536,39.800
1747663777.83,0.037,0.078,0.060,-1.419,-0.232,-0.374,-52.985,16.455,39.851
1747663777.84,0.030,0.022,0.036,-1.407,-0.276,-0.383,-53.820,16.335,39.869
1747663777.85,0.039,-0.030,-0.014,-1.411,-0.267,-0.379,-54.653,16.200,39.897
1747663777.87,0.049,-0.060,-0.003,-1.424,-0.216,-0.381,-55.492,16.087,39.914
1747663777.87,0.025,-0.064,0.039,-1.406,-0.200,-0.378,-56.331,15.991,39.940
1747663777.88,-0.005,-0.052,0.042,-1.370,-0.144,-0.362,-57.151,15.911,39.937
1747663777.89,-0.007,-0.020,0.036,-1.380,-0.032,-0.318,-57.956,15.901,39.987
1747663777.90,0.005,0.017,0.069,-1.463,0.113,-0.278,-58.782,16.023,40.068
1747663777.91,0.006,0.038,0.124,-1.507,0.120,-0.257,-59.642,16.248,40.245
1747663777.92,-0.014,0.038,0.081,-1.496,-0.015,-0.266,-60.508,16.452,40.396
1747663777.93,-0.007,0.012,0.038,-1.441,-0.093,-0.300,-61.360,16.567,40.569
1747663777.94,0.030,-0.031,0.032,-1.365,-0.122,-0.350,-62.179,16.601,40.625
1747663777.95,0.036,-0.063,-0.010,-1.359,-0.183,-0.374,-62.981,16.555,40.672
1747663777.96,0.004,-0.062,-0.052,-1.352,-0.191,-0.401,-63.787,16.464,40.636
1747663777.97,-0.039,-0.037,-0.063,-1.342,-0.170,-0.431,-64.590,16.337,40.539
1747663777.98,-0.073,-0.014,0.004,-1.379,-0.091,-0.454,-65.407,16.207,40.478
1747663777.99,-0.061,0.002,0.089,-1.387,0.002,-0.457,-66.240,16.115,40.322
1747663778.00,-0.014,0.010,0.095,-1.310,0.066,-0.440,-67.053,16.057,40.234
1747663778.01,0.026,0.013,0.079,-1.284,0.003,-0.401,-67.828,16.015,40.065
1747663778.02,0.031,0.003,0.039,-1.313,-0.175,-0.363,-68.602,15.951,40.050
1747663778.03,0.028,-0.026,-0.029,-1.322,-0.222,-0.333,-69.379,15.870,40.002
1747663778.04,0.045,-0.065,-0.012,-1.355,-0.123,-0.343,-70.168,15.839,40.076
1747663778.05,0.048,-0.100,0.033,-1.270,-0.045,-0.353,-70.949,15.834,40.023
1747663778.06,0.027,-0.108,-0.049,-1.114,-0.003,-0.356,-71.658,15.792,39.995
1747663778.07,-0.009,-0.072,-0.111,-1.027,0.094,-0.372,-72.298,15.708,39.784
1747663778.08,-0.028,-0.023,-0.084,-1.025,0.246,-0.384,-72.920,15.647,39.617
1747663778.09,-0.036,0.016,-0.029,-1.065,0.321,-0.407,-73.554,15.624,39.323
1747663778.10,-0.041,0.039,0.039,-1.148,0.351,-0.406,-74.225,15.630,39.128
1747663778.11,-0.010,0.047,0.091,-1.160,0.330,-0.371,-74.925,15.697,38.879
1747663778.12,0.036,0.014,0.057,-1.089,0.323,-0.339,-75.598,15.805,38.797
1747663778.13,0.082,-0.054,0.063,-1.100,0.259,-0.287,-76.245,15.968,38.663
1747663778.14,0.100,-0.108,0.067,-1.116,0.122,-0.223,-76.898,16.224,38.812
1747663778.15,0.099,-0.136,-0.019,-1.053,-0.017,-0.176,-77.525,16.564,39.009
1747663778.16,0.090,-0.112,-0.105,-0.973,-0.058,-0.226,-78.108,16.805,39.280
1747663778.17,0.069,-0.037,-0.120,-0.978,-0.048,-0.247,-78.680,16.922,39.300
1747663778.18,0.037,0.023,-0.074,-0.935,-0.033,-0.280,-79.250,16.988,39.392
1747663778.19,-0.024,0.038,-0.085,-0.851,0.005,-0.296,-79.784,16.933,39.197
1747663778.20,-0.076,0.032,-0.083,-0.817,0.076,-0.298,-80.287,16.810,39.052
1747663778.21,-0.070,0.030,-0.038,-0.824,0.227,-0.289,-80.782,16.740,38.740
1747663778.22,-0.028,0.018,0.025,-0.884,0.326,-0.248,-81.293,16.857,38.694
1747663778.23,-0.009,-0.007,0.050,-0.884,0.230,-0.196,-81.816,17.212,38.738
1747663778.24,0.009,-0.068,-0.004,-0.805,0.084,-0.180,-82.308,17.620,39.061
1747663778.25,0.049,-0.121,-0.060,-0.715,-0.003,-0.178,-82.752,17.913,39.185
1747663778.26,0.084,-0.094,-0.103,-0.659,-0.038,-0.191,-83.156,18.071,39.356
1747663778.27,0.077,-0.037,-0.110,-0.670,-0.062,-0.194,-83.549,18.168,39.331
1747663778.28,0.026,0.001,-0.107,-0.636,-0.083,-0.214,-83.944,18.180,39.384
1747663778.29,-0.048,0.033,-0.115,-0.530,-0.097,-0.220,-84.300,17.992,39.082
1747663778.30,-0.116,0.075,-0.123,-0.417,-0.079,-0.249,-84.596,17.476,38.615
1747663778.31,-0.153,0.083,-0.084,-0.399,-0.009,-0.274,-84.859,16.623,37.617
1747663778.32,-0.138,0.043,0.000,-0.437,0.188,-0.264,-85.130,15.733,36.676
1747663778.33,-0.085,-0.014,0.086,-0.483,0.334,-0.233,-85.422,15.083,35.702
1747663778.34,-0.054,-0.064,0.087,-0.488,0.350,-0.208,-85.724,14.647,35.067
1747663778.35,-0.036,-0.085,0.032,-0.456,0.348,-0.178,-86.012,14.285,34.342
1747663778.36,-0.012,-0.065,0.008,-0.447,0.317,-0.137,-86.284,14.130,33.994
1747663778.37,0.008,-0.022,-0.001,-0.457,0.318,-0.114,-86.551,14.228,33.758
1747663778.38,0.020,0.015,0.032,-0.470,0.320,-0.114,-86.824,14.475,33.824
1747663778.39,0.016,0.044,0.047,-0.482,0.351,-0.093,-87.103,14.879,33.872
1747663778.40,0.009,0.048,0.039,-0.445,0.348,-0.090,-87.374,15.520,34.310
1747663778.41,-0.031,0.021,0.001,-0.377,0.218,-0.114,-87.614,15.866,34.341
1747663778.42,-0.047,-0.009,-0.018,-0.344,0.085,-0.148,-87.833,15.529,33.919
1747663778.43,0.001,-0.027,0.003,-0.306,0.001,-0.182,-88.037,14.322,32.495
1747663778.44,0.056,-0.022,0.002,-0.260,-0.101,-0.191,-88.220,12.234,30.433
1747663778.45,0.094,0.006,-0.036,-0.195,-0.163,-0.183,-88.367,9.430,27.516
1747663778.46,0.117,0.031,-0.044,-0.158,-0.238,-0.120,-88.478,6.663,24.861
1747663778.47,0.103,0.023,-0.027,-0.159,-0.344,-0.047,-88.572,5.049,23.232
1747663778.48,0.040,-0.011,-0.001,-0.183,-0.412,-0.015,-88.670,4.458,22.860
1747663778.49,-0.034,-0.041,0.027,-0.205,-0.380,-0.017,-88.782,4.185,22.639
1747663778.50,-0.076,-0.051,0.052,-0.207,-0.215,-0.041,-88.901,3.577,22.205
1747663778.51,-0.081,-0.042,0.073,-0.174,-0.058,-0.056,-89.013,2.313,20.837
1747663778.52,-0.071,-0.024,0.044,-0.093,0.001,-0.055,-89.092,0.529,19.066
1747663778.53,-0.049,0.013,-0.017,0.008,0.001,-0.038,-89.116,-1.180,17.198
1747663778.54,-0.013,0.057,-0.057,0.073,-0.072,-0.016,-89.090,-2.225,16.169
1747663778.55,0.012,0.070,-0.043,0.076,-0.198,0.028,-89.046,-2.000,16.313
1747663778.56,0.009,0.038,-0.022,0.032,-0.223,0.057,-89.014,-0.620,17.818
1747663778.57,-0.008,-0.013,0.027,-0.029,-0.143,0.044,-89.014,1.034,19.411
1747663778.58,-0.031,-0.039,0.039,-0.032,-0.031,0.010,-89.033,2.002,20.427
1747663778.59,-0.041,-0.018,0.026,0.001,0.022,-0.016,-89.047,1.577,19.851
1747663778.60,-0.034,0.008,0.033,0.027,0.103,-0.012,-89.041,0.892,19.132
1747663778.61,-0.023,0.020,0.079,0.019,0.151,0.011,-89.027,0.723,18.738
1747663778.62,-0.033,0.015,0.081,0.017,0.121,0.039,-89.012,1.603,19.537
1747663778.63,-0.058,0.003,0.036,0.071,0.081,0.039,-88.981,2.975,20.712
1747663778.64,-0.076,-0.009,-0.000,0.084,0.072,0.021,-88.930,3.830,21.525
1747663778.65,-0.069,-0.019,0.014,0.040,0.124,0.006,-88.899,4.099,21.597
1747663778.66,-0.038,-0.019,0.042,0.008,0.206,-0.005,-88.892,3.934,21.336
1747663778.67,0.008,-0.008,0.048,0.016,0.219,-0.009,-88.890,3.591,20.721
1747663778.68,0.047,0.007,0.031,0.048,0.170,-0.011,-88.879,3.177,20.195
1747663778.69,0.081,0.023,0.042,0.064,0.108,0.008,-88.856,2.975,19.777
1747663778.70,0.104,0.027,0.052,0.078,0.035,0.027,-88.822,3.302,20.061
1747663778.71,0.086,0.020,0.037,0.077,-0.093,0.033,-88.777,3.815,20.454
1747663778.72,0.046,0.011,0.024,0.041,-0.196,0.030,-88.743,4.272,20.996
1747663778.73,0.011,-0.001,0.025,0.041,-0.219,0.010,-88.722,4.391,21.097
1747663778.74,-0.010,-0.016,0.024,0.073,-0.201,-0.008,-88.692,4.072,20.901
1747663778.75,-0.008,-0.031,0.031,0.099,-0.136,-0.002,-88.647,3.714,20.505
1747663778.76,0.007,-0.030,0.050,0.135,-0.109,0.017,-88.583,3.763,20.621
1747663778.77,0.006,-0.009,0.019,0.191,-0.149,0.038,-88.493,4.268,21.076
1747663778.78,-0.009,0.015,-0.002,0.249,-0.155,0.052,-88.369,5.023,21.920
1747663778.79,-0.033,0.025,0.002,0.274,-0.119,0.054,-88.217,5.701,22.551
1747663778.80,-0.054,0.027,0.011,0.250,-0.080,0.033,-88.068,6.043,22.949
1747663778.81,-0.067,0.019,0.017,0.265,-0.065,0.027,-87.925,6.078,22.897
1747663778.82,-0.058,-0.006,0.008,0.285,-0.009,0.037,-87.770,6.059,22.902
1747663778.83,-0.024,-0.019,0.033,0.279,0.084,0.065,-87.609,6.330,23.039
1747663778.84,-0.003,-0.029,0.080,0.256,0.091,0.100,-87.458,7.102,23.757
1747663778.85,-0.010,-0.043,0.072,0.280,0.026,0.111,-87.303,8.041,24.555
1747663778.86,-0.013,-0.045,0.038,0.317,-0.048,0.120,-87.127,8.829,25.349
1747663778.87,-0.001,-0.035,0.029,0.339,-0.091,0.126,-86.938,9.386,25.845
1747663778.88,0.022,-0.033,0.023,0.385,-0.110,0.125,-86.723,9.994,26.405
1747663778.89,0.054,-0.015,-0.010,0.467,-0.123,0.117,-86.472,10.357,26.836
1747663778.90,0.090,0.014,-0.033,0.527,-0.156,0.119,-86.180,10.494,26.956
1747663778.91,0.107,0.038,-0.006,0.567,-0.253,0.138,-85.858,10.582,27.158
1747663778.92,0.082,0.041,0.016,0.589,-0.348,0.172,-85.517,10.752,27.409
1747663778.93,0.032,0.025,0.024,0.608,-0.375,0.179,-85.163,10.980,27.847
1747663778.94,-0.037,0.006,0.017,0.624,-0.366,0.171,-84.798,11.108,28.097
1747663778.95,-0.084,-0.017,0.027,0.608,-0.258,0.176,-84.433,11.232,28.404
1747663778.96,-0.089,-0.036,0.077,0.606,-0.174,0.180,-84.076,11.435,28.638
1747663778.97,-0.087,-0.049,0.068,0.706,-0.142,0.174,-83.690,11.574,28.868
1747663778.98,-0.062,-0.047,0.036,0.807,-0.129,0.176,-83.245,11.583,28.889
1747663778.99,-0.019,-0.017,-0.005,0.868,-0.066,0.188,-82.754,11.573,28.937
1747663779.00,0.004,0.023,-0.030,0.865,-0.073,0.203,-82.244,11.606,28.943
1747663779.01,-0.020,0.052,-0.006,0.850,-0.066,0.219,-81.743,11.705,29.086
1747663779.02,-0.054,0.055,0.055,0.864,-0.020,0.220,-81.237,11.830,29.179
1747663779.03,-0.075,0.045,0.067,0.838,0.024,0.231,-80.734,11.984,29.336
1747663779.04,-0.077,0.025,0.089,0.797,0.159,0.241,-80.248,12.233,29.488
1747663779.05,-0.071,0.011,0.115,0.733,0.194,0.240,-79.791,12.576,29.727
1747663779.06,-0.108,0.016,0.073,0.690,0.168,0.202,-79.368,12.876,29.881
1747663779.07,-0.118,0.017,0.035,0.737,0.294,0.160,-78.951,13.054,29.933
1747663779.08,-0.058,0.000,0.050,0.774,0.383,0.135,-78.511,13.168,29.798
1747663779.09,0.006,-0.012,0.034,0.847,0.279,0.139,-78.047,13.223,29.654
1747663779.10,0.044,-0.017,-0.067,0.966,0.091,0.154,-77.522,13.157,29.433
1747663779.11,0.082,-0.008,-0.108,1.025,-0.009,0.169,-76.945,13.003,29.259
1747663779.12,0.114,0.005,-0.041,1.005,0.149,0.179,-76.355,12.896,29.088
1747663779.13,0.122,0.008,0.060,0.963,0.334,0.187,-75.786,12.941,28.988
1747663779.14,0.067,0.013,0.112,0.930,0.363,0.212,-75.233,13.102,28.915
1747663779.15,-0.010,0.001,0.131,0.837,0.262,0.260,-74.709,13.337,28.970
1747663779.16,-0.068,-0.031,0.101,0.770,0.169,0.320,-74.228,13.656,29.148
1747663779.17,-0.080,-0.063,0.009,0.744,0.119,0.356,-73.761,14.033,29.457
1747663779.18,-0.021,-0.073,-0.010,0.697,0.177,0.380,-73.312,14.462,29.802
1747663779.19,0.118,-0.071,0.059,0.736,0.236,0.420,-72.862,14.975,30.208
1747663779.20,0.233,-0.043,0.059,0.935,0.024,0.439,-72.341,15.424,30.566
1747663779.21,0.241,0.017,-0.054,1.225,-0.267,0.410,-71.683,15.565,30.792
1747663779.22,0.182,0.048,-0.057,1.392,-0.362,0.408,-70.891,15.437,30.832
1747663779.23,0.090,0.041,0.041,1.273,-0.413,0.434,-70.086,15.301,30.919
1747663779.24,-0.063,0.032,-0.007,1.066,-0.588,0.374,-69.381,15.158,31.059
1747663779.25,-0.252,0.005,-0.102,0.987,-0.612,0.262,-68.773,14.866,31.128
1747663779.26,-0.333,-0.045,-0.102,0.940,-0.314,0.205,-68.206,14.553,31.078
1747663779.27,-0.317,-0.075,-0.022,0.891,0.101,0.199,-67.674,14.449,31.028
1747663779.28,-0.269,-0.070,0.030,0.953,0.303,0.200,-67.140,14.526,30.979
1747663779.29,-0.188,-0.047,0.007,1.089,0.303,0.212,-66.548,14.626,30.894
1747663779.30,-0.051,-0.035,-0.011,1.216,0.225,0.246,-65.877,14.686,30.806
1747663779.31,0.056,-0.024,0.002,1.264,0.117,0.247,-65.153,14.693,30.705
1747663779.32,0.088,-0.003,-0.025,1.261,0.089,0.205,-64.423,14.624,30.615
1747663779.33,0.102,0.008,-0.039,1.246,0.304,0.173,-63.700,14.571,30.438
1747663779.34,0.069,0.007,-0.005,1.084,0.433,0.178,-63.026,14.644,30.315
1747663779.35,-0.026,-0.015,0.038,0.955,0.430,0.245,-62.438,14.826,30.244
1747663779.36,-0.064,-0.049,0.011,0.876,0.498,0.358,-61.888,15.148,30.356
1747663779.37,-0.052,-0.051,0.017,0.843,0.551,0.409,-61.359,15.607,30.537
1747663779.38,-0.057,-0.032,-0.021,0.913,0.561,0.361,-60.818,16.067,30.738
1747663779.39,-0.043,-0.030,-0.056,0.997,0.492,0.312,-60.239,16.423,30.798
1747663779.40,0.003,-0.039,-0.040,1.098,0.386,0.288,-59.620,16.668,30.815
1747663779.41,0.041,-0.029,-0.066,1.217,0.358,0.207,-58.942,16.781,30.709
1747663779.42,0.057,0.008,-0.017,1.084,0.467,0.132,-58.275,16.850,30.536
1747663779.43,0.032,0.035,0.150,0.958,0.384,0.119,-57.707,16.942,30.346
1747663779.44,-0.006,0.030,0.051,0.963,0.214,0.199,-57.150,16.987,30.237
1747663779.45,0.063,0.016,0.010,0.799,0.179,0.305,-56.625,17.082,30.221
1747663779.46,0.175,0.005,0.065,0.767,0.118,0.356,-56.149,17.252,30.361
1747663779.47,0.256,-0.007,-0.009,0.815,-0.177,0.388,-55.654,17.343,30.482
1747663779.48,0.297,0.006,-0.057,0.902,-0.490,0.431,-55.120,17.264,30.668
1747663779.49,0.296,0.039,-0.058,1.059,-0.697,0.400,-54.513,17.013,30.780
1747663779.50,0.204,0.063,-0.054,1.112,-0.780,0.287,-53.858,16.597,30.844
1747663779.51,0.054,0.050,-0.028,1.142,-0.593,0.157,-53.207,16.113,30.741
1747663779.52,-0.091,-0.014,0.005,1.133,-0.284,0.087,-52.560,15.714,30.596
1747663779.53,-0.217,-0.098,0.010,0.989,-0.145,0.102,-51.960,15.446,30.409
1747663779.54,-0.251,-0.164,-0.061,0.844,0.120,0.178,-51.434,15.352,30.361
1747663779.55,-0.095,-0.188,-0.027,0.737,0.373,0.262,-50.970,15.508,30.370
1747663779.56,0.067,-0.156,-0.001,0.834,0.304,0.300,-50.499,15.758,30.491
1747663779.57,0.125,-0.077,-0.062,0.910,0.081,0.316,-49.967,15.906,30.542
1747663779.58,0.131,-0.002,-0.028,0.927,-0.054,0.306,-49.414,15.947,30.640
1747663779.59,0.115,0.035,-0.010,0.964,-0.189,0.237,-48.852,15.881,30.643
1747663779.60,0.067,0.046,-0.035,1.052,-0.249,0.182,-48.268,15.698,30.630
1747663779.61,0.020,0.055,-0.005,1.097,-0.144,0.144,-47.648,15.499,30.515
1747663779.62,-0.051,0.057,0.058,1.033,-0.060,0.133,-47.039,15.344,30.429
1747663779.63,-0.120,0.024,0.086,0.952,0.048,0.180,-46.468,15.273,30.337
1747663779.64,-0.133,-0.022,0.048,0.883,0.121,0.221,-45.933,15.294,30.348
1747663779.65,-0.099,-0.050,-0.006,0.830,0.176,0.260,-45.425,15.384,30.355
1747663779.66,-0.035,-0.046,0.013,0.834,0.168,0.263,-44.929,15.507,30.447
1747663779.67,0.031,-0.007,0.007,0.882,0.000,0.253,-44.417,15.568,30.461
1747663779.68,0.071,0.048,-0.039,0.927,-0.153,0.244,-43.882,15.518,30.537
1747663779.69,0.076,0.088,-0.040,1.020,-0.194,0.192,-43.314,15.393,30.501
1747663779.70,0.026,0.104,-0.044,1.132,-0.222,0.110,-42.696,15.199,30.462
1747663779.71,-0.029,0.091,-0.002,1.124,-0.120,0.028,-42.059,14.978,30.285
1747663779.72,-0.044,0.045,0.098,1.053,-0.036,-0.010,-41.457,14.797,30.138
1747663779.73,-0.037,-0.019,0.075,0.958,0.025,0.044,-40.898,14.669,29.952
1747663779.74,0.023,-0.078,0.024,0.835,0.104,0.154,-40.390,14.643,29.920
1747663779.75,0.091,-0.106,0.001,0.781,0.027,0.264,-39.915,14.689,29.921
1747663779.76,0.125,-0.097,-0.024,0.766,-0.110,0.376,-39.442,14.716,30.075
1747663779.77,0.140,-0.038,0.002,0.807,-0.198,0.439,-38.950,14.720,30.222
1747663779.78,0.105,0.052,-0.029,0.877,-0.294,0.414,-38.423,14.674,30.435
1747663779.79,0.014,0.110,-0.046,0.970,-0.335,0.343,-37.860,14.551,30.633
1747663779.80,-0.076,0.119,0.012,1.081,-0.247,0.266,-37.248,14.396,30.660
1747663779.81,-0.135,0.096,0.098,1.099,-0.140,0.200,-36.606,14.267,30.721
1747663779.82,-0.162,0.044,0.068,1.006,-0.000,0.167,-35.996,14.190,30.661
1747663779.83,-0.117,-0.035,-0.050,0.864,0.159,0.177,-35.453,14.210,30.722
1747663779.84,-0.041,-0.112,-0.093,0.752,0.193,0.258,-34.980,14.320,30.729
1747663779.85,0.014,-0.156,-0.055,0.723,0.147,0.377,-34.529,14.469,30.933
1747663779.86,0.068,-0.117,-0.023,0.711,0.022,0.443,-34.076,14.606,31.088
1747663779.87,0.080,0.002,-0.001,0.819,-0.124,0.405,-33.594,14.661,31.350
1747663779.88,0.041,0.111,-0.022,0.951,-0.208,0.297,-33.052,14.611,31.431
1747663779.89,-0.022,0.156,-0.016,1.018,-0.356,0.183,-32.472,14.446,31.534
1747663779.90,-0.077,0.140,0.003,1.042,-0.404,0.108,-31.882,14.180,31.456
1747663779.91,-0.093,0.084,0.121,1.076,-0.345,0.051,-31.284,13.903,31.443
1747663779.92,-0.081,0.004,0.032,1.024,-0.283,0.039,-30.691,13.651,31.302
1747663779.93,-0.040,-0.090,-0.145,0.901,-0.193,0.083,-30.148,13.458,31.311
1747663779.94,-0.029,-0.164,-0.157,0.805,-0.043,0.160,-29.662,13.362,31.259
1747663779.95,-0.054,-0.178,-0.072,0.784,0.084,0.214,-29.196,13.376,31.387
1747663779.96,-0.097,-0.103,0.002,0.779,0.090,0.201,-28.734,13.438,31.402
1747663779.97,-0.146,0.013,0.030,0.803,0.099,0.144,-28.273,13.488,31.512
1747663779.98,-0.142,0.084,0.047,0.875,0.077,0.077,-27.794,13.514,31.454
1747663779.99,-0.077,0.091,0.051,0.979,0.023,0.048,-27.271,13.494,31.462
1747663780.00,0.036,0.070,0.041,1.016,-0.019,0.021,-26.708,13.438,31.333
1747663780.01,0.120,0.056,-0.032,0.978,-0.085,-0.009,-26.149,13.342,31.304
1747663780.02,0.113,0.027,-0.062,0.897,-0.061,0.011,-25.629,13.236,31.167
1747663780.03,0.061,0.005,-0.034,0.799,-0.039,0.077,-25.151,13.162,31.178
1747663780.04,0.044,0.002,-0.026,0.704,0.025,0.166,-24.718,13.146,31.146
1747663780.05,0.091,0.030,-0.014,0.678,0.050,0.218,-24.312,13.178,31.271
1747663780.06,0.113,0.080,-0.019,0.712,-0.004,0.231,-23.896,13.212,31.311
1747663780.07,0.089,0.109,-0.014,0.755,-0.112,0.215,-23.459,13.190,31.443
1747663780.08,0.050,0.105,0.038,0.812,-0.169,0.152,-23.000,13.108,31.444
1747663780.09,-0.004,0.086,0.079,0.898,-0.189,0.090,-22.510,12.987,31.483
1747663780.10,-0.074,0.057,0.044,0.982,-0.214,0.080,-21.974,12.841,31.401
1747663780.11,-0.109,0.020,-0.004,0.934,-0.229,0.118,-21.425,12.685,31.422
1747663780.12,-0.062,-0.003,-0.044,0.869,-0.135,0.124,-20.909,12.563,31.374
1747663780.13,0.017,0.003,-0.049,0.809,-0.076,0.116,-20.427,12.492,31.430
1747663780.14,0.029,0.042,-0.009,0.775,-0.037,0.114,-19.973,12.446,31.394
1747663780.15,0.004,0.071,0.033,0.775,-0.004,0.100,-19.528,12.424,31.462
1747663780.16,-0.027,0.069,0.016,0.796,-0.006,0.067,-19.080,12.404,31.410
1747663780.17,-0.040,0.043,0.033,0.859,0.007,0.033,-18.615,12.378,31.428
1747663780.18,-0.025,0.001,0.039,0.947,0.018,-0.004,-18.108,12.353,31.320
1747663780.19,-0.017,-0.031,0.031,0.977,-0.005,-0.052,-17.572,12.315,31.278
1747663780.20,-0.015,-0.043,0.034,0.954,-0.025,-0.050,-17.040,12.258,31.121
1747663780.21,0.013,-0.039,0.023,0.924,-0.059,-0.015,-16.520,12.198,31.078
1747663780.22,0.060,-0.028,-0.002,0.913,-0.150,0.070,-16.005,12.110,30.979
1747663780.23,0.155,-0.014,-0.031,0.897,-0.213,0.162,-15.482,11.992,31.051
1747663780.24,0.259,0.001,-0.036,0.843,-0.207,0.211,-14.975,11.871,31.055
1747663780.25,0.256,-0.007,-0.048,0.818,-0.202,0.228,-14.485,11.762,31.184
1747663780.26,0.106,-0.048,-0.057,0.792,-0.174,0.266,-14.006,11.665,31.230
1747663780.27,-0.027,-0.119,-0.034,0.799,-0.097,0.287,-13.531,11.600,31.391
1747663780.28,-0.062,-0.154,0.061,0.863,0.061,0.273,-13.034,11.605,31.455
1747663780.29,-0.017,-0.112,0.131,0.928,0.126,0.232,-12.505,11.674,31.595
1747663780.30,0.024,-0.041,0.086,0.979,0.059,0.222,-11.944,11.733,31.610
1747663780.31,0.082,-0.013,0.039,0.951,0.026,0.242,-11.376,11.758,31.738
1747663780.32,0.159,-0.014,0.022,0.904,0.023,0.264,-10.828,11.781,31.771
1747663780.33,0.165,-0.017,-0.053,0.826,-0.042,0.290,-10.310,11.788,31.916
1747663780.34,0.084,-0.002,-0.121,0.755,-0.078,0.326,-9.834,11.764,31.998
1747663780.35,0.012,0.031,-0.085,0.714,-0.049,0.353,-9.384,11.744,32.204
1747663780.36,0.009,0.058,-0.040,0.691,-0.017,0.333,-8.952,11.746,32.317
1747663780.37,0.051,0.050,-0.086,0.711,-0.043,0.308,-8.524,11.746,32.517
1747663780.38,0.028,0.007,-0.074,0.700,-0.076,0.299,-8.094,11.723,32.605
1747663780.39,-0.055,-0.049,-0.019,0.697,-0.047,0.289,-7.670,11.698,32.786
1747663780.40,-0.111,-0.089,-0.024,0.700,0.042,0.253,-7.250,11.705,32.857
1747663780.41,-0.144,-0.063,-0.007,0.699,0.148,0.228,-6.830,11.766,32.999
1747663780.42,-0.164,0.035,0.013,0.679,0.218,0.206,-6.418,11.879,33.038
1747663780.43,-0.146,0.154,-0.011,0.653,0.180,0.206,-6.021,11.999,33.163
1747663780.44,-0.097,0.205,-0.068,0.646,0.109,0.194,-5.635,12.086,33.199
1747663780.45,-0.017,0.172,-0.121,0.653,-0.006,0.151,-5.251,12.119,33.301
1747663780.46,0.046,0.075,-0.123,0.664,-0.127,0.086,-4.871,12.077,33.289
1747663780.47,0.062,-0.045,-0.088,0.654,-0.160,-0.008,-4.495,11.989,33.317
1747663780.48,0.055,-0.160,-0.117,0.630,-0.124,-0.075,-4.143,11.897,33.217
1747663780.49,0.017,-0.231,-0.107,0.572,-0.046,-0.076,-3.814,11.838,33.179
1747663780.50,-0.051,-0.183,-0.036,0.509,0.074,0.000,-3.517,11.842,33.093
1747663780.51,-0.100,-0.037,0.001,0.463,0.159,0.051,-3.242,11.908,33.124
1747663780.52,-0.089,0.132,0.003,0.426,0.232,0.082,-2.986,12.018,33.109
1747663780.53,0.010,0.206,-0.007,0.423,0.235,0.083,-2.739,12.155,33.177
1747663780.54,0.094,0.159,-0.031,0.421,0.108,0.111,-2.490,12.256,33.179
1747663780.55,0.138,0.061,-0.063,0.379,-0.042,0.110,-2.252,12.273,33.271
1747663780.56,0.176,-0.001,-0.097,0.365,-0.137,0.095,-2.033,12.221,33.284
1747663780.57,0.162,-0.031,-0.100,0.356,-0.225,0.089,-1.821,12.117,33.354
1747663780.58,0.067,-0.040,-0.090,0.344,-0.211,0.101,-1.614,11.986,33.366
1747663780.59,-0.029,-0.025,-0.064,0.309,-0.095,0.082,-1.418,11.898,33.457
1747663780.60,-0.095,-0.006,-0.053,0.276,0.015,0.057,-1.247,11.878,33.460
1747663780.61,-0.093,-0.011,-0.038,0.250,0.055,0.059,-1.094,11.900,33.546
1747663780.62,-0.051,-0.001,0.005,0.231,0.045,0.050,-0.954,11.931,33.548
1747663780.63,0.035,0.039,-0.017,0.239,-0.036,0.020,-0.818,11.936,33.632
1747663780.64,0.096,0.070,-0.038,0.258,-0.125,-0.005,-0.679,11.888,33.607
1747663780.65,0.081,0.058,-0.019,0.307,-0.165,0.002,-0.520,11.804,33.651
1747663780.66,0.011,0.011,-0.027,0.287,-0.172,0.009,-0.353,11.704,33.620
1747663780.67,-0.045,-0.013,-0.031,0.281,-0.106,0.023,-0.192,11.624,33.677
1747663780.68,-0.050,0.021,-0.002,0.263,-0.027,0.031,-0.037,11.586,33.724
1747663780.69,-0.050,0.051,-0.016,0.283,0.020,0.032,0.119,11.587,33.711
1747663780.70,-0.054,0.046,-0.050,0.270,0.020,0.015,0.278,11.599,33.756
1747663780.71,-0.035,0.016,-0.065,0.250,0.004,-0.024,0.422,11.607,33.724
1747663780.72,0.009,-0.026,-0.061,0.253,-0.027,-0.072,0.557,11.601,33.725
1747663780.73,0.030,-0.060,-0.045,0.257,-0.043,-0.098,0.689,11.581,33.647
1747663780.74,0.025,-0.071,-0.015,0.274,-0.064,-0.105,0.826,11.552,33.619
1747663780.75,0.004,-0.034,0.004,0.268,-0.057,-0.096,0.969,11.518,33.531
1747663780.76,-0.009,0.028,0.004,0.229,-0.022,-0.096,1.097,11.495,33.494
1747663780.77,-0.019,0.060,-0.021,0.220,-0.005,-0.062,1.214,11.491,33.423
1747663780.78,-0.018,0.038,-0.039,0.200,-0.005,-0.031,1.326,11.488,33.405
1747663780.79,0.018,-0.004,-0.041,0.192,-0.004,-0.028,1.432,11.487,33.367
1747663780.80,0.081,-0.045,-0.040,0.216,-0.031,-0.037,1.541,11.479,33.361
1747663780.81,0.118,-0.074,-0.033,0.238,-0.073,-0.035,1.665,11.451,33.314
1747663780.82,0.101,-0.089,-0.026,0.199,-0.124,-0.025,1.790,11.398,33.303
1747663780.83,0.052,-0.089,-0.032,0.149,-0.108,-0.001,1.886,11.330,33.275
1747663780.84,0.005,-0.050,-0.011,0.142,-0.033,0.034,1.966,11.290,33.303
1747663780.85,-0.040,0.015,0.012,0.120,-0.009,0.067,2.042,11.278,33.317
1747663780.86,-0.036,0.071,-0.006,0.114,0.013,0.075,2.110,11.277,33.392
1747663780.87,0.023,0.089,-0.007,0.142,0.014,0.060,2.188,11.286,33.416
1747663780.88,0.046,0.035,-0.006,0.146,-0.015,0.040,2.277,11.291,33.476
1747663780.89,0.027,-0.052,-0.025,0.158,-0.053,0.016,2.369,11.276,33.475
1747663780.90,-0.004,-0.097,-0.016,0.138,-0.049,-0.015,2.457,11.251,33.503
1747663780.91,-0.012,-0.087,0.023,0.118,-0.031,-0.008,2.529,11.231,33.482
1747663780.91,0.004,-0.043,0.018,0.145,-0.022,0.018,2.603,11.217,33.510
1747663780.93,0.010,0.018,0.000,0.137,-0.024,0.041,2.686,11.203,33.511
1747663780.94,0.022,0.043,-0.018,0.116,-0.037,0.046,2.755,11.184,33.557
1747663780.94,0.050,0.016,-0.073,0.094,-0.032,0.051,2.814,11.163,33.572
1747663780.96,0.072,-0.029,-0.118,0.063,0.006,0.063,2.862,11.156,33.623
1747663780.96,0.041,-0.053,-0.112,0.030,0.034,0.056,2.897,11.169,33.652
1747663780.98,-0.019,-0.049,-0.081,-0.007,0.061,0.061,2.916,11.194,33.721
1747663780.98,-0.014,-0.014,-0.051,-0.040,0.043,0.058,2.915,11.224,33.759
1747663780.99,0.021,0.019,-0.024,-0.030,-0.007,0.064,2.901,11.234,33.823
1747663781.00,0.033,0.019,-0.002,-0.015,-0.066,0.072,2.895,11.212,33.863
1747663781.01,0.021,0.021,-0.007,-0.024,-0.072,0.056,2.888,11.170,33.935
1747663781.02,0.021,0.026,-0.031,-0.053,-0.041,0.049,2.870,11.138,33.967
1747663781.03,0.024,0.022,-0.077,-0.081,0.003,0.045,2.840,11.127,34.021
1747663781.04,0.019,0.031,-0.115,-0.118,0.046,0.044,2.792,11.141,34.056
1747663781.05,0.006,0.046,-0.145,-0.168,0.070,0.051,2.720,11.170,34.131
1747663781.06,-0.007,0.059,-0.161,-0.223,0.080,0.049,2.617,11.211,34.181
1747663781.07,-0.014,0.049,-0.149,-0.263,0.014,0.032,2.484,11.239,34.259
1747663781.08,-0.018,0.028,-0.113,-0.297,-0.052,-0.015,2.327,11.226,34.296
1747663781.09,-0.003,0.005,-0.073,-0.284,-0.071,-0.085,2.158,11.191,34.337
1747663781.10,-0.007,-0.020,-0.076,-0.317,-0.111,-0.143,1.979,11.142,34.306
1747663781.11,-0.053,-0.049,-0.130,-0.382,-0.095,-0.173,1.764,11.080,34.290
1747663781.12,-0.091,-0.060,-0.145,-0.432,0.013,-0.201,1.515,11.058,34.229
1747663781.13,-0.111,-0.050,-0.151,-0.511,0.078,-0.219,1.228,11.088,34.194
1747663781.14,-0.104,-0.037,-0.176,-0.600,0.122,-0.246,0.889,11.145,34.126
1747663781.15,-0.033,-0.023,-0.155,-0.638,0.152,-0.260,0.513,11.228,34.095
1747663781.16,0.067,-0.033,-0.150,-0.730,0.049,-0.246,0.104,11.290,34.028
1747663781.17,0.138,-0.068,-0.184,-0.811,-0.080,-0.212,-0.354,11.280,34.039
1747663781.18,0.198,-0.086,-0.154,-0.907,-0.168,-0.162,-0.855,11.208,34.029
1747663781.19,0.208,-0.084,-0.128,-0.999,-0.215,-0.087,-1.405,11.098,34.129
1747663781.20,0.146,-0.082,-0.132,-1.048,-0.191,-0.036,-1.986,10.980,34.208
1747663781.21,0.061,-0.063,-0.093,-1.112,-0.025,-0.038,-2.595,10.919,34.362
1747663781.22,0.023,-0.045,-0.089,-1.155,0.110,-0.057,-3.236,10.952,34.459
1747663781.23,-0.018,-0.059,-0.107,-1.195,0.140,-0.076,-3.901,11.031,34.616
1747663781.24,-0.034,-0.075,-0.096,-1.257,0.157,-0.075,-4.596,11.123,34.709
1747663781.25,0.017,-0.077,-0.103,-1.308,0.135,-0.078,-5.324,11.217,34.870
1747663781.26,0.064,-0.067,-0.121,-1.347,0.091,-0.081,-6.075,11.291,34.975
1747663781.27,0.066,-0.042,-0.084,-1.367,0.045,-0.104,-6.847,11.342,35.144
1747663781.28,0.018,-0.017,-0.077,-1.364,0.000,-0.146,-7.625,11.364,35.229
1747663781.29,-0.045,-0.014,-0.062,-1.373,0.017,-0.193,-8.411,11.374,35.359
1747663781.30,-0.095,-0.017,-0.021,-1.365,0.081,-0.259,-9.203,11.405,35.388
1747663781.31,-0.130,-0.015,-0.028,-1.387,0.114,-0.292,-10.002,11.463,35.459
1747663781.32,-0.128,-0.026,-0.043,-1.440,0.128,-0.291,-10.827,11.531,35.456
1747663781.33,-0.074,-0.052,-0.041,-1.457,0.164,-0.284,-11.673,11.614,35.535
1747663781.34,0.002,-0.080,-0.040,-1.434,0.205,-0.275,-12.515,11.721,35.546
1747663781.35,0.050,-0.095,-0.011,-1.428,0.231,-0.278,-13.346,11.849,35.623
1747663781.36,0.048,-0.096,0.015,-1.426,0.248,-0.288,-14.177,11.989,35.632
1747663781.37,0.036,-0.095,0.023,-1.418,0.237,-0.297,-15.006,12.127,35.681
1747663781.38,0.020,-0.085,0.020,-1.425,0.253,-0.307,-15.836,12.267,35.684
1747663781.39,0.014,-0.071,0.028,-1.437,0.297,-0.317,-16.671,12.426,35.745
1747663781.40,0.003,-0.067,0.007,-1.460,0.281,-0.311,-17.517,12.595,35.749
1747663781.41,-0.001,-0.079,-0.032,-1.490,0.249,-0.274,-18.376,12.750,35.837
1747663781.42,0.033,-0.102,-0.031,-1.489,0.280,-0.228,-19.238,12.916,35.889
1747663781.43,0.068,-0.123,-0.003,-1.504,0.301,-0.202,-20.097,13.111,36.041
1747663781.44,0.066,-0.138,-0.003,-1.513,0.270,-0.188,-20.963,13.308,36.136
1747663781.45,0.055,-0.147,-0.005,-1.519,0.224,-0.183,-21.828,13.487,36.309
1747663781.46,0.035,-0.127,0.036,-1.538,0.228,-0.207,-22.703,13.656,36.415
1747663781.47,0.025,-0.094,0.041,-1.539,0.187,-0.242,-23.588,13.814,36.571
1747663781.48,0.022,-0.057,-0.014,-1.565,0.112,-0.252,-24.481,13.931,36.653
1747663781.49,0.039,-0.025,-0.028,-1.599,0.126,-0.241,-25.392,14.034,36.801
1747663781.50,0.072,-0.012,-0.012,-1.622,0.107,-0.238,-26.317,14.148,36.901
1747663781.51,0.100,-0.030,-0.046,-1.643,0.053,-0.200,-27.252,14.245,37.071
1747663781.52,0.125,-0.077,-0.035,-1.685,0.022,-0.146,-28.195,14.339,37.227
1747663781.53,0.126,-0.114,0.013,-1.711,0.017,-0.105,-29.153,14.444,37.487
1747663781.54,0.111,-0.125,0.055,-1.725,0.011,-0.084,-30.116,14.564,37.711
1747663781.55,0.058,-0.095,0.095,-1.741,-0.012,-0.101,-31.088,14.681,37.992
1747663781.56,-0.005,-0.038,0.100,-1.740,-0.037,-0.134,-32.068,14.784,38.214
1747663781.57,-0.060,0.027,0.059,-1.735,-0.083,-0.178,-33.050,14.856,38.465
1747663781.58,-0.089,0.080,0.019,-1.723,-0.056,-0.187,-34.032,14.914,38.673
1747663781.59,-0.059,0.105,0.013,-1.721,-0.016,-0.174,-35.008,15.001,38.860
1747663781.60,-0.020,0.097,-0.019,-1.702,0.004,-0.155,-35.978,15.116,39.078
1747663781.61,0.013,0.070,-0.029,-1.680,-0.003,-0.157,-36.933,15.241,39.286
1747663781.62,0.014,0.039,-0.031,-1.678,-0.033,-0.170,-37.882,15.354,39.488
1747663781.63,-0.009,0.010,-0.030,-1.660,-0.020,-0.207,-38.831,15.456,39.680
1747663781.64,-0.053,-0.019,0.004,-1.610,0.016,-0.274,-39.768,15.550,39.828
1747663781.65,-0.117,-0.039,0.039,-1.582,0.074,-0.351,-40.693,15.637,39.925
1747663781.66,-0.167,-0.047,0.060,-1.565,0.139,-0.420,-41.619,15.723,39.965
1747663781.67,-0.180,-0.061,0.039,-1.535,0.199,-0.439,-42.538,15.822,39.969
1747663781.68,-0.142,-0.071,0.017,-1.538,0.257,-0.411,-43.446,15.958,39.964
1747663781.69,-0.069,-0.065,-0.008,-1.563,0.313,-0.379,-44.359,16.147,40.003
1747663781.70,-0.001,-0.050,-0.024,-1.591,0.341,-0.376,-45.284,16.381,40.062
1747663781.71,0.046,-0.022,-0.018,-1.577,0.314,-0.394,-46.214,16.619,40.129
1747663781.72,0.063,0.016,-0.021,-1.594,0.235,-0.413,-47.147,16.818,40.169
1747663781.73,0.064,0.042,-0.007,-1.611,0.179,-0.421,-48.092,16.978,40.226
1747663781.74,0.052,0.049,0.039,-1.608,0.109,-0.426,-49.043,17.103,40.273
1747663781.75,0.054,0.034,0.039,-1.592,0.086,-0.433,-49.989,17.199,40.327
1747663781.76,0.095,0.006,0.032,-1.600,0.028,-0.447,-50.932,17.270,40.346
1747663781.77,0.131,-0.032,0.012,-1.649,-0.081,-0.440,-51.893,17.296,40.399
1747663781.78,0.157,-0.070,-0.004,-1.648,-0.146,-0.438,-52.869,17.283,40.423
1747663781.79,0.174,-0.088,-0.014,-1.633,-0.259,-0.431,-53.836,17.222,40.489
1747663781.80,0.158,-0.082,-0.010,-1.624,-0.415,-0.410,-54.796,17.091,40.525
