Time,AccX,AccY,AccZ,GyroX,GyroY,GyroZ,Pitch,Roll,Yaw
1747666186.14,0.002,-0.009,-0.012,-0.016,0.001,0.009,-86.824,54.955,62.257
1747666186.14,-0.005,-0.016,-0.008,-0.036,0.003,0.005,-86.832,55.197,62.500
1747666186.15,-0.003,-0.010,0.001,-0.048,-0.006,0.000,-86.847,55.454,62.756
1747666186.15,0.006,0.002,-0.011,-0.050,-0.031,-0.000,-86.865,55.700,63.013
1747666186.16,0.021,0.011,-0.005,-0.061,-0.010,-0.005,-86.886,56.044,63.372
1747666186.17,0.031,0.006,0.019,-0.051,0.017,-0.001,-86.904,56.514,63.840
1747666186.18,0.022,-0.005,0.032,-0.041,0.012,0.012,-86.913,57.008,64.325
1747666186.19,-0.006,-0.010,0.019,-0.046,-0.006,0.024,-86.913,57.536,64.852
1747666186.20,-0.030,-0.009,0.011,-0.065,0.006,0.022,-86.917,58.127,65.445
1747666186.21,-0.033,-0.011,0.015,-0.086,0.032,0.017,-86.930,58.880,66.190
1747666186.22,-0.023,-0.012,0.010,-0.087,0.058,0.005,-86.951,59.764,67.049
1747666186.23,-0.016,-0.006,-0.002,-0.069,0.045,0.002,-86.968,60.490,67.746
1747666186.24,-0.007,0.002,-0.021,-0.058,0.008,-0.004,-86.982,61.094,68.335
1747666186.25,0.006,0.009,-0.032,-0.050,-0.030,-0.009,-86.997,61.659,68.906
1747666186.26,0.020,0.012,-0.039,-0.036,-0.039,-0.020,-87.015,62.100,69.370
1747666186.27,0.038,0.007,-0.039,-0.019,0.003,-0.015,-87.035,62.297,69.578
1747666186.28,0.042,-0.004,-0.037,-0.006,0.040,-0.003,-87.047,62.324,69.591
1747666186.29,0.022,-0.012,-0.026,-0.017,0.039,-0.006,-87.058,62.397,69.642
1747666186.30,0.014,-0.023,-0.009,-0.030,0.031,0.015,-87.066,62.661,69.887
1747666186.31,0.013,-0.019,0.003,-0.045,0.031,0.033,-87.064,63.142,70.351
1747666186.32,-0.011,0.001,0.010,-0.044,0.020,0.028,-87.060,63.695,70.891
1747666186.33,-0.031,0.016,0.008,-0.034,-0.004,0.022,-87.054,64.127,71.319
1747666186.34,-0.034,0.022,0.000,-0.013,-0.012,0.023,-87.044,64.390,71.588
1747666186.35,-0.028,0.019,-0.006,0.008,-0.015,0.017,-87.028,64.470,71.677
1747666186.36,-0.018,0.011,-0.016,0.020,-0.017,0.002,-87.013,64.317,71.532
1747666186.37,-0.001,0.000,-0.027,0.040,-0.019,0.003,-87.000,63.957,71.182
1747666186.38,0.018,-0.001,-0.019,0.045,0.015,-0.010,-86.988,63.519,70.747
1747666186.39,0.035,0.003,0.003,0.037,0.057,-0.015,-86.984,63.095,70.301
1747666186.40,0.035,-0.010,0.007,0.020,0.059,0.015,-86.977,62.870,70.041
1747666186.41,0.017,-0.015,0.012,0.010,0.090,0.028,-86.966,62.875,70.004
1747666186.42,-0.002,-0.016,0.026,0.004,0.085,0.030,-86.954,62.985,70.062
1747666186.43,-0.012,-0.010,0.021,0.005,0.063,0.037,-86.939,63.120,70.155
1747666186.44,-0.005,-0.003,0.024,0.017,0.045,0.045,-86.918,63.181,70.184
1747666186.45,0.010,0.002,0.026,0.023,0.017,0.043,-86.888,63.130,70.116
1747666186.46,0.022,0.004,0.029,0.023,-0.008,0.026,-86.861,63.063,70.046
1747666186.47,0.028,0.004,0.019,0.040,-0.037,0.005,-86.840,62.880,69.876
1747666186.48,0.028,0.012,0.011,0.053,-0.069,-0.004,-86.824,62.471,69.496
1747666186.49,0.012,0.014,0.014,0.051,-0.093,-0.013,-86.813,61.948,69.021
1747666186.50,-0.007,0.004,0.034,0.044,-0.071,-0.013,-86.810,61.498,68.618
1747666186.51,-0.021,0.000,0.032,0.058,-0.039,-0.005,-86.804,61.017,68.167
1747666186.52,-0.038,0.002,0.025,0.056,-0.044,-0.005,-86.794,60.540,67.712
1747666186.53,-0.045,-0.004,0.017,0.058,-0.034,-0.006,-86.781,60.087,67.283
1747666186.54,-0.024,-0.014,0.014,0.080,-0.007,0.007,-86.762,59.554,66.760
1747666186.55,0.004,-0.016,0.004,0.113,-0.013,0.029,-86.723,58.877,66.087
1747666186.56,0.024,-0.004,-0.002,0.118,-0.014,0.042,-86.668,58.146,65.362
1747666186.57,0.032,0.010,0.002,0.120,-0.020,0.055,-86.607,57.462,64.687
1747666186.58,0.024,0.011,-0.000,0.139,-0.046,0.066,-86.541,56.793,64.034
1747666186.59,0.006,0.002,-0.003,0.144,-0.073,0.070,-86.469,56.024,63.298
1747666186.60,-0.005,-0.007,0.016,0.129,-0.073,0.063,-86.401,55.305,62.621
1747666186.61,-0.004,-0.010,0.028,0.143,-0.049,0.054,-86.337,54.570,61.920
1747666186.62,-0.001,-0.002,0.025,0.153,-0.025,0.046,-86.269,53.741,61.111
1747666186.63,0.005,0.005,0.037,0.140,-0.009,0.039,-86.201,52.963,60.341
1747666186.64,0.005,0.006,0.046,0.138,-0.014,0.040,-86.133,52.289,59.671
1747666186.65,-0.001,0.006,0.025,0.166,-0.059,0.032,-86.061,51.538,58.938
1747666186.66,-0.008,0.006,-0.002,0.202,-0.098,0.029,-85.980,50.538,57.982
1747666186.67,-0.004,0.005,-0.008,0.237,-0.120,0.034,-85.887,49.295,56.798
1747666186.68,0.001,0.005,-0.012,0.281,-0.124,0.040,-85.778,47.935,55.505
1747666186.69,0.004,0.011,-0.015,0.312,-0.105,0.046,-85.651,46.475,54.107
1747666186.70,0.001,0.011,0.004,0.297,-0.072,0.057,-85.514,45.128,52.808
1747666186.71,-0.013,0.002,0.029,0.294,-0.019,0.067,-85.376,44.038,51.741
1747666186.72,-0.034,-0.003,0.035,0.312,0.020,0.069,-85.231,43.031,50.729
1747666186.73,-0.058,-0.009,0.023,0.344,0.034,0.065,-85.075,41.950,49.628
1747666186.74,-0.060,-0.017,0.007,0.368,0.048,0.065,-84.901,40.762,48.412
1747666186.75,-0.036,-0.018,0.010,0.384,0.071,0.083,-84.713,39.629,47.241
1747666186.76,-0.004,-0.010,0.016,0.414,0.108,0.113,-84.501,38.612,46.167
1747666186.77,0.010,0.013,0.016,0.432,0.103,0.133,-84.266,37.724,45.211
1747666186.78,0.004,0.024,0.008,0.446,0.042,0.136,-84.021,36.886,44.327
1747666186.79,0.012,0.014,-0.005,0.484,0.013,0.144,-83.761,36.026,43.447
1747666186.80,0.035,0.002,0.006,0.506,0.028,0.151,-83.481,35.172,42.579
1747666186.81,0.044,-0.008,0.028,0.520,0.065,0.153,-83.191,34.385,41.759
1747666186.82,0.030,-0.022,0.029,0.566,0.096,0.147,-82.888,33.592,40.913
1747666186.83,-0.005,-0.021,0.024,0.599,0.073,0.145,-82.563,32.756,40.021
1747666186.84,-0.038,-0.012,0.020,0.632,0.051,0.159,-82.221,31.929,39.152
1747666186.85,-0.052,0.001,0.011,0.649,0.044,0.186,-81.855,31.181,38.369
1747666186.86,-0.060,0.020,0.016,0.605,0.038,0.190,-81.491,30.583,37.739
1747666186.87,-0.069,0.037,0.013,0.566,-0.000,0.156,-81.154,30.060,37.199
1747666186.88,-0.050,0.036,-0.008,0.589,-0.011,0.122,-80.830,29.463,36.602
1747666186.89,-0.003,0.017,-0.002,0.642,0.041,0.097,-80.492,28.762,35.884
1747666186.90,0.024,-0.006,0.011,0.692,0.031,0.085,-80.132,27.990,35.076
1747666186.91,0.014,-0.022,-0.012,0.727,-0.037,0.098,-79.748,27.179,34.254
1747666186.92,-0.005,-0.025,-0.024,0.731,-0.064,0.124,-79.348,26.434,33.530
1747666186.93,-0.027,-0.021,-0.021,0.733,-0.023,0.142,-78.941,25.804,32.915
1747666186.94,-0.046,-0.014,-0.036,0.778,0.011,0.149,-78.517,25.245,32.348
1747666186.95,-0.045,-0.001,-0.053,0.786,0.065,0.160,-78.072,24.734,31.807
1747666186.96,-0.022,0.000,0.010,0.750,0.195,0.176,-77.635,24.366,31.355
1747666186.97,0.004,-0.003,0.037,0.738,0.293,0.183,-77.206,24.147,30.984
1747666186.98,0.006,0.003,0.022,0.717,0.264,0.198,-76.781,24.006,30.671
1747666186.99,0.002,0.004,-0.023,0.685,0.158,0.215,-76.367,23.898,30.436
1747666187.00,0.003,0.003,-0.034,0.671,0.126,0.215,-75.963,23.806,30.261
1747666187.01,0.004,-0.009,-0.005,0.696,0.096,0.172,-75.563,23.653,30.073
1747666187.02,0.007,-0.025,-0.032,0.779,0.098,0.133,-75.144,23.365,29.722
1747666187.03,0.021,-0.028,-0.033,0.811,0.205,0.113,-74.696,23.020,29.293
1747666187.04,0.009,-0.023,0.026,0.789,0.269,0.118,-74.251,22.732,28.851
1747666187.05,-0.029,-0.009,0.004,0.795,0.277,0.131,-73.805,22.512,28.492
1747666187.06,-0.055,0.022,-0.028,0.734,0.329,0.157,-73.366,22.371,28.168
1747666187.07,-0.050,0.031,-0.006,0.636,0.397,0.192,-72.966,22.393,28.000
1747666187.08,-0.010,0.021,0.050,0.571,0.450,0.214,-72.604,22.553,27.915
1747666187.09,0.050,0.005,0.093,0.556,0.430,0.245,-72.259,22.802,27.938
1747666187.10,0.086,-0.009,0.067,0.597,0.300,0.269,-71.899,23.038,27.965
1747666187.11,0.112,-0.016,0.027,0.627,0.155,0.286,-71.514,23.190,28.024
1747666187.12,0.127,-0.018,0.022,0.648,0.024,0.283,-71.115,23.260,28.041
1747666187.13,0.083,-0.013,0.010,0.654,-0.121,0.234,-70.714,23.208,28.055
1747666187.14,-0.000,0.002,-0.023,0.646,-0.205,0.162,-70.327,22.993,27.929
1747666187.15,-0.072,0.017,-0.058,0.620,-0.184,0.102,-69.966,22.679,27.763
1747666187.16,-0.119,0.030,-0.043,0.617,-0.062,0.074,-69.620,22.362,27.503
1747666187.17,-0.154,0.039,0.007,0.576,0.068,0.080,-69.289,22.125,27.295
1747666187.18,-0.162,0.031,0.037,0.561,0.147,0.112,-68.970,22.001,27.094
1747666187.19,-0.133,0.012,0.008,0.589,0.190,0.137,-68.639,21.956,26.998
1747666187.20,-0.060,-0.003,-0.006,0.601,0.253,0.123,-68.294,21.930,26.836
1747666187.21,0.029,-0.023,0.023,0.568,0.279,0.141,-67.957,21.949,26.743
1747666187.22,0.074,-0.038,-0.008,0.569,0.196,0.140,-67.626,21.976,26.622
1747666187.23,0.102,-0.038,-0.066,0.599,0.046,0.148,-67.286,21.926,26.562
1747666187.24,0.133,-0.034,-0.048,0.589,-0.004,0.167,-66.935,21.829,26.449
1747666187.25,0.154,-0.035,0.038,0.546,0.070,0.187,-66.597,21.786,26.451
1747666187.26,0.140,-0.038,0.051,0.554,0.153,0.177,-66.266,21.811,26.405
1747666187.27,0.083,-0.030,0.015,0.511,0.093,0.155,-65.947,21.825,26.400
1747666187.28,0.037,-0.021,-0.001,0.462,-0.046,0.195,-65.654,21.813,26.374
1747666187.29,0.047,-0.005,-0.012,0.469,-0.100,0.239,-65.362,21.807,26.481
1747666187.30,0.082,0.019,0.004,0.524,-0.130,0.235,-65.050,21.791,26.535
1747666187.31,0.076,0.039,-0.029,0.579,-0.209,0.178,-64.712,21.683,26.593
1747666187.32,0.033,0.053,-0.058,0.606,-0.237,0.111,-64.367,21.450,26.481
1747666187.33,-0.006,0.052,-0.021,0.622,-0.184,0.061,-64.020,21.160,26.365
1747666187.34,-0.065,0.042,0.009,0.605,-0.167,0.036,-63.684,20.858,26.139
1747666187.35,-0.120,0.023,-0.002,0.602,-0.090,0.024,-63.355,20.564,25.977
1747666187.36,-0.140,-0.001,-0.007,0.539,0.065,0.037,-63.043,20.357,25.755
1747666187.37,-0.122,-0.035,0.026,0.482,0.168,0.109,-62.758,20.305,25.696
1747666187.38,-0.084,-0.054,0.031,0.458,0.165,0.166,-62.479,20.371,25.752
1747666187.39,-0.019,-0.035,0.017,0.442,0.151,0.183,-62.204,20.466,25.759
1747666187.40,0.058,-0.008,0.010,0.450,0.152,0.210,-61.928,20.586,25.913
1747666187.41,0.102,0.019,-0.006,0.489,0.087,0.225,-61.633,20.702,25.962
1747666187.42,0.099,0.040,-0.034,0.555,-0.037,0.190,-61.312,20.727,26.091
1747666187.43,0.066,0.039,-0.027,0.620,-0.076,0.136,-60.965,20.633,26.024
1747666187.44,0.017,0.021,-0.019,0.646,-0.074,0.089,-60.602,20.469,25.999
1747666187.45,-0.058,-0.002,-0.033,0.619,-0.068,0.050,-60.248,20.271,25.817
1747666187.46,-0.102,-0.025,-0.008,0.524,-0.018,0.043,-59.931,20.089,25.739
1747666187.47,-0.098,-0.042,0.027,0.452,0.010,0.064,-59.662,19.974,25.608
1747666187.48,-0.051,-0.039,-0.008,0.438,0.042,0.110,-59.406,19.921,25.637
1747666187.49,0.006,-0.016,-0.009,0.402,0.020,0.151,-59.156,19.922,25.614
1747666187.50,0.045,0.009,0.009,0.431,-0.059,0.222,-58.900,19.937,25.753
1747666187.51,0.075,0.031,0.022,0.483,-0.082,0.213,-58.610,19.947,25.813
1747666187.52,0.061,0.053,0.012,0.536,-0.147,0.166,-58.300,19.888,25.922
1747666187.53,0.017,0.043,-0.039,0.587,-0.221,0.133,-57.971,19.735,25.868
1747666187.54,-0.013,0.020,-0.044,0.663,-0.188,0.107,-57.612,19.526,25.875
1747666187.55,-0.029,-0.008,-0.041,0.656,-0.078,0.091,-57.233,19.332,25.737
1747666187.56,-0.027,-0.043,-0.036,0.575,0.012,0.081,-56.885,19.205,25.716
1747666187.57,-0.032,-0.075,-0.055,0.484,0.086,0.087,-56.583,19.151,25.615
1747666187.58,-0.029,-0.099,-0.046,0.431,0.086,0.123,-56.319,19.158,25.673
1747666187.59,0.003,-0.100,-0.021,0.406,0.065,0.186,-56.065,19.207,25.682
1747666187.60,0.040,-0.067,0.030,0.380,0.048,0.213,-55.816,19.294,25.860
1747666187.61,0.047,-0.010,0.043,0.421,-0.005,0.215,-55.562,19.367,25.932
1747666187.62,0.039,0.047,-0.004,0.476,-0.081,0.218,-55.278,19.387,26.113
1747666187.63,0.035,0.085,-0.037,0.519,-0.137,0.210,-54.969,19.356,26.151
1747666187.64,0.023,0.102,-0.047,0.538,-0.167,0.164,-54.646,19.270,26.262
1747666187.65,-0.007,0.093,-0.009,0.509,-0.120,0.110,-54.337,19.150,26.219
1747666187.66,-0.031,0.054,0.085,0.458,-0.047,0.076,-54.059,19.048,26.267
1747666187.67,-0.073,-0.003,0.082,0.412,-0.053,0.081,-53.810,18.964,26.195
1747666187.68,-0.056,-0.070,-0.012,0.340,-0.063,0.147,-53.585,18.916,26.307
1747666187.69,0.022,-0.119,-0.068,0.269,-0.073,0.219,-53.387,18.936,26.379
1747666187.70,0.080,-0.127,-0.069,0.251,-0.105,0.261,-53.205,18.996,26.658
1747666187.71,0.102,-0.078,-0.048,0.297,-0.162,0.275,-53.008,19.048,26.816
1747666187.72,0.073,0.021,-0.040,0.362,-0.216,0.254,-52.780,19.046,27.091
1747666187.73,0.026,0.101,-0.021,0.423,-0.243,0.211,-52.526,18.984,27.177
1747666187.74,-0.007,0.109,-0.022,0.497,-0.257,0.166,-52.242,18.861,27.342
1747666187.75,-0.014,0.070,-0.022,0.503,-0.208,0.129,-51.943,18.710,27.322
1747666187.76,0.000,0.017,-0.008,0.458,-0.157,0.109,-51.661,18.576,27.416
1747666187.77,0.015,-0.033,0.008,0.414,-0.158,0.124,-51.405,18.467,27.389
1747666187.78,0.029,-0.066,0.003,0.420,-0.171,0.153,-51.155,18.372,27.530
1747666187.79,0.051,-0.070,-0.006,0.422,-0.183,0.160,-50.897,18.283,27.545
1747666187.80,0.043,-0.048,-0.006,0.432,-0.210,0.160,-50.638,18.184,27.711
1747666187.81,0.014,-0.014,0.001,0.445,-0.216,0.159,-50.372,18.073,27.725
1747666187.82,-0.017,0.024,0.010,0.480,-0.150,0.152,-50.094,17.969,27.863
1747666187.83,-0.045,0.063,0.021,0.536,-0.051,0.124,-49.794,17.897,27.842
1747666187.84,-0.077,0.089,0.031,0.559,-0.020,0.086,-49.477,17.831,27.938
1747666187.85,-0.094,0.095,0.074,0.557,0.020,0.051,-49.161,17.761,27.846
1747666187.86,-0.081,0.076,0.089,0.556,0.019,0.029,-48.852,17.686,27.880
1747666187.87,-0.036,0.038,0.065,0.522,0.003,0.066,-48.549,17.612,27.775
1747666187.88,0.020,-0.002,0.048,0.452,-0.001,0.049,-48.274,17.555,27.852
1747666187.89,0.080,-0.024,0.043,0.421,-0.011,0.033,-48.030,17.491,27.768
1747666187.90,0.095,-0.032,0.041,0.396,-0.042,0.061,-47.800,17.427,27.871
1747666187.91,0.071,-0.006,0.019,0.396,-0.077,0.092,-47.572,17.366,27.834
1747666187.92,0.063,0.046,0.001,0.403,-0.110,0.107,-47.338,17.299,27.988
1747666187.93,0.066,0.105,0.009,0.425,-0.134,0.111,-47.094,17.216,27.974
1747666187.94,0.071,0.146,0.035,0.466,-0.122,0.095,-46.835,17.125,28.117
1747666187.95,0.047,0.152,0.008,0.522,-0.202,0.072,-46.551,16.996,28.062
1747666187.96,-0.008,0.118,-0.005,0.539,-0.300,0.056,-46.250,16.795,28.171
1747666187.97,-0.030,0.058,0.006,0.561,-0.334,0.039,-45.942,16.547,28.080
1747666187.98,-0.022,-0.001,-0.018,0.576,-0.299,0.007,-45.624,16.283,28.152
1747666187.99,-0.011,-0.051,-0.047,0.520,-0.214,-0.015,-45.322,16.045,28.024
1747666188.00,-0.012,-0.089,-0.057,0.439,-0.088,-0.015,-45.062,15.875,28.073
1747666188.01,-0.053,-0.110,-0.027,0.381,-0.066,0.015,-44.839,15.771,27.984
1747666188.02,-0.080,-0.098,0.004,0.390,-0.032,0.045,-44.624,15.698,28.087
1747666188.03,-0.063,-0.052,0.015,0.426,-0.000,0.057,-44.391,15.658,28.041
1747666188.04,-0.056,0.012,-0.003,0.462,-0.018,0.043,-44.140,15.614,28.160
1747666188.05,-0.051,0.071,-0.004,0.505,-0.069,0.019,-43.869,15.535,28.082
1747666188.06,-0.039,0.097,0.010,0.533,-0.099,-0.029,-43.582,15.407,28.155
1747666188.07,-0.018,0.082,0.034,0.533,-0.043,-0.077,-43.296,15.261,28.004
1747666188.08,-0.015,0.038,-0.002,0.528,-0.013,-0.099,-43.017,15.128,28.015
1747666188.09,-0.029,-0.020,-0.044,0.492,-0.065,-0.062,-42.746,14.990,27.849
1747666188.10,-0.021,-0.068,-0.015,0.469,-0.025,-0.021,-42.489,14.880,27.915
1747666188.11,0.028,-0.089,0.011,0.471,0.040,0.016,-42.229,14.819,27.818
1747666188.12,0.060,-0.072,0.007,0.448,0.080,0.042,-41.970,14.810,27.953
1747666188.13,0.068,-0.016,-0.015,0.444,0.097,0.046,-41.718,14.829,27.899
1747666188.14,0.068,0.036,-0.026,0.463,-0.014,0.034,-41.462,14.812,28.037
1747666188.15,0.067,0.064,-0.025,0.495,-0.089,0.073,-41.190,14.747,27.984
1747666188.16,0.059,0.084,-0.031,0.527,-0.177,0.002,-40.902,14.626,28.092
1747666188.17,0.020,0.074,-0.048,0.554,-0.273,-0.049,-40.605,14.418,27.968
1747666188.18,-0.012,0.043,-0.021,0.582,-0.267,-0.056,-40.298,14.168,28.031
1747666188.19,-0.048,0.010,0.001,0.581,-0.185,-0.089,-39.982,13.940,27.874
1747666188.20,-0.064,-0.034,-0.005,0.498,-0.071,-0.122,-39.695,13.751,27.888
1747666188.21,-0.052,-0.091,-0.028,0.364,0.041,-0.083,-39.471,13.655,27.735
1747666188.22,-0.023,-0.133,-0.037,0.307,0.020,0.039,-39.292,13.626,27.862
1747666188.23,0.038,-0.116,0.012,0.300,0.069,0.182,-39.108,13.669,27.895
1747666188.24,0.109,-0.017,0.025,0.330,0.099,0.148,-38.912,13.765,28.166
1747666188.25,0.139,0.080,-0.005,0.367,0.010,0.131,-38.700,13.822,28.203
1747666188.26,0.110,0.118,-0.002,0.405,-0.094,0.130,-38.468,13.814,28.417
1747666188.27,0.054,0.090,0.030,0.451,-0.150,0.117,-38.214,13.751,28.431
1747666188.28,0.008,0.021,0.024,0.478,-0.135,0.087,-37.943,13.661,28.636
1747666188.29,-0.010,-0.050,0.000,0.489,-0.087,0.059,-37.663,13.578,28.603
1747666188.30,-0.018,-0.109,-0.005,0.475,-0.048,0.054,-37.387,13.512,28.785
1747666188.31,-0.019,-0.138,-0.013,0.448,-0.000,0.063,-37.122,13.475,28.748
1747666188.32,-0.004,-0.132,-0.026,0.400,0.040,0.093,-36.875,13.483,28.938
1747666188.33,0.016,-0.098,-0.040,0.359,0.050,0.123,-36.650,13.513,29.144
1747666188.34,0.051,-0.037,-0.047,0.304,0.077,0.156,-36.447,13.574,29.186
1747666188.34,0.084,0.043,-0.059,0.270,-0.008,0.153,-36.268,13.630,29.442
1747666188.36,0.097,0.105,-0.038,0.276,-0.064,0.149,-36.099,13.643,29.501
1747666188.36,0.070,0.126,-0.027,0.310,-0.129,0.134,-35.916,13.618,29.763
1747666188.38,0.004,0.092,-0.031,0.344,-0.186,0.108,-35.719,13.542,29.791
1747666188.39,-0.045,0.042,-0.003,0.393,-0.158,0.073,-35.501,13.441,29.999
1747666188.39,-0.079,0.013,0.025,0.405,-0.112,0.022,-35.272,13.346,29.966
1747666188.41,-0.095,-0.002,0.023,0.373,-0.088,-0.001,-35.052,13.256,30.129
1747666188.41,-0.073,-0.016,-0.000,0.318,-0.037,-0.001,-34.861,13.186,30.074
1747666188.42,-0.026,-0.031,-0.018,0.280,-0.010,0.009,-34.695,13.148,30.241
1747666188.44,0.018,-0.026,-0.039,0.234,0.020,0.037,-34.549,13.135,30.213
1747666188.44,0.059,0.007,-0.048,0.215,-0.030,0.063,-34.420,13.138,30.429
1747666188.45,0.074,0.067,-0.033,0.250,-0.062,0.060,-34.283,13.112,30.435
1747666188.46,0.079,0.108,-0.011,0.300,-0.071,0.030,-34.125,13.069,30.657
1747666188.47,0.036,0.095,-0.024,0.347,-0.122,-0.011,-33.944,12.990,30.613
1747666188.48,-0.027,0.044,-0.026,0.357,-0.158,-0.045,-33.751,12.868,30.767
1747666188.49,-0.073,-0.014,-0.005,0.366,-0.173,-0.060,-33.556,12.723,30.677
1747666188.50,-0.076,-0.053,0.016,0.380,-0.137,-0.081,-33.356,12.576,30.792
1747666188.51,-0.056,-0.063,0.016,0.361,-0.086,-0.113,-33.161,12.446,30.672
1747666188.53,-0.031,-0.054,0.022,0.330,-0.009,-0.105,-32.982,12.349,30.755
1747666188.53,0.007,-0.027,0.004,0.291,-0.022,-0.063,-32.820,12.286,30.653
1747666188.54,0.046,0.020,-0.043,0.226,-0.022,-0.021,-32.680,12.237,30.801
1747666188.55,0.081,0.065,-0.045,0.183,0.001,0.016,-32.568,12.220,30.772
1747666188.56,0.064,0.083,0.003,0.185,0.003,0.019,-32.463,12.212,30.962
1747666188.57,0.026,0.074,0.033,0.211,0.004,0.026,-32.351,12.208,30.949
1747666188.58,0.008,0.042,0.036,0.255,-0.005,0.022,-32.218,12.199,31.145
1747666188.59,0.004,0.003,0.041,0.299,-0.027,0.005,-32.061,12.175,31.113
1747666188.60,0.020,-0.029,0.016,0.323,-0.071,0.003,-31.886,12.125,31.293
1747666188.61,0.035,-0.047,-0.029,0.319,-0.108,-0.002,-31.706,12.048,31.249
1747666188.62,0.047,-0.041,-0.041,0.314,-0.104,-0.012,-31.530,11.962,31.395
1747666188.63,0.043,-0.025,-0.029,0.300,-0.081,-0.027,-31.360,11.879,31.340
1747666188.64,0.033,-0.009,-0.050,0.261,-0.067,-0.018,-31.206,11.809,31.471
1747666188.65,0.031,0.002,-0.069,0.238,-0.103,0.009,-31.067,11.741,31.434
1747666188.66,0.046,0.010,-0.049,0.214,-0.103,0.035,-30.937,11.674,31.601
1747666188.67,0.064,0.012,-0.019,0.202,-0.138,0.046,-30.816,11.606,31.600
1747666188.68,0.054,0.002,0.011,0.216,-0.159,0.068,-30.693,11.523,31.785
1747666188.69,0.043,-0.009,0.056,0.232,-0.133,0.082,-30.559,11.450,31.804
1747666188.70,0.029,-0.023,0.054,0.268,-0.132,0.106,-30.408,11.389,32.024
1747666188.71,0.036,-0.028,0.026,0.278,-0.115,0.137,-30.239,11.339,32.068
1747666188.72,0.054,-0.015,-0.008,0.246,-0.085,0.151,-30.076,11.312,32.312
1747666188.73,0.051,-0.005,-0.049,0.209,-0.079,0.156,-29.932,11.302,32.382
1747666188.74,0.012,-0.003,-0.076,0.178,-0.074,0.166,-29.805,11.297,32.635
1747666188.75,-0.027,-0.001,-0.071,0.152,-0.061,0.171,-29.694,11.302,32.723
1747666188.76,-0.038,0.001,-0.043,0.154,-0.055,0.156,-29.589,11.311,32.987
1747666188.77,-0.018,0.000,-0.017,0.172,-0.076,0.136,-29.480,11.311,33.060
1747666188.78,0.012,-0.006,-0.014,0.164,-0.123,0.113,-29.373,11.283,33.301
1747666188.79,0.029,0.012,-0.008,0.164,-0.143,0.093,-29.269,11.228,33.346
1747666188.80,0.013,0.023,0.009,0.155,-0.133,0.084,-29.169,11.167,33.560
1747666188.81,-0.033,0.040,-0.019,0.128,-0.089,0.080,-29.079,11.122,33.596
1747666188.82,-0.083,0.058,-0.057,0.058,-0.038,0.087,-29.016,11.104,33.815
1747666188.83,-0.117,0.075,-0.084,-0.035,-0.003,0.096,-28.999,11.119,33.871
1747666188.84,-0.121,0.092,-0.095,-0.064,0.053,0.072,-29.020,11.161,34.117
1747666188.85,-0.092,0.109,-0.063,-0.051,0.104,0.012,-29.047,11.224,34.152
1747666188.86,-0.057,0.096,-0.050,-0.079,0.061,-0.052,-29.084,11.272,34.325
1747666188.87,-0.019,0.047,-0.058,-0.113,-0.025,-0.079,-29.146,11.267,34.295
1747666188.88,0.023,0.009,-0.062,-0.147,-0.066,-0.080,-29.228,11.223,34.447
1747666188.89,0.054,0.013,-0.073,-0.175,-0.111,-0.101,-29.330,11.153,34.409
1747666188.90,0.077,0.039,-0.063,-0.199,-0.095,-0.090,-29.445,11.068,34.562
1747666188.91,0.078,0.070,-0.007,-0.229,-0.031,-0.081,-29.574,11.016,34.533
1747666188.92,0.026,0.072,-0.011,-0.292,-0.009,-0.070,-29.727,10.994,34.694
1747666188.93,-0.012,0.035,-0.072,-0.375,0.061,-0.043,-29.923,11.006,34.697
1747666188.94,-0.009,-0.020,-0.101,-0.407,0.168,-0.015,-30.147,11.086,34.903
1747666188.95,0.010,-0.037,-0.072,-0.432,0.220,-0.010,-30.384,11.223,34.949
1747666188.96,0.029,-0.010,-0.054,-0.461,0.222,-0.031,-30.635,11.375,35.161
1747666188.97,0.026,0.027,-0.030,-0.488,0.184,-0.079,-30.906,11.506,35.188
1747666188.98,0.018,0.043,-0.022,-0.486,0.129,-0.113,-31.190,11.596,35.342
1747666188.99,0.020,0.036,-0.022,-0.522,0.107,-0.135,-31.485,11.653,35.328
1747666189.00,0.016,0.015,-0.034,-0.571,0.099,-0.158,-31.806,11.701,35.438
1747666189.01,-0.013,-0.002,-0.069,-0.614,0.048,-0.150,-32.156,11.732,35.416
1747666189.02,-0.058,-0.004,-0.087,-0.662,0.059,-0.119,-32.530,11.758,35.557
1747666189.03,-0.073,-0.001,-0.083,-0.694,0.144,-0.105,-32.923,11.826,35.577
1747666189.04,-0.052,-0.018,-0.082,-0.716,0.186,-0.101,-33.329,11.940,35.734
1747666189.05,-0.003,-0.052,-0.096,-0.755,0.162,-0.115,-33.752,12.059,35.768
1747666189.06,0.075,-0.082,-0.092,-0.790,0.134,-0.142,-34.199,12.159,35.934
1747666189.07,0.139,-0.107,-0.077,-0.790,0.092,-0.187,-34.662,12.226,35.938
1747666189.08,0.165,-0.124,-0.049,-0.767,0.043,-0.210,-35.119,12.253,36.055
1747666189.09,0.136,-0.133,-0.028,-0.773,-0.024,-0.202,-35.574,12.242,36.026
1747666189.10,0.070,-0.137,-0.028,-0.774,-0.049,-0.164,-36.029,12.210,36.123
1747666189.11,0.003,-0.129,-0.034,-0.775,0.012,-0.126,-36.478,12.208,36.139
1747666189.12,-0.052,-0.107,-0.039,-0.802,0.113,-0.104,-36.931,12.267,36.273
1747666189.13,-0.077,-0.081,-0.027,-0.841,0.203,-0.096,-37.401,12.391,36.329
1747666189.14,-0.062,-0.058,-0.014,-0.872,0.251,-0.081,-37.890,12.565,36.482
1747666189.15,-0.025,-0.037,-0.021,-0.899,0.300,-0.065,-38.393,12.777,36.572
1747666189.16,0.028,-0.019,-0.011,-0.917,0.336,-0.047,-38.907,13.030,36.746
1747666189.17,0.063,0.002,-0.028,-0.924,0.281,-0.054,-39.424,13.284,36.865
1747666189.18,0.073,0.028,-0.050,-0.939,0.174,-0.086,-39.951,13.485,37.037
1747666189.19,0.050,0.048,-0.038,-0.925,0.064,-0.127,-40.484,13.608,37.124
1747666189.20,0.005,0.054,-0.018,-0.895,-0.002,-0.174,-41.008,13.658,37.199
1747666189.21,-0.034,0.033,-0.027,-0.898,-0.040,-0.198,-41.530,13.659,37.221
1747666189.22,-0.045,-0.008,-0.040,-0.927,-0.041,-0.189,-42.062,13.648,37.267
1747666189.23,-0.020,-0.057,-0.025,-0.951,-0.003,-0.150,-42.607,13.662,37.309
1747666189.24,0.024,-0.087,-0.011,-0.942,0.035,-0.108,-43.151,13.725,37.404
1747666189.25,0.058,-0.093,-0.029,-0.940,0.060,-0.072,-43.684,13.826,37.501
1747666189.26,0.076,-0.087,-0.018,-0.947,0.077,-0.051,-44.215,13.960,37.636
1747666189.27,0.067,-0.080,-0.008,-0.951,0.067,-0.038,-44.746,14.107,37.776
1747666189.28,0.040,-0.070,-0.023,-0.938,0.032,-0.036,-45.274,14.251,37.936
1747666189.29,0.003,-0.058,-0.047,-0.945,-0.019,-0.049,-45.799,14.365,38.049
1747666189.30,-0.019,-0.052,-0.023,-0.977,0.013,-0.067,-46.339,14.470,38.202
1747666189.31,-0.031,-0.045,0.006,-0.987,0.054,-0.098,-46.896,14.591,38.298
1747666189.32,-0.041,-0.030,-0.006,-0.983,0.056,-0.104,-47.454,14.714,38.423
1747666189.33,-0.033,-0.007,-0.005,-1.013,0.077,-0.106,-48.021,14.848,38.515
1747666189.34,-0.020,0.023,0.012,-1.014,0.083,-0.111,-48.597,14.995,38.650
1747666189.35,-0.015,0.049,0.013,-0.995,0.043,-0.110,-49.168,15.133,38.723
1747666189.36,-0.012,0.071,0.008,-0.991,0.023,-0.119,-49.732,15.249,38.855
1747666189.37,0.001,0.085,0.026,-0.988,0.050,-0.126,-50.296,15.366,38.909
1747666189.38,0.008,0.085,0.039,-0.979,0.052,-0.140,-50.858,15.490,39.028
1747666189.39,0.014,0.073,0.019,-0.987,0.039,-0.148,-51.420,15.601,39.069
1747666189.40,0.032,0.057,0.022,-1.022,0.060,-0.145,-51.996,15.723,39.189
1747666189.41,0.046,0.042,0.039,-1.049,0.078,-0.138,-52.588,15.871,39.252
1747666189.42,0.053,0.032,0.036,-1.051,0.120,-0.134,-53.185,16.047,39.403
1747666189.43,0.043,0.026,0.022,-1.053,0.144,-0.149,-53.784,16.245,39.486
1747666189.44,0.009,0.020,-0.004,-1.057,0.083,-0.170,-54.388,16.424,39.626
1747666189.45,-0.027,0.017,-0.006,-1.057,0.023,-0.177,-54.994,16.560,39.678
1747666189.46,-0.050,0.019,0.017,-1.066,0.001,-0.179,-55.605,16.673,39.810
1747666189.47,-0.057,0.024,0.015,-1.076,0.013,-0.188,-56.220,16.789,39.854
1747666189.48,-0.048,0.026,0.015,-1.067,0.034,-0.198,-56.839,16.912,39.985
1747666189.49,-0.029,0.020,0.014,-1.075,0.094,-0.211,-57.456,17.051,40.003
1747666189.50,0.006,0.001,0.015,-1.082,0.151,-0.226,-58.083,17.222,40.119
1747666189.51,0.040,-0.025,-0.024,-1.071,0.156,-0.232,-58.709,17.404,40.125
1747666189.52,0.065,-0.050,-0.050,-1.078,0.129,-0.230,-59.332,17.582,40.238
1747666189.53,0.087,-0.063,-0.020,-1.103,0.111,-0.221,-59.965,17.764,40.247
1747666189.54,0.089,-0.056,-0.003,-1.109,0.092,-0.214,-60.605,17.955,40.401
1747666189.55,0.074,-0.035,-0.004,-1.118,0.037,-0.209,-61.245,18.139,40.433
1747666189.56,0.062,-0.018,0.027,-1.169,-0.001,-0.185,-61.900,18.326,40.637
1747666189.57,0.073,-0.011,0.045,-1.188,-0.009,-0.146,-62.570,18.560,40.757
1747666189.58,0.079,-0.003,0.000,-1.166,-0.108,-0.125,-63.232,18.811,41.073
1747666189.59,0.082,-0.004,-0.061,-1.185,-0.226,-0.129,-63.888,19.012,41.268
1747666189.60,0.093,-0.021,-0.053,-1.200,-0.242,-0.166,-64.562,19.175,41.601
1747666189.61,0.067,-0.038,-0.035,-1.113,-0.229,-0.224,-65.224,19.285,41.733
1747666189.62,-0.008,-0.043,-0.049,-1.070,-0.260,-0.271,-65.856,19.299,41.902
1747666189.63,-0.070,-0.036,-0.035,-1.080,-0.235,-0.288,-66.488,19.268,41.872
1747666189.64,-0.103,-0.016,-0.026,-1.093,-0.124,-0.292,-67.129,19.276,41.994
1747666189.65,-0.128,-0.003,0.016,-1.107,-0.036,-0.295,-67.777,19.350,41.979
1747666189.66,-0.117,-0.007,0.049,-1.141,0.031,-0.275,-68.437,19.496,42.138
1747666189.67,-0.054,-0.017,0.020,-1.142,0.089,-0.236,-69.102,19.742,42.212
1747666189.68,0.024,-0.019,-0.015,-1.118,0.056,-0.200,-69.751,20.064,42.506
1747666189.69,0.076,-0.021,-0.034,-1.087,-0.080,-0.185,-70.379,20.375,42.682
1747666189.70,0.114,-0.027,-0.032,-1.025,-0.131,-0.188,-70.981,20.634,43.025
1747666189.71,0.113,-0.035,-0.017,-0.921,-0.130,-0.226,-71.543,20.816,43.142
1747666189.72,0.038,-0.038,-0.042,-0.828,-0.127,-0.286,-72.059,20.864,43.270
1747666189.73,-0.058,-0.040,-0.025,-0.842,-0.080,-0.316,-72.563,20.824,43.102
1747666189.74,-0.133,-0.034,-0.015,-0.890,-0.044,-0.308,-73.089,20.820,43.132
1747666189.75,-0.177,-0.017,-0.068,-0.923,-0.058,-0.291,-73.634,20.872,43.031
1747666189.76,-0.140,-0.002,-0.070,-0.927,0.055,-0.274,-74.187,20.998,43.170
1747666189.77,-0.035,-0.007,0.010,-0.891,0.247,-0.257,-74.727,21.248,43.152
1747666189.78,0.050,-0.014,0.075,-0.856,0.382,-0.231,-75.242,21.626,43.354
1747666189.79,0.080,-0.020,0.071,-0.833,0.403,-0.197,-75.736,22.112,43.434
1747666189.80,0.061,-0.023,0.029,-0.800,0.333,-0.174,-76.207,22.643,43.762
1747666189.81,0.015,-0.015,-0.026,-0.793,0.184,-0.171,-76.663,23.147,43.932
1747666189.82,-0.010,-0.012,-0.043,-0.802,0.090,-0.163,-77.119,23.618,44.342
1747666189.83,0.011,-0.017,-0.001,-0.794,0.077,-0.152,-77.573,24.123,44.601
1747666189.84,0.034,-0.015,-0.005,-0.764,0.029,-0.150,-78.015,24.647,45.107
1747666189.85,0.056,-0.002,-0.024,-0.745,0.012,-0.169,-78.442,25.131,45.377
1747666189.86,0.096,0.004,0.016,-0.781,0.014,-0.189,-78.878,25.603,45.850
1747666189.87,0.117,0.009,0.058,-0.820,-0.038,-0.204,-79.339,26.111,46.166
1747666189.88,0.103,0.012,0.076,-0.812,-0.078,-0.208,-79.811,26.636,46.735
1747666189.89,0.075,0.018,0.081,-0.766,-0.111,-0.199,-80.267,27.155,47.112
1747666189.90,0.019,0.029,0.047,-0.698,-0.179,-0.205,-80.692,27.615,47.661
1747666189.91,-0.043,0.030,-0.019,-0.676,-0.245,-0.232,-81.094,27.941,47.909
1747666189.92,-0.080,0.012,-0.029,-0.696,-0.253,-0.259,-81.505,28.189,48.307
1747666189.93,-0.101,-0.014,0.005,-0.686,-0.157,-0.281,-81.928,28.424,48.455
1747666189.94,-0.125,-0.027,0.016,-0.618,-0.047,-0.289,-82.334,28.623,48.712
1747666189.95,-0.158,-0.023,-0.012,-0.542,-0.020,-0.275,-82.701,28.735,48.642
1747666189.96,-0.169,-0.021,-0.047,-0.486,0.004,-0.242,-83.028,28.818,48.733
1747666189.97,-0.142,-0.012,-0.043,-0.461,0.126,-0.227,-83.328,28.965,48.649
1747666189.98,-0.091,0.012,-0.031,-0.471,0.263,-0.210,-83.621,29.262,48.833
1747666189.99,-0.045,0.054,-0.054,-0.515,0.360,-0.196,-83.922,29.791,48.992
1747666190.00,-0.036,0.085,-0.025,-0.558,0.476,-0.221,-84.247,30.532,49.499
1747666190.01,-0.051,0.076,0.068,-0.583,0.573,-0.238,-84.594,31.394,49.860
1747666190.02,-0.060,0.032,0.144,-0.589,0.649,-0.223,-84.950,32.451,50.570
1747666190.03,-0.051,-0.027,0.146,-0.570,0.645,-0.183,-85.291,33.801,51.351
1747666190.04,-0.041,-0.081,0.122,-0.543,0.598,-0.148,-85.606,35.450,52.648
1747666190.05,-0.011,-0.093,0.096,-0.542,0.588,-0.112,-85.897,37.457,54.232
1747666190.06,0.031,-0.064,0.083,-0.570,0.619,-0.092,-86.181,40.020,56.454
1747666190.07,0.040,-0.020,0.074,-0.597,0.573,-0.088,-86.464,43.233,59.329
1747666190.08,0.024,0.025,0.029,-0.596,0.425,-0.109,-86.745,46.962,62.777
1747666190.09,0.015,0.034,0.006,-0.559,0.329,-0.166,-87.020,50.794,66.403
1747666190.10,0.039,0.012,0.011,-0.538,0.294,-0.207,-87.295,54.682,70.118
1747666190.11,0.079,-0.016,0.013,-0.499,0.252,-0.220,-87.560,58.853,74.136
1747666190.12,0.111,-0.028,-0.011,-0.444,0.165,-0.201,-87.796,63.358,78.523
1747666190.13,0.135,-0.024,-0.049,-0.394,0.006,-0.169,-87.991,68.140,83.257
1747666190.14,0.141,-0.007,-0.096,-0.362,-0.210,-0.140,-88.145,73.263,88.441
1747666190.15,0.121,0.008,-0.112,-0.334,-0.344,-0.149,-88.274,78.695,94.038
1747666190.16,0.096,-0.004,-0.093,-0.288,-0.410,-0.153,-88.388,84.065,99.626
1747666190.17,0.084,-0.039,-0.077,-0.254,-0.376,-0.135,-88.480,89.344,105.137
1747666190.18,0.078,-0.056,-0.054,-0.214,-0.242,-0.106,-88.544,94.395,110.367
1747666190.19,0.052,-0.043,-0.046,-0.181,-0.166,-0.080,-88.583,98.979,115.064
1747666190.20,0.014,0.000,-0.051,-0.173,-0.155,-0.049,-88.600,103.204,119.382
1747666190.21,-0.011,0.052,-0.025,-0.177,-0.133,-0.030,-88.595,107.295,123.557
1747666190.22,-0.031,0.070,-0.004,-0.165,-0.122,-0.006,-88.572,111.137,127.473
1747666190.23,-0.053,0.046,-0.023,-0.132,-0.089,0.009,-88.539,114.128,130.525
1747666190.24,-0.071,0.005,-0.038,-0.122,-0.031,0.022,-88.500,116.406,132.840
1747666190.25,-0.088,-0.026,-0.038,-0.142,0.043,0.026,-88.454,118.687,135.117
1747666190.26,-0.100,-0.034,-0.029,-0.151,0.118,0.028,-88.398,121.149,137.535
1747666190.27,-0.110,-0.015,-0.012,-0.122,0.194,0.006,-88.346,123.376,139.673
1747666190.28,-0.118,0.022,0.001,-0.095,0.215,-0.033,-88.318,125.366,141.546
1747666190.29,-0.111,0.046,0.021,-0.075,0.254,-0.055,-88.310,127.362,143.411
1747666190.30,-0.089,0.040,0.050,-0.038,0.302,-0.055,-88.315,129.070,144.960
1747666190.31,-0.063,0.026,0.047,0.010,0.326,-0.041,-88.332,130.052,145.762
1747666190.32,-0.039,0.013,0.025,0.026,0.339,-0.015,-88.353,130.235,145.755
1747666190.33,-0.016,-0.006,0.043,-0.008,0.311,0.014,-88.360,130.299,145.630
1747666190.34,-0.000,-0.029,0.049,-0.034,0.256,0.042,-88.343,130.493,145.665
1747666190.35,0.014,-0.038,0.056,0.006,0.249,0.051,-88.320,130.397,145.423
1747666190.36,0.022,-0.031,0.049,0.048,0.207,0.052,-88.313,129.572,144.468
1747666190.37,0.025,-0.023,0.039,0.073,0.117,0.052,-88.314,128.216,143.016
1747666190.38,0.026,-0.010,0.027,0.111,0.003,0.053,-88.323,126.352,141.118
1747666190.39,0.034,0.014,0.017,0.173,-0.048,0.051,-88.346,123.528,138.307
1747666190.40,0.046,0.040,0.028,0.227,-0.085,0.049,-88.383,119.587,134.402
1747666190.41,0.035,0.046,0.052,0.229,-0.141,0.053,-88.417,114.919,129.798
1747666190.42,0.009,0.028,0.070,0.236,-0.136,0.058,-88.437,110.029,124.990
1747666190.43,-0.027,0.006,0.078,0.267,-0.091,0.057,-88.447,104.690,119.712
1747666190.44,-0.067,-0.003,0.063,0.276,-0.093,0.044,-88.449,98.891,113.963
1747666190.45,-0.096,-0.001,0.046,0.277,-0.109,0.041,-88.440,93.095,108.223
1747666190.46,-0.093,0.002,0.036,0.297,-0.122,0.050,-88.414,87.120,102.313
1747666190.47,-0.066,0.011,0.047,0.314,-0.077,0.070,-88.361,81.072,96.322
1747666190.48,-0.023,0.025,0.081,0.310,-0.007,0.104,-88.276,75.532,90.803
1747666190.49,0.006,0.024,0.104,0.330,0.019,0.150,-88.153,70.781,86.043
1747666190.50,-0.007,0.002,0.066,0.347,-0.076,0.175,-87.994,66.414,81.686
1747666190.51,-0.018,-0.030,0.033,0.343,-0.155,0.172,-87.821,62.657,77.997
1747666190.52,0.006,-0.052,0.036,0.367,-0.159,0.180,-87.635,59.362,74.790
1747666190.53,0.047,-0.050,0.026,0.402,-0.196,0.206,-87.424,56.275,71.802
1747666190.54,0.085,-0.022,0.004,0.448,-0.204,0.212,-87.187,53.434,69.074
1747666190.55,0.114,0.021,0.011,0.523,-0.243,0.208,-86.922,50.491,66.253
1747666190.56,0.112,0.047,0.044,0.591,-0.303,0.223,-86.620,47.468,63.380
1747666190.57,0.070,0.049,0.082,0.616,-0.440,0.243,-86.284,44.720,60.835
1747666190.58,-0.021,0.028,0.074,0.601,-0.601,0.231,-85.937,42.336,58.746
1747666190.59,-0.096,-0.011,0.069,0.574,-0.644,0.195,-85.604,40.230,56.998
1747666190.60,-0.110,-0.048,0.056,0.566,-0.626,0.158,-85.289,38.272,55.395
1747666190.61,-0.076,-0.068,0.017,0.600,-0.657,0.150,-84.973,36.354,53.838
1747666190.62,-0.009,-0.058,-0.031,0.660,-0.665,0.158,-84.628,34.460,52.316
1747666190.63,0.070,-0.021,-0.041,0.740,-0.610,0.177,-84.243,32.647,50.863
1747666190.64,0.105,0.026,-0.039,0.839,-0.517,0.198,-83.803,30.919,49.450
1747666190.65,0.068,0.065,-0.009,0.867,-0.431,0.214,-83.319,29.381,48.171
1747666190.66,-0.031,0.083,-0.019,0.847,-0.488,0.203,-82.832,28.057,47.098
1747666190.67,-0.146,0.072,-0.047,0.806,-0.479,0.180,-82.362,26.842,46.159
1747666190.68,-0.205,0.029,0.016,0.757,-0.244,0.163,-81.920,25.833,45.355
1747666190.69,-0.207,-0.022,0.084,0.794,0.040,0.178,-81.482,25.082,44.652
1747666190.70,-0.189,-0.053,0.056,0.831,0.211,0.222,-81.010,24.555,44.043
1747666190.71,-0.138,-0.051,0.012,0.785,0.362,0.265,-80.532,24.328,43.648
1747666190.72,-0.070,-0.039,0.008,0.794,0.472,0.291,-80.057,24.337,43.243
1747666190.73,-0.020,-0.028,0.009,0.819,0.457,0.310,-79.566,24.423,43.056
1747666190.74,-0.003,0.003,0.012,0.851,0.380,0.310,-79.058,24.472,42.693
1747666190.75,-0.002,0.025,-0.001,0.873,0.355,0.309,-78.537,24.466,42.475
1747666190.76,-0.012,0.024,-0.016,0.888,0.407,0.281,-78.008,24.423,42.039
1747666190.77,-0.021,0.009,-0.010,0.830,0.446,0.255,-77.496,24.366,41.730
1747666190.78,-0.021,-0.009,0.019,0.752,0.476,0.262,-77.026,24.402,41.329
1747666190.79,0.006,-0.024,0.042,0.722,0.484,0.280,-76.577,24.537,41.183
1747666190.80,0.061,-0.021,0.078,0.667,0.374,0.297,-76.148,24.725,40.951
1747666190.81,0.111,-0.011,0.050,0.680,0.230,0.313,-75.728,24.885,40.942
1747666190.82,0.162,-0.013,0.018,0.698,0.196,0.333,-75.292,25.009,40.782
1747666190.83,0.193,-0.029,0.029,0.758,0.153,0.337,-74.837,25.105,40.776
1747666190.84,0.174,-0.033,-0.012,0.870,0.033,0.327,-74.333,25.065,40.517
1747666190.85,0.128,-0.006,-0.038,0.807,-0.113,0.303,-73.817,24.898,40.369
1747666190.86,0.060,0.027,0.043,0.719,-0.126,0.250,-73.360,24.706,40.094
1747666190.87,-0.034,0.053,0.056,0.763,-0.116,0.170,-72.926,24.415,39.861
1747666190.88,-0.122,0.060,-0.006,0.742,-0.116,0.120,-72.498,24.013,39.369
1747666190.89,-0.129,0.023,-0.033,0.678,-0.078,0.121,-72.101,23.639,39.037
1747666190.90,-0.071,-0.026,-0.020,0.685,0.013,0.141,-71.719,23.359,38.629
1747666190.91,-0.001,-0.047,0.010,0.742,0.133,0.175,-71.308,23.166,38.382
1747666190.92,0.049,-0.034,0.032,0.740,0.213,0.201,-70.874,23.070,38.060
1747666190.93,0.060,0.005,0.046,0.740,0.222,0.189,-70.443,23.025,37.876
1747666190.94,0.017,0.051,0.030,0.709,0.129,0.136,-70.023,22.915,37.539
1747666190.95,-0.036,0.093,0.011,0.671,0.042,0.076,-69.638,22.699,37.258
1747666190.96,-0.043,0.110,0.019,0.659,0.062,0.030,-69.276,22.405,36.810
1747666190.97,-0.024,0.086,0.088,0.649,0.125,0.013,-68.927,22.120,36.443
1747666190.98,-0.009,0.041,0.041,0.678,0.088,0.021,-68.572,21.843,35.976
1747666190.99,0.004,0.009,-0.017,0.674,0.008,0.047,-68.205,21.554,35.634
1747666191.00,0.015,-0.024,-0.021,0.679,-0.065,0.077,-67.834,21.274,35.254
1747666191.01,0.020,-0.061,-0.052,0.744,-0.115,0.073,-67.441,20.967,34.978
1747666191.02,0.016,-0.072,-0.064,0.815,-0.098,0.035,-67.013,20.595,34.543
1747666191.03,0.013,-0.064,-0.042,0.857,-0.026,0.013,-66.557,20.196,34.147
1747666191.04,-0.020,-0.053,-0.010,0.777,0.038,0.022,-66.113,19.853,33.681
1747666191.05,-0.076,-0.049,-0.026,0.665,0.169,0.058,-65.717,19.647,33.393
1747666191.06,-0.090,-0.056,-0.016,0.572,0.283,0.120,-65.370,19.625,33.147
1747666191.07,-0.075,-0.060,-0.010,0.562,0.353,0.189,-65.037,19.752,33.087
1747666191.08,-0.009,-0.053,-0.016,0.527,0.392,0.249,-64.702,19.994,33.067
1747666191.09,0.088,-0.044,-0.004,0.544,0.316,0.302,-64.365,20.294,33.172
1747666191.10,0.176,-0.041,-0.025,0.624,0.179,0.328,-63.989,20.546,33.256
1747666191.11,0.227,-0.038,-0.031,0.714,0.095,0.325,-63.565,20.705,33.350
1747666191.12,0.211,-0.023,-0.018,0.726,0.024,0.284,-63.114,20.772,33.341
1747666191.13,0.122,-0.007,-0.039,0.645,-0.024,0.222,-62.695,20.763,33.294
1747666191.14,0.027,-0.001,-0.062,0.576,-0.063,0.171,-62.332,20.704,33.255
1747666191.15,-0.034,-0.005,-0.050,0.561,-0.103,0.136,-61.998,20.590,33.161
1747666191.16,-0.038,-0.022,0.008,0.570,-0.093,0.148,-61.669,20.461,33.081
1747666191.17,0.015,-0.040,-0.001,0.592,-0.040,0.173,-61.324,20.366,32.990
1747666191.18,0.068,-0.039,-0.007,0.557,-0.012,0.181,-60.980,20.319,32.950
1747666191.19,0.075,-0.024,-0.009,0.552,-0.107,0.178,-60.648,20.266,32.890
1747666191.20,0.052,0.013,-0.029,0.572,-0.232,0.157,-60.315,20.128,32.847
1747666191.21,0.047,0.049,-0.001,0.618,-0.217,0.132,-59.969,19.927,32.750
1747666191.22,0.046,0.050,0.012,0.685,-0.148,0.111,-59.596,19.717,32.629
1747666191.23,0.032,0.033,-0.031,0.702,-0.094,0.116,-59.198,19.522,32.483
1747666191.24,0.032,0.001,-0.034,0.629,-0.074,0.135,-58.814,19.380,32.369
1747666191.25,0.022,-0.036,-0.025,0.564,-0.168,0.152,-58.467,19.257,32.302
1747666191.26,0.006,-0.069,-0.063,0.522,-0.223,0.212,-58.141,19.133,32.291
1747666191.27,0.030,-0.091,-0.037,0.505,-0.253,0.287,-57.818,19.059,32.364
1747666191.28,0.036,-0.085,-0.011,0.511,-0.295,0.310,-57.489,19.012,32.494
1747666191.29,0.018,-0.057,0.006,0.566,-0.308,0.290,-57.146,18.940,32.614
1747666191.30,-0.020,-0.016,0.028,0.659,-0.334,0.235,-56.767,18.801,32.667
1747666191.31,-0.076,0.026,-0.029,0.685,-0.286,0.160,-56.363,18.591,32.634
1747666191.32,-0.109,0.044,-0.060,0.638,-0.081,0.089,-55.982,18.405,32.540
1747666191.33,-0.161,0.048,-0.050,0.636,0.036,0.033,-55.628,18.278,32.396
1747666191.34,-0.226,0.052,-0.060,0.631,0.035,0.024,-55.279,18.153,32.220
1747666191.35,-0.214,0.052,-0.001,0.595,0.094,0.039,-54.942,18.055,32.059
1747666191.36,-0.132,0.058,0.068,0.536,0.177,0.044,-54.627,18.023,31.924
1747666191.37,-0.066,0.068,0.082,0.486,0.193,0.036,-54.344,18.037,31.807
1747666191.38,-0.044,0.067,0.057,0.482,0.123,0.052,-54.075,18.044,31.700
1747666191.39,-0.043,0.062,0.021,0.476,0.010,0.066,-53.805,18.009,31.611
1747666191.40,-0.022,0.059,0.013,0.501,-0.050,0.041,-53.532,17.922,31.520
1747666191.41,0.011,0.066,0.015,0.600,-0.076,0.004,-53.230,17.770,31.379
1747666191.42,0.036,0.076,-0.007,0.651,-0.015,-0.032,-52.886,17.586,31.185
1747666191.43,0.052,0.081,0.002,0.584,0.083,-0.070,-52.558,17.429,30.964
1747666191.44,0.053,0.064,0.009,0.518,0.115,-0.082,-52.271,17.311,30.740
1747666191.45,0.034,0.024,0.022,0.469,0.080,-0.041,-52.015,17.215,30.548
1747666191.46,0.048,-0.024,0.042,0.462,0.040,0.045,-51.762,17.151,30.422
1747666191.47,0.079,-0.050,0.046,0.475,-0.003,0.112,-51.493,17.118,30.366
1747666191.48,0.100,-0.041,0.051,0.506,-0.030,0.137,-51.204,17.092,30.345
1747666191.49,0.094,-0.017,0.043,0.541,-0.063,0.120,-50.898,17.045,30.338
1747666191.50,0.085,-0.006,-0.003,0.571,-0.087,0.088,-50.577,16.957,30.281
1747666191.50,0.084,-0.015,-0.051,0.587,-0.110,0.050,-50.249,16.831,30.229
1747666191.52,0.070,-0.035,-0.072,0.597,-0.160,0.011,-49.919,16.657,30.101
1747666191.52,0.064,-0.061,-0.099,0.559,-0.165,-0.000,-49.598,16.451,30.002
1747666191.53,0.082,-0.086,-0.053,0.498,-0.142,0.011,-49.308,16.269,29.875
1747666191.54,0.074,-0.102,-0.019,0.466,-0.186,0.055,-49.039,16.109,29.837
1747666191.55,0.057,-0.095,-0.006,0.443,-0.198,0.112,-48.777,15.969,29.798
1747666191.56,0.044,-0.072,0.019,0.449,-0.189,0.158,-48.511,15.866,29.874
1747666191.57,0.018,-0.045,0.008,0.486,-0.218,0.180,-48.228,15.772,29.905
1747666191.58,0.004,-0.020,0.009,0.553,-0.224,0.179,-47.915,15.666,30.013
1747666191.59,0.000,-0.001,0.029,0.605,-0.204,0.161,-47.570,15.547,30.021
1747666191.60,0.008,0.006,0.024,0.632,-0.142,0.137,-47.206,15.434,30.094
1747666191.61,0.032,0.010,-0.029,0.599,-0.086,0.108,-46.845,15.344,30.057
1747666191.62,0.013,0.013,-0.066,0.512,-0.120,0.083,-46.527,15.255,30.102
1747666191.63,-0.021,0.009,-0.045,0.490,-0.177,0.108,-46.240,15.144,30.069
1747666191.64,-0.028,0.012,0.008,0.502,-0.194,0.134,-45.949,15.029,30.146
1747666191.65,-0.023,0.031,0.032,0.529,-0.172,0.146,-45.645,14.926,30.149
1747666191.66,-0.020,0.043,0.022,0.587,-0.188,0.139,-45.317,14.822,30.222
1747666191.67,-0.023,0.042,0.019,0.617,-0.222,0.128,-44.964,14.689,30.203
1747666191.68,-0.009,0.032,0.038,0.618,-0.230,0.101,-44.605,14.535,30.269
1747666191.69,0.031,0.018,0.025,0.622,-0.229,0.077,-44.249,14.364,30.212
1747666191.70,0.075,0.004,0.023,0.630,-0.206,0.055,-43.894,14.191,30.254
1747666191.71,0.102,-0.003,-0.016,0.633,-0.136,0.029,-43.536,14.031,30.164
1747666191.72,0.102,-0.023,-0.054,0.556,-0.148,0.015,-43.202,13.887,30.174
1747666191.73,0.053,-0.059,-0.078,0.487,-0.225,0.046,-42.911,13.728,30.098
1747666191.74,0.004,-0.078,-0.045,0.499,-0.241,0.116,-42.630,13.572,30.188
1747666191.75,-0.026,-0.042,0.010,0.525,-0.213,0.167,-42.325,13.452,30.204
1747666191.76,-0.052,0.025,0.027,0.533,-0.144,0.154,-42.010,13.368,30.358
1747666191.77,-0.068,0.075,0.043,0.549,-0.108,0.103,-41.694,13.300,30.361
1747666191.78,-0.064,0.084,0.028,0.562,-0.121,0.063,-41.374,13.211,30.447
1747666191.79,-0.011,0.063,-0.005,0.594,-0.119,0.030,-41.047,13.097,30.380
1747666191.80,0.045,0.036,-0.037,0.610,-0.106,0.013,-40.707,12.977,30.438
1747666191.81,0.047,0.027,-0.066,0.539,-0.093,-0.003,-40.384,12.857,30.344
1747666191.82,0.005,0.028,-0.067,0.455,-0.115,-0.015,-40.109,12.742,30.396
1747666191.83,-0.055,0.048,-0.036,0.418,-0.131,0.015,-39.869,12.622,30.323
1747666191.84,-0.069,0.081,0.033,0.446,-0.076,0.054,-39.625,12.533,30.424
1747666191.85,-0.058,0.108,0.079,0.493,-0.012,0.062,-39.356,12.491,30.393
1747666191.86,-0.049,0.102,0.063,0.550,-0.025,0.034,-39.060,12.453,30.498
1747666191.87,-0.036,0.069,0.021,0.583,-0.080,-0.001,-38.742,12.373,30.420
1747666191.88,-0.005,0.037,0.005,0.571,-0.120,-0.034,-38.420,12.250,30.461
1747666191.89,0.023,0.013,-0.003,0.538,-0.109,-0.076,-38.117,12.107,30.337
1747666191.90,0.018,-0.025,-0.015,0.505,-0.087,-0.098,-37.837,11.962,30.325
1747666191.91,-0.019,-0.052,-0.001,0.479,-0.036,-0.068,-37.571,11.845,30.191
1747666191.92,-0.062,-0.079,0.011,0.434,0.032,-0.004,-37.320,11.787,30.232
1747666191.93,-0.068,-0.092,0.025,0.412,0.089,0.052,-37.081,11.798,30.188
1747666191.94,-0.023,-0.084,0.006,0.420,0.068,0.093,-36.840,11.839,30.335
1747666191.95,0.082,-0.054,-0.025,0.406,0.028,0.109,-36.597,11.872,30.345
1747666191.96,0.192,-0.019,-0.019,0.406,-0.039,0.119,-36.358,11.881,30.521
1747666191.97,0.210,0.012,-0.008,0.441,-0.135,0.099,-36.110,11.840,30.535
1747666191.98,0.135,0.031,-0.007,0.476,-0.219,0.100,-35.842,11.740,30.687
1747666191.99,0.011,0.011,-0.001,0.469,-0.287,0.114,-35.564,11.596,30.693
1747666192.00,-0.075,-0.021,-0.018,0.439,-0.272,0.129,-35.297,11.445,30.867
1747666192.01,-0.100,-0.037,-0.048,0.430,-0.219,0.138,-35.040,11.322,30.899
1747666192.02,-0.103,-0.026,-0.063,0.425,-0.113,0.127,-34.785,11.246,31.097
1747666192.03,-0.061,0.006,-0.082,0.404,-0.039,0.093,-34.540,11.215,31.115
1747666192.04,-0.002,0.034,-0.053,0.372,-0.050,0.071,-34.314,11.196,31.307
1747666192.05,0.006,0.064,0.003,0.371,-0.136,0.069,-34.100,11.142,31.304
1747666192.06,-0.004,0.081,0.035,0.381,-0.209,0.088,-33.881,11.045,31.497
1747666192.07,-0.006,0.071,0.028,0.415,-0.260,0.102,-33.649,10.917,31.703
1747666192.08,-0.027,0.043,0.022,0.480,-0.230,0.090,-33.386,10.778,31.712
1747666192.09,-0.055,0.022,0.018,0.507,-0.147,0.050,-33.100,10.663,31.889
1747666192.10,-0.077,0.003,-0.039,0.505,-0.105,0.008,-32.812,10.568,31.845
1747666192.11,-0.091,-0.019,-0.048,0.515,-0.047,-0.013,-32.527,10.486,31.978
1747666192.12,-0.077,-0.042,-0.007,0.518,0.025,-0.019,-32.238,10.441,31.904
1747666192.13,-0.032,-0.047,-0.026,0.510,0.060,-0.020,-31.953,10.426,32.005
1747666192.14,0.013,-0.064,-0.059,0.463,0.020,-0.024,-31.680,10.411,31.931
1747666192.15,0.036,-0.055,-0.057,0.367,-0.018,-0.000,-31.447,10.380,32.062
1747666192.16,0.051,-0.044,-0.056,0.308,-0.066,-0.044,-31.262,10.328,32.007
1747666192.17,0.081,-0.032,-0.016,0.296,-0.097,-0.033,-31.098,10.247,32.130
1747666192.18,0.092,-0.000,0.013,0.315,-0.093,-0.003,-30.928,10.168,32.083
1747666192.19,0.074,0.051,-0.013,0.311,-0.119,0.010,-30.751,10.091,32.220
1747666192.20,0.059,0.081,-0.034,0.310,-0.135,0.043,-30.574,10.013,32.201
1747666192.21,0.055,0.082,-0.027,0.320,-0.108,0.050,-30.391,9.933,32.372
1747666192.22,0.053,0.074,-0.012,0.298,-0.101,0.041,-30.213,9.872,32.366
1747666192.23,0.046,0.048,-0.004,0.274,-0.124,0.058,-30.048,9.808,32.540
1747666192.24,0.037,0.018,0.025,0.266,-0.150,0.105,-29.889,9.741,32.564
1747666192.25,0.038,-0.003,0.027,0.268,-0.144,0.129,-29.728,9.680,32.788
1747666192.26,0.045,-0.003,0.004,0.247,-0.126,0.122,-29.569,9.628,32.842
1747666192.27,0.026,-0.005,-0.019,0.204,-0.096,0.100,-29.432,9.586,33.066
1747666192.28,-0.012,-0.015,-0.023,0.173,-0.041,0.087,-29.316,9.563,33.104
1747666192.29,-0.045,-0.030,-0.019,0.160,0.074,0.085,-29.216,9.591,33.319
1747666192.30,-0.082,-0.017,-0.033,0.175,0.058,0.093,-29.114,9.652,33.358
1747666192.31,-0.099,0.014,-0.027,0.189,0.055,0.096,-29.002,9.703,33.570
1747666192.32,-0.034,0.051,-0.008,0.212,0.036,0.061,-28.883,9.745,33.598
1747666192.33,0.021,0.062,-0.027,0.239,-0.025,0.007,-28.752,9.747,33.778
1747666192.34,0.033,0.033,-0.016,0.245,-0.073,-0.020,-28.617,9.702,33.747
1747666192.35,0.028,-0.002,-0.006,0.217,-0.073,-0.029,-28.489,9.639,33.878
1747666192.36,0.003,-0.023,-0.026,0.210,-0.045,-0.022,-28.372,9.585,33.838
1747666192.37,-0.027,-0.016,-0.053,0.214,0.031,0.009,-28.252,9.563,33.976
1747666192.38,-0.049,0.011,-0.074,0.214,0.077,0.038,-28.130,9.588,33.966
1747666192.39,-0.059,0.040,-0.074,0.217,0.076,0.034,-28.006,9.626,34.136
1747666192.40,-0.025,0.051,-0.050,0.228,0.069,0.001,-27.883,9.661,34.124
1747666192.41,0.021,0.032,-0.017,0.222,0.023,-0.033,-27.759,9.673,34.246
1747666192.42,0.032,0.006,0.032,0.206,-0.028,-0.061,-27.645,9.649,34.194
1747666192.43,0.011,-0.054,0.061,0.165,-0.056,-0.056,-27.547,9.600,34.295
1747666192.44,-0.008,-0.058,0.005,0.129,-0.048,-0.024,-27.469,9.547,34.253
1747666192.45,0.009,-0.036,-0.049,0.117,-0.007,0.011,-27.399,9.520,34.400
1747666192.46,0.035,0.031,-0.036,0.114,0.047,0.015,-27.333,9.526,34.396
1747666192.47,0.034,0.099,0.002,0.128,0.084,-0.004,-27.265,9.558,34.544
1747666192.48,0.024,0.083,0.001,0.146,0.058,0.001,-27.190,9.590,34.526
1747666192.49,0.031,0.011,-0.000,0.166,0.015,0.037,-27.102,9.610,34.667
1747666192.50,0.046,-0.029,0.000,0.184,-0.004,0.056,-27.000,9.620,34.680
1747666192.51,0.058,-0.029,-0.025,0.181,-0.026,0.040,-26.892,9.619,34.834
1747666192.52,0.041,-0.011,-0.020,0.172,-0.039,0.016,-26.788,9.597,34.832
1747666192.53,0.017,0.003,-0.005,0.173,-0.017,0.019,-26.688,9.578,34.983
1747666192.54,0.009,0.009,-0.009,0.177,-0.013,0.026,-26.586,9.570,34.979
1747666192.55,0.010,0.018,-0.023,0.149,-0.018,0.033,-26.495,9.562,35.150
1747666192.56,0.029,0.022,-0.011,0.127,-0.025,0.035,-26.421,9.556,35.157
1747666192.57,0.029,0.015,0.000,0.124,-0.042,0.058,-26.347,9.544,35.324
1747666192.58,0.014,0.002,-0.008,0.083,-0.023,0.070,-26.279,9.542,35.356
1747666192.59,-0.003,-0.003,-0.036,0.059,-0.005,0.063,-26.234,9.555,35.549
1747666192.60,-0.010,0.001,-0.044,0.093,-0.013,0.054,-26.185,9.566,35.579
1747666192.61,0.005,0.014,-0.023,0.096,-0.025,0.053,-26.125,9.566,35.767
1747666192.62,0.027,0.038,-0.009,0.060,-0.070,0.038,-26.077,9.549,35.789
1747666192.63,0.013,0.059,0.002,0.026,-0.077,0.020,-26.053,9.511,35.960
1747666192.64,0.001,0.046,0.005,0.014,-0.031,0.036,-26.042,9.489,35.976
1747666192.65,-0.016,0.017,-0.008,-0.030,-0.018,0.077,-26.042,9.494,36.172
1747666192.66,-0.023,0.022,-0.035,-0.095,-0.006,0.092,-26.069,9.519,36.235
1747666192.67,-0.012,0.053,-0.079,-0.121,-0.046,0.065,-26.122,9.531,36.458
1747666192.68,0.008,0.062,-0.074,-0.148,-0.050,0.053,-26.192,9.523,36.508
1747666192.69,0.044,0.053,-0.034,-0.161,-0.068,0.035,-26.275,9.512,36.701
1747666192.70,0.044,0.056,-0.019,-0.202,-0.103,0.005,-26.376,9.479,36.734
1747666192.71,0.040,0.066,-0.047,-0.229,-0.086,-0.029,-26.503,9.432,36.914
1747666192.72,0.044,0.058,-0.061,-0.241,-0.064,-0.015,-26.638,9.399,36.924
1747666192.73,-0.003,0.037,-0.052,-0.250,-0.021,0.025,-26.775,9.383,37.105
1747666192.74,-0.062,0.011,-0.034,-0.266,0.053,0.053,-26.917,9.415,37.156
1747666192.75,-0.066,-0.008,-0.064,-0.273,0.111,0.053,-27.063,9.491,37.358
1747666192.76,0.001,-0.011,-0.092,-0.307,0.128,-0.000,-27.223,9.585,37.408
1747666192.77,0.091,-0.007,-0.091,-0.383,0.087,-0.052,-27.419,9.658,37.558
1747666192.78,0.151,0.003,-0.081,-0.423,0.040,-0.060,-27.654,9.699,37.564
1747666192.79,0.129,0.025,-0.064,-0.465,-0.016,-0.035,-27.907,9.714,37.704
1747666192.80,0.062,0.062,-0.044,-0.530,-0.012,-0.005,-28.189,9.724,37.745
1747666192.81,0.020,0.082,-0.021,-0.563,0.032,0.017,-28.497,9.760,37.926
1747666192.82,0.021,0.072,-0.025,-0.598,0.073,0.041,-28.820,9.831,38.010
1747666192.83,0.044,0.049,-0.041,-0.649,0.079,0.059,-29.166,9.925,38.231
1747666192.84,0.069,0.027,-0.060,-0.701,0.084,0.050,-29.540,10.028,38.344
1747666192.85,0.079,0.008,-0.076,-0.758,0.097,0.015,-29.947,10.131,38.576
1747666192.86,0.061,-0.015,-0.084,-0.808,0.066,-0.013,-30.387,10.227,38.668
1747666192.87,0.025,-0.029,-0.093,-0.829,0.016,-0.021,-30.851,10.293,38.884
1747666192.88,-0.019,-0.026,-0.073,-0.836,0.029,-0.030,-31.321,10.347,38.967
1747666192.89,-0.064,-0.013,-0.051,-0.847,0.052,-0.059,-31.797,10.410,39.159
1747666192.90,-0.096,-0.002,-0.057,-0.887,0.081,-0.104,-32.292,10.473,39.210
1747666192.91,-0.093,-0.006,-0.052,-0.923,0.111,-0.137,-32.815,10.547,39.338
1747666192.92,-0.076,-0.027,-0.040,-0.931,0.118,-0.155,-33.351,10.621,39.356
1747666192.93,-0.036,-0.052,-0.037,-0.930,0.172,-0.155,-33.889,10.709,39.466
1747666192.94,0.004,-0.065,-0.053,-0.954,0.203,-0.163,-34.435,10.827,39.480
1747666192.95,0.000,-0.066,-0.082,-0.973,0.146,-0.180,-34.995,10.933,39.587
1747666192.96,-0.006,-0.059,-0.068,-0.959,0.113,-0.185,-35.557,11.006,39.589
1747666192.97,0.005,-0.049,-0.024,-0.943,0.143,-0.187,-36.110,11.078,39.665
1747666192.98,0.006,-0.041,0.007,-0.925,0.194,-0.189,-36.655,11.172,39.663
1747666192.99,-0.000,-0.044,0.013,-0.901,0.217,-0.185,-37.188,11.288,39.716
1747666193.00,-0.001,-0.058,0.013,-0.907,0.227,-0.164,-37.713,11.417,39.739
1747666193.01,0.022,-0.074,0.009,-0.929,0.217,-0.133,-38.243,11.562,39.766
1747666193.02,0.056,-0.089,-0.059,-0.959,0.163,-0.097,-38.783,11.706,39.820
1747666193.03,0.101,-0.098,-0.096,-1.006,0.125,-0.066,-39.341,11.844,39.909
1747666193.04,0.132,-0.097,-0.056,-1.025,0.077,-0.053,-39.918,11.974,40.019
1747666193.05,0.135,-0.083,-0.012,-0.997,0.036,-0.048,-40.490,12.085,40.142
1747666193.06,0.107,-0.060,-0.004,-0.973,0.017,-0.063,-41.045,12.174,40.237
1747666193.07,0.040,-0.038,-0.009,-0.974,0.012,-0.100,-41.598,12.244,40.333
1747666193.08,-0.040,-0.031,-0.017,-0.991,0.010,-0.119,-42.160,12.301,40.376
1747666193.09,-0.086,-0.047,-0.051,-1.038,0.021,-0.101,-42.738,12.364,40.458
1747666193.10,-0.081,-0.068,-0.073,-1.125,0.041,-0.048,-43.351,12.467,40.553
1747666193.11,-0.040,-0.085,-0.045,-1.165,0.097,0.006,-43.994,12.630,40.734
1747666193.12,0.016,-0.087,0.014,-1.148,0.165,0.031,-44.637,12.858,40.913
1747666193.13,0.061,-0.071,0.031,-1.103,0.200,0.028,-45.260,13.127,41.142
1747666193.14,0.074,-0.043,-0.012,-1.085,0.134,0.008,-45.864,13.382,41.317
1747666193.15,0.067,-0.011,-0.049,-1.105,0.062,-0.021,-46.473,13.583,41.521
1747666193.16,0.051,0.017,-0.025,-1.098,0.034,-0.054,-47.090,13.747,41.658
1747666193.17,0.004,0.031,-0.014,-1.094,-0.006,-0.085,-47.706,13.875,41.821
1747666193.18,-0.054,0.036,-0.030,-1.109,-0.001,-0.109,-48.330,13.980,41.909
1747666193.19,-0.104,0.027,-0.028,-1.130,0.029,-0.136,-48.968,14.086,42.041
1747666193.20,-0.132,0.008,-0.025,-1.159,0.070,-0.136,-49.620,14.211,42.099
1747666193.21,-0.121,-0.009,-0.029,-1.185,0.129,-0.129,-50.289,14.376,42.242
1747666193.22,-0.076,-0.014,-0.022,-1.185,0.183,-0.124,-50.963,14.588,42.307
1747666193.23,-0.028,-0.003,-0.012,-1.169,0.213,-0.125,-51.632,14.828,42.471
1747666193.24,0.012,0.015,0.009,-1.149,0.252,-0.137,-52.290,15.087,42.545
1747666193.25,0.027,0.031,0.002,-1.126,0.237,-0.153,-52.939,15.349,42.694
1747666193.26,0.021,0.034,-0.030,-1.126,0.159,-0.170,-53.582,15.572,42.726
1747666193.27,0.026,0.019,-0.042,-1.148,0.100,-0.189,-54.236,15.747,42.854
1747666193.28,0.051,-0.005,-0.038,-1.144,0.109,-0.204,-54.897,15.904,42.856
1747666193.29,0.069,-0.023,-0.030,-1.157,0.133,-0.217,-55.561,16.067,42.971
1747666193.30,0.063,-0.033,0.024,-1.148,0.201,-0.209,-56.228,16.258,42.979
1747666193.31,0.037,-0.027,0.049,-1.118,0.222,-0.200,-56.879,16.489,43.106
1747666193.32,-0.007,-0.018,0.029,-1.119,0.177,-0.190,-57.523,16.721,43.124
1747666193.33,-0.027,-0.019,0.025,-1.125,0.161,-0.179,-58.168,16.950,43.283
1747666193.34,-0.003,-0.026,0.006,-1.136,0.170,-0.164,-58.813,17.200,43.337
1747666193.35,0.015,-0.029,-0.027,-1.155,0.140,-0.163,-59.466,17.470,43.545
1747666193.36,0.013,-0.026,-0.051,-1.165,0.050,-0.187,-60.127,17.708,43.627
1747666193.37,0.012,-0.021,-0.038,-1.204,-0.014,-0.227,-60.807,17.881,43.819
1747666193.38,0.030,-0.022,0.006,-1.234,0.022,-0.262,-61.514,18.031,43.845
1747666193.39,0.041,-0.028,0.032,-1.185,0.020,-0.287,-62.222,18.168,43.984
1747666193.40,0.052,-0.040,0.026,-1.147,0.012,-0.275,-62.903,18.279,43.948
1747666193.41,0.074,-0.036,0.034,-1.181,0.046,-0.246,-63.579,18.429,44.099
1747666193.42,0.066,-0.013,0.019,-1.223,0.059,-0.234,-64.274,18.644,44.145
1747666193.43,0.032,0.015,-0.019,-1.243,-0.027,-0.227,-64.983,18.873,44.385
1747666193.44,0.010,0.037,-0.029,-1.221,-0.104,-0.221,-65.691,19.070,44.453
1747666193.45,0.016,0.055,0.002,-1.145,-0.098,-0.233,-66.372,19.238,44.701
1747666193.46,-0.003,0.065,0.015,-1.076,-0.095,-0.279,-67.018,19.351,44.695
1747666193.47,-0.046,0.046,0.010,-1.053,-0.091,-0.334,-67.648,19.375,44.782
1747666193.48,-0.064,0.002,0.030,-1.074,-0.019,-0.370,-68.288,19.368,44.601
1747666193.49,-0.066,-0.045,0.023,-1.061,0.036,-0.381,-68.936,19.371,44.599
1747666193.50,-0.073,-0.078,-0.002,-1.064,0.050,-0.357,-69.577,19.397,44.391
1747666193.51,-0.057,-0.090,0.016,-1.110,0.070,-0.297,-70.225,19.510,44.477
1747666193.52,-0.023,-0.076,0.046,-1.106,0.152,-0.240,-70.875,19.770,44.485
1747666193.53,-0.012,-0.041,0.035,-1.048,0.189,-0.232,-71.500,20.117,44.746
1747666193.54,-0.006,-0.007,0.023,-1.013,0.169,-0.241,-72.098,20.454,44.785
1747666193.55,0.027,0.018,0.048,-1.021,0.230,-0.245,-72.690,20.794,45.027
1747666193.56,0.054,0.037,0.068,-0.998,0.300,-0.242,-73.279,21.205,45.087
1747666193.57,0.033,0.055,0.016,-0.935,0.262,-0.253,-73.844,21.604,45.333
1747666193.58,0.008,0.047,-0.005,-0.912,0.178,-0.253,-74.387,21.940,45.343
1747666193.59,0.017,0.010,0.002,-0.913,0.180,-0.254,-74.925,22.265,45.577
1747666193.60,0.028,-0.034,-0.006,-0.904,0.222,-0.273,-75.462,22.606,45.584
1747666193.61,0.029,-0.062,-0.011,-0.931,0.226,-0.290,-76.006,22.945,45.800
1747666193.62,0.016,-0.064,0.014,-0.947,0.194,-0.293,-76.567,23.301,45.815
1747666193.63,-0.016,-0.034,-0.006,-0.931,0.140,-0.266,-77.122,23.680,46.104
1747666193.64,-0.043,0.004,-0.000,-0.963,0.128,-0.236,-77.673,24.155,46.282
1747666193.65,-0.036,0.027,0.029,-0.954,0.174,-0.251,-78.231,24.720,46.770
1747666193.66,-0.009,0.034,0.021,-0.894,0.182,-0.273,-78.773,25.250,46.966
1747666193.67,0.017,0.019,0.026,-0.850,0.165,-0.273,-79.291,25.727,47.350
1747666193.68,0.027,-0.013,0.012,-0.798,0.135,-0.271,-79.783,26.167,47.469
1747666193.69,0.022,-0.041,-0.018,-0.783,0.131,-0.272,-80.254,26.579,47.812
1747666193.70,0.016,-0.047,-0.004,-0.817,0.142,-0.252,-80.729,27.085,48.000
1747666193.71,-0.020,-0.031,-0.012,-0.847,0.067,-0.235,-81.215,27.755,48.614
1747666193.72,-0.065,-0.006,-0.061,-0.806,0.014,-0.244,-81.698,28.462,49.062
1747666193.73,-0.077,0.026,-0.062,-0.803,0.116,-0.252,-82.166,29.170,49.746
1747666193.74,-0.063,0.034,0.033,-0.838,0.327,-0.249,-82.644,30.104,50.322
1747666193.75,-0.062,0.021,0.067,-0.823,0.422,-0.259,-83.129,31.281,51.284
1747666193.76,-0.063,-0.001,0.003,-0.779,0.367,-0.280,-83.596,32.462,52.001
1747666193.77,-0.032,-0.029,-0.014,-0.819,0.260,-0.291,-84.067,33.667,53.032
1747666193.78,0.028,-0.046,0.021,-0.830,0.195,-0.275,-84.550,35.127,54.126
1747666193.79,0.064,-0.021,0.043,-0.762,0.209,-0.252,-85.008,36.847,55.738
1747666193.80,0.035,0.028,0.006,-0.632,0.168,-0.232,-85.408,38.577,57.112
1747666193.81,-0.031,0.056,-0.081,-0.521,0.061,-0.208,-85.739,40.053,58.529
1747666193.82,-0.075,0.036,-0.081,-0.540,0.087,-0.205,-86.042,41.567,59.749
1747666193.83,-0.077,-0.020,0.022,-0.624,0.235,-0.218,-86.368,43.711,61.805
1747666193.84,-0.054,-0.056,0.056,-0.665,0.293,-0.225,-86.719,46.735,64.421
1747666193.85,-0.020,-0.052,0.027,-0.658,0.202,-0.211,-87.063,50.591,68.136
1747666193.86,0.035,-0.030,-0.009,-0.615,0.127,-0.180,-87.372,55.279,72.499
1747666193.87,0.109,-0.018,-0.007,-0.567,0.219,-0.151,-87.631,60.784,77.911
1747666193.88,0.156,-0.014,0.005,-0.567,0.220,-0.128,-87.844,67.363,84.135
1747666193.89,0.136,-0.010,-0.002,-0.600,0.095,-0.114,-88.016,75.613,92.297
1747666193.90,0.076,-0.004,-0.021,-0.587,0.005,-0.117,-88.138,85.363,101.790
1747666193.91,0.008,0.009,-0.046,-0.518,0.007,-0.138,-88.209,95.297,111.728
1747666193.92,-0.036,0.016,-0.064,-0.510,0.113,-0.158,-88.241,105.044,121.197
1747666193.93,-0.045,0.003,-0.037,-0.530,0.284,-0.172,-88.227,115.305,131.348
1747666193.94,-0.046,-0.000,-0.038,-0.542,0.378,-0.178,-88.159,125.478,141.333
1747666193.95,-0.033,-0.005,-0.036,-0.529,0.394,-0.164,-88.036,134.678,150.316
1747666193.96,-0.014,-0.025,-0.056,-0.488,0.358,-0.153,-87.878,142.194,157.620
1747666193.97,0.012,-0.045,-0.064,-0.462,0.328,-0.149,-87.704,148.248,163.484
1747666193.98,0.052,-0.037,-0.046,-0.437,0.287,-0.126,-87.518,153.100,168.161
1747666193.99,0.079,-0.011,-0.053,-0.406,0.134,-0.096,-87.326,156.754,171.697
1747666194.00,0.083,0.015,-0.062,-0.341,-0.029,-0.080,-87.146,159.401,174.319
1747666194.01,0.079,0.041,-0.046,-0.274,-0.100,-0.081,-86.996,161.349,176.314
1747666194.02,0.043,0.050,-0.007,-0.271,-0.120,-0.098,-86.865,163.050,178.080
1747666194.03,-0.018,0.036,0.068,-0.309,-0.117,-0.116,-86.723,164.845,179.947
1747666194.04,-0.052,-0.002,0.115,-0.316,-0.029,-0.127,-86.566,166.710,-178.139
1747666194.05,-0.040,-0.059,0.104,-0.277,0.043,-0.132,-86.416,168.515,-176.336
1747666194.06,-0.008,-0.102,0.050,-0.215,0.099,-0.110,-86.292,170.026,-174.862
1747666194.07,0.012,-0.100,0.009,-0.171,0.150,-0.092,-86.193,171.234,-173.724
1747666194.08,0.003,-0.048,-0.026,-0.156,0.106,-0.104,-86.109,172.343,-172.689
1747666194.09,-0.012,0.028,-0.073,-0.168,0.039,-0.114,-86.025,173.463,-171.606
1747666194.10,-0.007,0.095,-0.064,-0.160,0.029,-0.094,-85.938,174.472,-170.610
1747666194.11,-0.005,0.119,-0.024,-0.150,0.041,-0.059,-85.853,175.205,-169.896
1747666194.12,-0.036,0.099,-0.017,-0.105,0.027,-0.034,-85.782,175.652,-169.470
1747666194.13,-0.061,0.047,-0.030,-0.077,-0.008,-0.032,-85.732,175.960,-169.164
1747666194.14,-0.042,-0.011,-0.011,-0.061,0.018,-0.032,-85.695,176.242,-168.882
1747666194.15,-0.004,-0.049,0.019,-0.057,0.078,-0.033,-85.664,176.545,-168.606
1747666194.16,0.021,-0.063,0.038,-0.071,0.097,-0.031,-85.630,176.867,-168.333
1747666194.17,0.031,-0.046,0.028,-0.064,0.071,-0.035,-85.594,177.179,-168.070
1747666194.18,0.021,-0.019,0.013,-0.064,-0.039,-0.054,-85.561,177.541,-167.718
1747666194.19,-0.006,-0.011,0.027,-0.060,-0.160,-0.076,-85.528,177.970,-167.228
1747666194.20,-0.001,-0.011,0.035,-0.037,-0.218,-0.085,-85.502,178.481,-166.605
1747666194.21,0.041,-0.004,0.044,-0.042,-0.213,-0.067,-85.482,178.952,-166.008
1747666194.22,0.074,0.025,0.055,-0.056,-0.194,-0.045,-85.456,179.250,-165.593
1747666194.23,0.069,0.059,0.053,-0.074,-0.168,-0.037,-85.418,179.432,-165.306
1747666194.24,0.031,0.061,0.072,-0.096,-0.129,-0.046,-85.368,179.628,-165.024
1747666194.25,-0.029,0.028,0.098,-0.110,-0.101,-0.049,-85.309,179.879,-164.708
1747666194.26,-0.101,-0.021,0.111,-0.137,-0.124,-0.053,-85.239,-179.854,-164.376
1747666194.27,-0.127,-0.058,0.093,-0.172,-0.073,-0.067,-85.150,-179.504,-163.965
1747666194.28,-0.091,-0.066,0.096,-0.217,0.022,-0.072,-85.036,-179.064,-163.511
1747666194.29,-0.037,-0.056,0.093,-0.233,0.084,-0.061,-84.904,-178.644,-163.121
1747666194.30,0.003,-0.030,0.078,-0.213,0.097,-0.056,-84.772,-178.291,-162.820
1747666194.31,0.022,0.002,0.058,-0.174,0.087,-0.055,-84.659,-177.960,-162.541
1747666194.32,0.021,0.025,0.025,-0.120,0.040,-0.056,-84.573,-177.641,-162.260
1747666194.33,-0.006,0.027,-0.027,-0.080,-0.102,-0.059,-84.513,-177.342,-161.943
1747666194.34,-0.018,0.001,-0.046,-0.071,-0.176,-0.073,-84.464,-177.034,-161.550
1747666194.35,0.017,-0.025,-0.028,-0.061,-0.182,-0.075,-84.420,-176.671,-161.084
1747666194.36,0.058,-0.025,-0.019,-0.038,-0.209,-0.052,-84.384,-176.396,-160.697
1747666194.37,0.071,-0.005,-0.021,0.015,-0.236,-0.028,-84.373,-176.284,-160.454
1747666194.38,0.053,0.016,-0.016,0.070,-0.216,-0.013,-84.393,-176.290,-160.329
1747666194.39,0.008,0.020,-0.024,0.134,-0.214,0.005,-84.449,-176.366,-160.284
1747666194.40,-0.039,0.020,-0.034,0.182,-0.222,0.014,-84.540,-176.494,-160.285
1747666194.41,-0.056,0.016,-0.034,0.184,-0.174,0.025,-84.650,-176.658,-160.335
1747666194.42,-0.049,-0.006,0.010,0.119,-0.096,0.050,-84.740,-176.901,-160.501
1747666194.43,-0.034,-0.033,0.048,0.093,0.003,0.077,-84.800,-177.313,-160.887
1747666194.44,-0.025,-0.037,0.044,0.118,0.102,0.088,-84.863,-177.828,-161.435
1747666194.45,-0.030,-0.018,0.044,0.145,0.157,0.085,-84.942,-178.335,-162.020
1747666194.46,-0.029,0.011,0.040,0.149,0.176,0.088,-85.028,-178.818,-162.602
1747666194.47,-0.021,0.039,0.042,0.144,0.183,0.091,-85.114,-179.306,-163.195
1747666194.48,-0.026,0.052,0.038,0.148,0.166,0.079,-85.200,-179.725,-163.716
1747666194.49,-0.029,0.029,0.024,0.140,0.160,0.055,-85.286,179.978,-164.106
1747666194.50,-0.011,-0.016,0.041,0.124,0.190,0.051,-85.360,179.776,-164.409
1747666194.51,0.017,-0.041,0.045,0.123,0.188,0.069,-85.425,179.508,-164.786
1747666194.52,0.035,-0.036,0.019,0.144,0.138,0.081,-85.495,179.091,-165.301
1747666194.53,0.036,-0.010,0.002,0.166,0.012,0.083,-85.577,178.569,-165.870
1747666194.54,0.021,0.009,0.007,0.178,-0.130,0.085,-85.668,177.927,-166.478
1747666194.55,0.006,0.019,0.016,0.217,-0.185,0.081,-85.772,177.175,-167.139
1747666194.56,-0.018,0.020,0.027,0.220,-0.193,0.071,-85.889,176.428,-167.780
1747666194.57,-0.046,0.001,0.042,0.215,-0.214,0.049,-86.006,175.792,-168.302
1747666194.58,-0.054,-0.017,0.032,0.231,-0.240,0.036,-86.122,175.216,-168.749
1747666194.59,-0.028,-0.024,0.021,0.257,-0.238,0.040,-86.248,174.574,-169.255
1747666194.60,0.014,-0.025,0.011,0.308,-0.253,0.064,-86.396,173.643,-170.048
1747666194.61,0.046,-0.008,-0.019,0.381,-0.276,0.085,-86.588,172.409,-171.132
1747666194.62,0.059,0.018,-0.010,0.378,-0.320,0.105,-86.797,170.759,-172.616
1747666194.63,0.052,0.038,0.010,0.386,-0.353,0.114,-86.997,168.718,-174.466
1747666194.64,0.029,0.044,0.009,0.446,-0.379,0.121,-87.215,166.197,-176.781
1747666194.64,-0.001,0.022,0.015,0.470,-0.366,0.140,-87.448,162.934,-179.834
1747666194.66,-0.020,-0.015,0.027,0.475,-0.354,0.147,-87.676,158.826,176.259
1747666194.66,-0.032,-0.039,0.008,0.492,-0.350,0.144,-87.894,153.793,171.423
1747666194.67,-0.021,-0.041,-0.005,0.538,-0.287,0.154,-88.108,147.366,165.177
1747666194.68,0.008,-0.026,0.005,0.584,-0.215,0.164,-88.311,138.724,156.673
1747666194.69,0.017,0.009,0.028,0.618,-0.171,0.189,-88.472,127.227,145.281
1747666194.70,-0.000,0.036,0.057,0.645,-0.201,0.225,-88.551,112.721,130.874
1747666194.72,-0.045,0.039,0.079,0.622,-0.247,0.231,-88.517,97.545,115.821
1747666194.72,-0.103,0.021,0.054,0.608,-0.262,0.199,-88.399,84.221,102.639
1747666194.73,-0.111,-0.018,0.047,0.567,-0.178,0.185,-88.227,73.604,92.147
1747666194.74,-0.072,-0.055,0.088,0.565,-0.043,0.180,-88.016,65.483,84.084
1747666194.75,-0.042,-0.058,0.072,0.612,-0.023,0.173,-87.771,58.682,77.292
1747666194.76,-0.030,-0.031,0.009,0.641,-0.112,0.164,-87.488,52.798,71.439
1747666194.77,-0.019,-0.002,-0.037,0.685,-0.237,0.143,-87.179,47.687,66.423
1747666194.78,0.020,0.046,-0.096,0.776,-0.315,0.118,-86.833,42.839,61.729
1747666194.79,0.084,0.089,-0.090,0.747,-0.273,0.121,-86.455,38.623,57.681
1747666194.80,0.117,0.081,0.021,0.656,-0.154,0.159,-86.088,35.768,54.941
1747666194.81,0.083,0.030,0.061,0.643,-0.120,0.196,-85.728,33.932,53.176
1747666194.82,0.018,-0.019,0.029,0.652,-0.153,0.193,-85.357,32.457,51.776
1747666194.83,-0.021,-0.058,0.030,0.670,-0.108,0.192,-84.979,31.136,50.528
1747666194.84,-0.036,-0.085,0.045,0.713,-0.001,0.206,-84.581,29.972,49.391
1747666194.85,-0.032,-0.083,0.049,0.718,0.084,0.240,-84.162,29.066,48.456
1747666194.86,-0.012,-0.051,0.020,0.761,0.101,0.278,-83.723,28.440,47.773
1747666194.87,0.001,-0.004,-0.029,0.808,0.119,0.291,-83.248,27.900,46.979
1747666194.88,0.006,0.043,-0.020,0.809,0.118,0.259,-82.766,27.363,46.370
1747666194.89,-0.015,0.068,0.002,0.858,0.115,0.221,-82.280,26.711,45.480
1747666194.90,-0.041,0.060,0.038,0.884,0.108,0.210,-81.779,25.983,44.678
1747666194.91,-0.077,0.035,0.052,0.870,0.014,0.220,-81.275,25.304,43.771
1747666194.92,-0.106,0.006,0.034,0.899,0.005,0.245,-80.761,24.709,43.170
1747666194.93,-0.099,-0.016,0.031,0.915,0.148,0.271,-80.226,24.271,42.517
1747666194.94,-0.090,-0.036,0.034,0.897,0.286,0.286,-79.688,24.031,42.146
1747666194.95,-0.074,-0.053,0.015,0.874,0.387,0.279,-79.159,23.914,41.667
1747666194.96,-0.040,-0.061,0.015,0.837,0.419,0.273,-78.649,23.867,41.383
1747666194.97,0.003,-0.050,0.005,0.837,0.415,0.272,-78.151,23.855,40.967
1747666194.98,0.053,-0.020,-0.010,0.862,0.304,0.292,-77.642,23.833,40.730
1747666194.99,0.098,0.034,-0.008,0.812,0.178,0.326,-77.131,23.817,40.416
1747666195.00,0.138,0.084,0.050,0.743,0.162,0.334,-76.649,23.887,40.392
1747666195.01,0.130,0.078,0.087,0.742,0.203,0.296,-76.190,23.973,40.209
1747666195.02,0.075,0.025,0.053,0.786,0.125,0.245,-75.728,23.924,40.056
1747666195.03,0.026,-0.031,0.004,0.793,-0.064,0.244,-75.258,23.719,39.647
1747666195.04,-0.002,-0.055,-0.024,0.758,-0.180,0.282,-74.792,23.496,39.491
1747666195.05,-0.015,-0.054,-0.048,0.775,-0.170,0.302,-74.325,23.323,39.255
1747666195.06,-0.018,-0.036,-0.080,0.823,-0.121,0.295,-73.839,23.162,39.172
1747666195.07,-0.022,-0.003,-0.101,0.889,-0.098,0.249,-73.327,22.939,38.871
1747666195.08,-0.039,0.020,-0.082,0.880,-0.077,0.185,-72.811,22.614,38.586
1747666195.09,-0.042,0.012,0.030,0.813,0.031,0.152,-72.328,22.283,38.136
1747666195.10,-0.026,0.003,0.118,0.785,0.127,0.177,-71.872,22.068,37.858
1747666195.11,-0.053,0.015,0.058,0.686,0.163,0.207,-71.437,21.977,37.567
1747666195.12,-0.062,-0.000,0.042,0.564,0.234,0.245,-71.063,22.051,37.526
1747666195.13,-0.018,-0.026,0.042,0.566,0.275,0.284,-70.711,22.257,37.481
1747666195.14,0.033,-0.027,0.014,0.627,0.192,0.302,-70.333,22.470,37.559
1747666195.15,0.059,-0.012,-0.036,0.715,0.003,0.291,-69.914,22.561,37.486
1747666195.16,0.062,0.011,-0.107,0.854,-0.111,0.219,-69.446,22.432,37.386
1747666195.17,0.050,0.023,-0.153,1.002,-0.150,0.098,-68.919,22.054,36.960
1747666195.18,0.000,0.021,-0.175,1.088,-0.160,-0.018,-68.354,21.448,36.407
1747666195.19,-0.066,0.004,-0.096,1.066,-0.033,-0.074,-67.785,20.768,35.662
1747666195.20,-0.126,-0.023,0.051,0.931,0.217,-0.055,-67.262,20.245,35.042
1747666195.21,-0.187,-0.046,0.066,0.719,0.489,0.018,-66.821,20.038,34.548
1747666195.22,-0.226,-0.065,-0.025,0.501,0.601,0.127,-66.483,20.165,34.341
1747666195.23,-0.153,-0.114,-0.084,0.396,0.618,0.312,-66.203,20.582,34.412
1747666195.24,0.018,-0.147,0.010,0.427,0.551,0.432,-65.912,21.191,34.710
1747666195.25,0.207,-0.112,0.082,0.609,0.389,0.464,-65.544,21.760,35.035
1747666195.26,0.358,-0.033,0.021,0.862,0.125,0.415,-65.060,22.081,35.225
1747666195.27,0.411,0.059,-0.049,0.912,-0.134,0.312,-64.502,22.076,35.221
1747666195.28,0.364,0.098,-0.042,0.864,-0.362,0.201,-63.980,21.821,35.099
1747666195.29,0.231,0.071,-0.038,0.851,-0.490,0.135,-63.488,21.381,34.886
1747666195.30,0.068,0.005,0.058,0.771,-0.467,0.129,-63.028,20.907,34.665
1747666195.31,-0.050,-0.048,0.060,0.690,-0.405,0.188,-62.607,20.532,34.523
1747666195.32,-0.084,-0.073,-0.024,0.630,-0.366,0.290,-62.207,20.308,34.516
1747666195.33,-0.043,-0.065,-0.042,0.597,-0.360,0.358,-61.815,20.205,34.634
1747666195.34,0.033,-0.037,0.012,0.598,-0.344,0.360,-61.423,20.147,34.797
1747666195.35,0.053,-0.004,0.060,0.632,-0.362,0.292,-61.030,20.051,34.914
1747666195.36,-0.008,0.026,0.006,0.690,-0.487,0.221,-60.625,19.825,34.930
1747666195.37,-0.081,0.059,-0.061,0.735,-0.534,0.173,-60.201,19.469,34.865
1747666195.38,-0.123,0.082,-0.033,0.713,-0.361,0.148,-59.779,19.121,34.762
1747666195.39,-0.180,0.085,-0.005,0.728,-0.187,0.111,-59.367,18.859,34.638
1747666195.40,-0.246,0.081,-0.037,0.749,-0.027,0.079,-58.947,18.653,34.471
1747666195.41,-0.269,0.066,0.022,0.677,0.162,0.068,-58.547,18.541,34.295
1747666195.42,-0.247,0.033,0.080,0.576,0.302,0.086,-58.193,18.559,34.157
1747666195.43,-0.178,-0.005,0.052,0.509,0.350,0.119,-57.883,18.678,34.074
1747666195.44,-0.074,-0.027,0.017,0.506,0.306,0.175,-57.583,18.846,34.048
1747666195.45,0.043,-0.023,0.014,0.519,0.244,0.209,-57.270,19.018,34.066
1747666195.46,0.149,0.013,0.051,0.566,0.170,0.203,-56.940,19.156,34.088
1747666195.47,0.188,0.067,0.037,0.643,0.034,0.159,-56.579,19.194,34.061
1747666195.48,0.162,0.111,-0.025,0.709,-0.110,0.089,-56.192,19.081,33.952
1747666195.49,0.126,0.118,-0.029,0.758,-0.153,0.028,-55.783,18.846,33.765
1747666195.50,0.094,0.085,0.018,0.706,-0.092,-0.015,-55.382,18.580,33.530
1747666195.51,0.079,0.013,0.042,0.609,0.026,-0.010,-55.030,18.379,33.309
1747666195.52,0.066,-0.063,-0.013,0.573,0.040,0.028,-54.709,18.262,33.132
1747666195.53,0.020,-0.106,-0.051,0.529,-0.085,0.096,-54.399,18.155,33.017
1747666195.54,0.023,-0.120,-0.020,0.480,-0.094,0.156,-54.105,18.071,32.983
1747666195.55,0.058,-0.100,0.020,0.514,-0.073,0.156,-53.809,18.023,32.981
1747666195.56,0.039,-0.039,-0.022,0.576,-0.110,0.134,-53.487,17.947,32.952
1747666195.57,0.011,0.020,-0.059,0.620,-0.089,0.127,-53.139,17.844,32.894
1747666195.58,-0.009,0.048,-0.050,0.656,-0.065,0.113,-52.770,17.739,32.819
1747666195.59,-0.038,0.037,-0.011,0.661,-0.023,0.084,-52.394,17.633,32.719
1747666195.60,-0.041,-0.001,0.002,0.633,0.093,0.042,-52.029,17.550,32.593
1747666195.61,-0.024,-0.055,-0.020,0.588,0.154,0.024,-51.690,17.515,32.451
1747666195.62,0.005,-0.106,-0.103,0.497,0.094,0.054,-51.386,17.491,32.329
1747666195.63,0.054,-0.130,-0.079,0.417,0.028,0.095,-51.127,17.478,32.270
1747666195.64,0.080,-0.109,-0.004,0.418,-0.038,0.127,-50.882,17.462,32.253
1747666195.65,0.064,-0.023,0.070,0.459,-0.093,0.124,-50.623,17.418,32.244
1747666195.66,0.030,0.077,0.074,0.520,-0.157,0.104,-50.337,17.321,32.210
1747666195.67,0.015,0.124,0.026,0.583,-0.203,0.113,-50.019,17.176,32.157
1747666195.68,0.028,0.127,-0.032,0.671,-0.247,0.117,-49.657,16.998,32.093
1747666195.69,0.036,0.114,-0.033,0.706,-0.253,0.082,-49.261,16.785,32.004
1747666195.70,0.031,0.077,0.034,0.673,-0.161,0.012,-48.875,16.561,31.870
1747666195.71,0.028,0.009,0.018,0.627,-0.041,-0.022,-48.520,16.383,31.704
1747666195.72,-0.002,-0.072,-0.092,0.530,-0.085,0.000,-48.202,16.239,31.552
1747666195.73,-0.043,-0.141,-0.112,0.391,-0.146,0.064,-47.945,16.105,31.519
1747666195.74,-0.007,-0.184,-0.007,0.362,-0.066,0.140,-47.728,16.041,31.516
1747666195.75,0.048,-0.169,0.065,0.414,-0.029,0.211,-47.487,16.059,31.651
1747666195.76,0.053,-0.080,0.035,0.467,-0.037,0.247,-47.209,16.100,31.736
1747666195.77,0.058,0.023,-0.006,0.528,-0.047,0.237,-46.898,16.140,31.902
1747666195.78,0.028,0.076,-0.038,0.603,-0.121,0.183,-46.554,16.119,32.046
1747666195.79,0.008,0.073,-0.013,0.646,-0.111,0.114,-46.185,16.032,32.020
1747666195.80,0.020,0.042,-0.050,0.597,-0.086,0.044,-45.829,15.919,31.993
1747666195.81,0.013,-0.003,-0.110,0.478,-0.127,0.014,-45.528,15.787,31.892
1747666195.82,-0.003,-0.050,-0.076,0.373,-0.142,0.019,-45.295,15.652,31.860
1747666195.83,0.017,-0.060,0.015,0.335,-0.140,0.052,-45.097,15.537,31.811
1747666195.84,0.038,-0.026,0.077,0.358,-0.138,0.101,-44.897,15.448,31.903
1747666195.85,0.020,0.048,0.078,0.401,-0.152,0.120,-44.670,15.370,31.908
1747666195.86,-0.010,0.110,0.055,0.429,-0.197,0.138,-44.421,15.279,32.035
1747666195.87,-0.026,0.135,0.024,0.449,-0.237,0.142,-44.158,15.165,32.052
1747666195.88,-0.031,0.135,0.019,0.463,-0.186,0.102,-43.887,15.042,32.180
1747666195.89,-0.034,0.122,-0.007,0.451,-0.121,0.033,-43.624,14.925,32.136
1747666195.90,-0.049,0.082,-0.055,0.395,-0.106,-0.004,-43.388,14.809,32.198
1747666195.91,-0.071,0.019,-0.074,0.320,-0.082,0.011,-43.191,14.704,32.127
1747666195.92,-0.073,-0.040,-0.033,0.292,-0.037,0.048,-43.021,14.646,32.209
1747666195.93,-0.058,-0.071,-0.026,0.318,-0.019,0.080,-42.844,14.622,32.198
1747666195.94,-0.037,-0.050,-0.041,0.333,0.006,0.067,-42.653,14.614,32.314
1747666195.95,-0.017,-0.006,-0.028,0.344,-0.003,0.026,-42.460,14.596,32.282
1747666195.96,0.005,0.015,-0.030,0.347,-0.031,-0.002,-42.266,14.547,32.349
1747666195.97,0.034,0.015,-0.032,0.339,-0.050,-0.031,-42.078,14.472,32.270
1747666195.98,0.055,0.005,-0.046,0.332,-0.092,-0.043,-41.897,14.369,32.319
1747666195.99,0.076,-0.006,-0.029,0.299,-0.100,-0.043,-41.728,14.251,32.226
1747666196.00,0.087,-0.007,-0.004,0.271,-0.112,-0.026,-41.576,14.138,32.273
1747666196.01,0.074,0.006,0.007,0.254,-0.145,0.020,-41.432,14.031,32.221
1747666196.02,0.056,0.022,0.028,0.253,-0.172,0.066,-41.286,13.931,32.347
1747666196.03,0.038,0.022,0.055,0.275,-0.165,0.086,-41.130,13.839,32.356
1747666196.04,0.023,0.006,0.053,0.299,-0.113,0.086,-40.958,13.767,32.506
1747666196.05,0.016,-0.011,0.012,0.299,-0.081,0.072,-40.779,13.715,32.510
1747666196.06,0.007,-0.022,-0.028,0.265,-0.092,0.066,-40.614,13.665,32.638
1747666196.07,-0.003,-0.026,-0.037,0.233,-0.082,0.077,-40.466,13.618,32.645
1747666196.08,-0.026,-0.020,-0.020,0.211,-0.054,0.077,-40.333,13.590,32.798
1747666196.09,-0.054,-0.013,-0.012,0.212,-0.042,0.085,-40.206,13.575,32.819
1747666196.10,-0.054,-0.014,-0.000,0.223,-0.036,0.102,-40.073,13.574,32.990
1747666196.11,-0.039,-0.005,-0.012,0.251,-0.037,0.092,-39.929,13.572,33.020
1747666196.12,-0.001,0.011,-0.012,0.282,-0.013,0.060,-39.769,13.563,33.182
1747666196.13,0.040,0.022,-0.006,0.286,-0.025,0.019,-39.605,13.540,33.159
1747666196.14,0.059,0.015,-0.019,0.278,-0.090,0.002,-39.446,13.481,33.263
1747666196.15,0.061,-0.003,-0.020,0.265,-0.145,0.007,-39.295,13.383,33.218
1747666196.16,0.078,-0.022,-0.033,0.259,-0.138,0.041,-39.146,13.282,33.333
1747666196.17,0.081,-0.029,-0.035,0.251,-0.130,0.078,-38.997,13.208,33.334
1747666196.18,0.055,-0.010,-0.024,0.254,-0.120,0.107,-38.844,13.150,33.500
1747666196.19,0.028,0.024,0.005,0.226,-0.088,0.124,-38.696,13.117,33.543
1747666196.20,0.001,0.042,0.012,0.212,-0.043,0.132,-38.558,13.116,33.749
1747666196.21,-0.034,0.025,-0.002,0.225,-0.051,0.119,-38.421,13.124,33.803
1747666196.22,-0.051,-0.017,-0.013,0.225,-0.062,0.106,-38.281,13.117,33.994
1747666196.23,-0.016,-0.062,-0.032,0.221,-0.052,0.098,-38.143,13.106,34.030
1747666196.24,0.007,-0.066,-0.046,0.207,-0.061,0.074,-38.013,13.091,34.206
1747666196.25,0.010,-0.022,-0.048,0.199,-0.115,0.047,-37.894,13.047,34.215
1747666196.26,0.014,0.035,-0.018,0.208,-0.138,0.038,-37.775,12.970,34.364
1747666196.27,-0.001,0.081,0.033,0.206,-0.069,0.025,-37.655,12.901,34.353
1747666196.28,-0.044,0.095,0.030,0.195,-0.018,0.014,-37.542,12.866,34.482
1747666196.29,-0.076,0.066,-0.009,0.178,-0.002,0.055,-37.436,12.854,34.474
1747666196.30,-0.055,0.031,-0.027,0.142,0.022,0.095,-37.336,12.873,34.650
1747666196.31,0.006,0.019,-0.043,0.107,0.029,0.101,-37.252,12.918,34.698
1747666196.32,0.049,0.025,-0.054,0.102,0.042,0.094,-37.177,12.970,34.897
1747666196.33,0.037,0.034,-0.023,0.111,0.026,0.066,-37.103,13.013,34.936
1747666196.34,0.003,0.018,-0.015,0.099,0.019,0.041,-37.040,13.038,35.100
1747666196.35,-0.024,-0.030,0.001,0.105,0.016,0.035,-36.985,13.055,35.112
1747666196.36,-0.046,-0.071,0.009,0.130,0.022,0.037,-36.921,13.065,35.252
1747666196.37,-0.020,-0.078,-0.004,0.136,0.019,0.036,-36.844,13.076,35.253
1747666196.38,0.028,-0.042,-0.024,0.129,-0.007,0.028,-36.768,13.076,35.390
1747666196.39,0.057,0.012,-0.012,0.108,-0.007,0.015,-36.699,13.070,35.386
1747666196.40,0.054,0.050,-0.026,0.073,-0.030,0.015,-36.647,13.060,35.528
1747666196.41,0.033,0.062,-0.065,0.064,-0.064,0.043,-36.607,13.040,35.538
1747666196.42,0.004,0.056,-0.053,0.050,-0.034,0.064,-36.569,13.026,35.697
1747666196.43,-0.019,0.033,-0.012,0.054,0.015,0.052,-36.532,13.041,35.729
1747666196.44,-0.056,-0.005,0.015,0.062,0.048,0.038,-36.491,13.068,35.880
1747666196.45,-0.067,-0.047,0.010,0.070,0.066,0.033,-36.446,13.109,35.893
1747666196.46,-0.032,-0.074,-0.022,0.081,0.047,0.041,-36.396,13.151,36.035
1747666196.47,0.020,-0.063,-0.031,0.081,0.031,0.050,-36.345,13.188,36.057
1747666196.48,0.048,0.001,-0.010,0.095,-0.000,0.032,-36.292,13.209,36.203
1747666196.49,0.033,0.061,-0.011,0.111,-0.021,0.016,-36.232,13.202,36.204
1747666196.50,-0.002,0.072,-0.003,0.102,-0.001,-0.008,-36.172,13.186,36.298
1747666196.51,-0.038,0.038,0.006,0.051,0.003,-0.009,-36.131,13.174,36.276
1747666196.52,-0.029,-0.021,-0.053,0.002,-0.002,0.025,-36.116,13.172,36.386
1747666196.53,0.002,-0.044,-0.056,-0.038,0.016,0.043,-36.121,13.185,36.410
1747666196.54,0.042,-0.010,-0.016,-0.055,0.021,0.058,-36.139,13.220,36.570
1747666196.55,0.083,0.041,-0.022,-0.044,-0.030,0.054,-36.155,13.246,36.618
1747666196.56,0.075,0.074,-0.023,-0.013,-0.040,0.040,-36.165,13.251,36.794
1747666196.57,0.034,0.070,0.020,0.023,-0.052,0.020,-36.159,13.237,36.813
1747666196.58,0.001,0.030,0.018,-0.018,-0.037,0.001,-36.156,13.212,36.958
1747666196.59,-0.005,-0.026,0.001,-0.088,0.026,-0.029,-36.191,13.205,36.956
1747666196.60,0.006,-0.069,-0.057,-0.126,0.085,-0.024,-36.253,13.235,37.083
1747666196.61,0.005,-0.064,-0.046,-0.152,0.090,0.009,-36.330,13.296,37.101
1747666196.62,0.044,-0.001,-0.035,-0.156,0.092,0.053,-36.410,13.380,37.272
1747666196.63,0.116,0.087,-0.038,-0.161,0.029,0.057,-36.491,13.460,37.341
1747666196.64,0.142,0.131,-0.046,-0.176,-0.069,0.049,-36.579,13.491,37.527
1747666196.65,0.113,0.109,-0.005,-0.178,-0.149,0.038,-36.674,13.465,37.589
1747666196.66,0.050,0.050,0.005,-0.223,-0.131,0.004,-36.780,13.410,37.751
1747666196.67,-0.010,-0.024,-0.049,-0.324,-0.051,-0.034,-36.931,13.376,37.784
1747666196.68,-0.082,-0.091,-0.106,-0.393,0.005,-0.030,-37.132,13.384,37.931
1747666196.69,-0.121,-0.104,-0.100,-0.453,0.103,0.016,-37.366,13.454,38.098
1747666196.70,-0.073,-0.056,-0.041,-0.485,0.177,0.038,-37.623,13.599,38.199
1747666196.71,0.004,0.021,-0.001,-0.510,0.191,0.049,-37.893,13.779,38.413
1747666196.72,0.098,0.083,0.001,-0.567,0.157,0.045,-38.184,13.964,38.543
1747666196.73,0.189,0.116,-0.057,-0.618,0.014,0.029,-38.508,14.097,38.759
1747666196.74,0.253,0.119,-0.078,-0.659,-0.118,0.011,-38.859,14.145,38.887
1747666196.75,0.257,0.112,-0.034,-0.700,-0.213,-0.012,-39.236,14.127,39.096
1747666196.76,0.179,0.090,-0.024,-0.707,-0.278,-0.028,-39.630,14.056,39.206
1747666196.77,0.042,0.055,-0.060,-0.719,-0.303,-0.039,-40.029,13.954,39.388
1747666196.78,-0.080,0.011,-0.077,-0.740,-0.247,-0.043,-40.439,13.860,39.490
1747666196.79,-0.139,-0.039,-0.069,-0.738,-0.143,-0.053,-40.857,13.812,39.678
1747666196.80,-0.156,-0.079,-0.073,-0.738,-0.053,-0.070,-41.275,13.815,39.767
1747666196.81,-0.132,-0.103,-0.085,-0.737,0.034,-0.108,-41.696,13.856,39.920
1747666196.82,-0.090,-0.120,-0.082,-0.754,0.088,-0.163,-42.127,13.916,39.956
1747666196.83,-0.039,-0.137,-0.080,-0.767,0.138,-0.206,-42.575,13.982,40.029
1747666196.84,0.014,-0.147,-0.082,-0.780,0.153,-0.237,-43.034,14.050,40.005
1747666196.85,0.032,-0.141,-0.082,-0.824,0.132,-0.248,-43.511,14.109,40.023
1747666196.86,0.025,-0.121,-0.079,-0.881,0.088,-0.248,-44.018,14.155,39.997
1747666196.87,0.003,-0.101,-0.074,-0.910,0.041,-0.231,-44.549,14.184,40.025
1747666196.88,-0.021,-0.089,-0.050,-0.895,0.046,-0.212,-45.081,14.212,40.032
1747666196.89,-0.021,-0.075,-0.049,-0.872,0.142,-0.195,-45.598,14.276,40.075
1747666196.90,-0.017,-0.061,-0.064,-0.880,0.229,-0.205,-46.109,14.399,40.096
1747666196.91,-0.040,-0.050,-0.058,-0.913,0.255,-0.226,-46.636,14.547,40.148
1747666196.92,-0.050,-0.044,-0.040,-0.939,0.301,-0.239,-47.181,14.711,40.156
1747666196.93,-0.035,-0.033,-0.022,-0.969,0.323,-0.246,-47.743,14.895,40.198
1747666196.94,-0.009,-0.016,-0.004,-0.998,0.321,-0.251,-48.323,15.087,40.208
1747666196.95,0.030,0.008,0.010,-1.012,0.326,-0.249,-48.915,15.285,40.227
1747666196.96,0.071,0.030,0.013,-1.007,0.307,-0.242,-49.508,15.488,40.254
1747666196.97,0.089,0.049,-0.006,-1.028,0.246,-0.245,-50.105,15.674,40.282
1747666196.98,0.076,0.062,-0.020,-1.037,0.196,-0.251,-50.711,15.830,40.321
1747666196.99,0.032,0.067,-0.035,-1.045,0.149,-0.285,-51.324,15.949,40.318
1747666197.00,-0.028,0.060,-0.017,-1.063,0.123,-0.332,-51.951,16.021,40.312
1747666197.01,-0.071,0.037,-0.010,-1.093,0.136,-0.354,-52.596,16.068,40.233
1747666197.02,-0.065,0.011,-0.017,-1.129,0.190,-0.348,-53.261,16.137,40.203
1747666197.03,-0.026,-0.009,0.003,-1.173,0.246,-0.325,-53.947,16.259,40.128
1747666197.04,0.022,-0.021,0.023,-1.204,0.268,-0.286,-54.648,16.441,40.169
1747666197.05,0.065,-0.021,0.015,-1.226,0.248,-0.247,-55.356,16.662,40.175
1747666197.06,0.094,-0.017,0.018,-1.247,0.209,-0.205,-56.069,16.910,40.319
1747666197.07,0.112,-0.011,0.031,-1.252,0.172,-0.181,-56.784,17.175,40.414
1747666197.08,0.109,-0.002,0.028,-1.234,0.141,-0.188,-57.494,17.439,40.621
1747666197.09,0.088,0.009,-0.009,-1.213,0.108,-0.225,-58.194,17.665,40.717
1747666197.10,0.052,0.012,-0.015,-1.233,0.089,-0.271,-58.901,17.849,40.867
1747666197.11,0.007,-0.001,-0.005,-1.273,0.087,-0.304,-59.632,18.007,40.896
1747666197.12,-0.032,-0.019,-0.018,-1.303,0.043,-0.299,-60.386,18.157,41.024
1747666197.13,-0.049,-0.026,-0.037,-1.316,-0.012,-0.270,-61.147,18.305,41.094
1747666197.14,-0.033,-0.026,-0.004,-1.337,0.010,-0.242,-61.912,18.488,41.307
1747666197.15,-0.007,-0.020,0.036,-1.317,0.041,-0.241,-62.676,18.716,41.432
1747666197.16,0.003,-0.012,0.035,-1.290,-0.019,-0.255,-63.426,18.933,41.666
1747666197.17,0.015,-0.014,0.013,-1.280,-0.064,-0.261,-64.168,19.109,41.747
1747666197.18,0.039,-0.013,0.009,-1.281,-0.044,-0.272,-64.907,19.281,41.973
1747666197.19,0.038,-0.006,-0.004,-1.296,-0.060,-0.288,-65.654,19.459,42.041
1747666197.20,0.002,-0.005,-0.020,-1.286,-0.125,-0.313,-66.408,19.599,42.252
1747666197.21,-0.021,-0.018,-0.012,-1.221,-0.155,-0.336,-67.147,19.674,42.268
1747666197.22,-0.034,-0.026,-0.025,-1.154,-0.127,-0.359,-67.851,19.689,42.374
1747666197.23,-0.044,-0.028,-0.024,-1.141,-0.080,-0.370,-68.536,19.689,42.280
1747666197.24,-0.055,-0.022,-0.031,-1.142,-0.039,-0.370,-69.222,19.709,42.339
1747666197.25,-0.062,-0.017,-0.034,-1.145,0.032,-0.365,-69.906,19.769,42.244
1747666197.26,-0.065,-0.016,0.013,-1.190,0.075,-0.359,-70.602,19.888,42.336
1747666197.27,-0.061,-0.011,0.050,-1.224,0.082,-0.338,-71.319,20.073,42.322
1747666197.28,-0.039,0.000,0.058,-1.254,0.109,-0.311,-72.047,20.339,42.547
1747666197.29,-0.015,0.006,0.049,-1.241,0.154,-0.313,-72.779,20.684,42.646
1747666197.30,0.002,-0.007,0.002,-1.169,0.155,-0.334,-73.489,21.018,42.900
1747666197.31,0.017,-0.035,-0.025,-1.099,0.109,-0.344,-74.162,21.273,42.898
1747666197.32,0.038,-0.058,-0.044,-1.036,0.067,-0.331,-74.800,21.472,43.052
1747666197.33,0.043,-0.055,-0.058,-1.024,0.031,-0.303,-75.411,21.674,43.042
1747666197.34,0.021,-0.036,-0.024,-1.028,0.051,-0.293,-76.019,21.936,43.289
1747666197.35,-0.026,-0.008,0.012,-1.045,0.049,-0.323,-76.632,22.215,43.358
1747666197.36,-0.060,0.025,-0.020,-1.084,0.013,-0.357,-77.268,22.451,43.584
1747666197.37,-0.046,0.046,-0.023,-1.115,0.039,-0.367,-77.929,22.690,43.620
1747666197.38,-0.006,0.052,0.027,-1.099,0.093,-0.373,-78.595,22.974,43.872
1747666197.39,0.031,0.044,0.039,-1.069,0.137,-0.372,-79.247,23.285,43.929
1747666197.40,0.066,0.006,0.066,-1.076,0.155,-0.368,-79.893,23.634,44.199
1747666197.41,0.080,-0.063,0.111,-1.043,0.195,-0.339,-80.530,24.077,44.334
1747666197.42,0.043,-0.108,0.093,-1.008,0.130,-0.303,-81.139,24.640,44.804
1747666197.43,-0.019,-0.109,-0.022,-0.989,-0.041,-0.271,-81.725,25.273,45.210
1747666197.44,-0.018,-0.094,-0.096,-1.003,-0.078,-0.252,-82.301,26.032,46.017
1747666197.45,0.025,-0.048,-0.073,-1.027,0.047,-0.251,-82.883,27.030,46.826
1747666197.46,0.059,0.019,-0.043,-1.034,0.176,-0.256,-83.472,28.308,48.049
1747666197.47,0.074,0.066,-0.002,-1.031,0.257,-0.251,-84.059,29.905,49.320
1747666197.48,0.076,0.083,0.052,-1.025,0.272,-0.211,-84.631,31.958,51.227
1747666197.49,0.063,0.055,0.104,-1.053,0.187,-0.165,-85.184,34.739,53.682
1747666197.50,0.055,-0.000,0.120,-1.071,0.084,-0.159,-85.727,38.466,57.342
1747666197.51,0.058,-0.039,0.040,-1.004,-0.053,-0.193,-86.243,42.931,61.600
1747666197.52,0.072,-0.065,-0.048,-0.905,-0.184,-0.232,-86.712,47.770,66.517
1747666197.53,0.090,-0.095,-0.020,-0.859,-0.227,-0.240,-87.137,53.263,71.939
1747666197.54,0.083,-0.089,0.043,-0.831,-0.212,-0.212,-87.511,60.246,79.054
1747666197.55,-0.004,-0.035,0.061,-0.849,-0.206,-0.182,-87.816,69.629,88.565
1747666197.56,-0.147,0.035,0.051,-0.814,-0.142,-0.194,-88.038,81.640,100.687
1747666197.57,-0.283,0.088,-0.015,-0.738,-0.003,-0.255,-88.179,94.847,113.943
1747666197.58,-0.343,0.091,-0.028,-0.751,0.149,-0.308,-88.250,109.300,128.363
1747666197.59,-0.302,0.056,-0.010,-0.747,0.357,-0.317,-88.215,124.569,143.495
1747666197.60,-0.207,0.017,-0.018,-0.679,0.530,-0.285,-88.076,137.838,156.515
1747666197.61,-0.104,-0.006,-0.027,-0.665,0.653,-0.245,-87.862,148.069,166.412
1747666197.62,-0.012,-0.020,-0.001,-0.654,0.704,-0.200,-87.587,155.752,173.708
1747666197.63,0.057,-0.022,-0.047,-0.600,0.601,-0.162,-87.291,161.184,178.768
1747666197.64,0.111,-0.019,-0.062,-0.561,0.484,-0.140,-86.998,165.064,-177.655
1747666197.65,0.148,-0.031,-0.027,-0.531,0.425,-0.138,-86.713,168.040,-174.932
1747666197.66,0.148,-0.032,-0.032,-0.481,0.347,-0.149,-86.442,170.519,-172.673
1747666197.67,0.117,-0.004,-0.082,-0.393,0.218,-0.152,-86.208,172.580,-170.771
1747666197.68,0.082,0.030,-0.069,-0.347,0.131,-0.142,-86.010,174.267,-169.178
1747666197.69,0.045,0.037,-0.032,-0.310,0.041,-0.127,-85.829,175.610,-167.880
1747666197.70,0.015,0.022,-0.060,-0.254,-0.040,-0.139,-85.673,176.768,-166.720
1747666197.71,0.020,0.009,-0.069,-0.273,-0.088,-0.175,-85.531,177.976,-165.467
1747666197.72,0.040,-0.012,0.002,-0.331,-0.018,-0.187,-85.359,179.301,-164.104
1747666197.72,0.046,-0.016,0.041,-0.324,0.037,-0.168,-85.170,-179.449,-162.858
1747666197.74,0.010,-0.004,0.009,-0.268,-0.011,-0.132,-84.999,-178.480,-161.896
1747666197.75,-0.041,0.007,-0.037,-0.202,-0.087,-0.110,-84.862,-177.782,-161.167
1747666197.76,-0.068,0.019,-0.082,-0.097,-0.113,-0.106,-84.774,-177.210,-160.532
1747666197.77,-0.060,0.019,-0.064,-0.047,-0.012,-0.097,-84.733,-176.641,-159.920
1747666197.78,-0.053,0.014,0.003,-0.087,0.135,-0.054,-84.694,-176.156,-159.470
1747666197.78,-0.072,0.009,0.025,-0.132,0.253,-0.026,-84.630,-175.855,-159.280
1747666197.79,-0.099,0.003,0.059,-0.201,0.359,-0.020,-84.535,-175.619,-159.219
1747666197.81,-0.097,-0.003,0.110,-0.227,0.434,-0.028,-84.411,-175.346,-159.175
1747666197.81,-0.072,-0.018,0.112,-0.243,0.416,-0.044,-84.275,-175.000,-159.076
1747666197.82,-0.025,-0.047,0.058,-0.258,0.392,-0.034,-84.130,-174.679,-158.984
1747666197.84,0.047,-0.079,0.030,-0.241,0.367,-0.021,-83.986,-174.448,-158.973
1747666197.84,0.089,-0.089,0.006,-0.168,0.278,-0.007,-83.867,-174.305,-159.015
1747666197.85,0.101,-0.043,-0.028,-0.074,0.193,-0.007,-83.798,-174.207,-159.052
1747666197.86,0.098,0.023,-0.067,-0.013,0.068,-0.015,-83.775,-174.097,-159.018
1747666197.87,0.073,0.048,-0.070,-0.037,-0.058,-0.018,-83.764,-174.015,-158.935
1747666197.88,0.063,0.035,-0.029,-0.084,-0.138,-0.006,-83.725,-174.048,-158.910
1747666197.89,0.050,0.012,-0.038,-0.005,-0.205,-0.007,-83.697,-174.141,-158.906
1747666197.90,0.024,0.008,-0.062,0.052,-0.217,-0.017,-83.713,-174.197,-158.835
1747666197.91,0.005,0.011,-0.035,0.054,-0.117,-0.019,-83.742,-174.174,-158.715
1747666197.92,-0.019,0.013,-0.026,0.055,-0.042,-0.016,-83.772,-174.094,-158.591
1747666197.93,-0.047,0.023,-0.014,0.015,-0.056,0.018,-83.794,-174.092,-158.564
1747666197.94,-0.078,0.019,0.030,-0.039,-0.065,0.039,-83.789,-174.321,-158.756
1747666197.95,-0.088,-0.003,0.058,-0.047,0.016,0.022,-83.769,-174.553,-158.973
1747666197.96,-0.039,-0.027,0.056,-0.083,0.137,-0.013,-83.735,-174.587,-159.051
1747666197.97,0.024,-0.046,0.064,-0.114,0.168,-0.029,-83.679,-174.444,-158.999
1747666197.98,0.060,-0.039,0.050,-0.103,0.108,-0.034,-83.617,-174.264,-158.898
1747666197.99,0.058,-0.010,0.035,-0.059,0.031,-0.048,-83.569,-174.060,-158.733
1747666198.00,0.029,0.016,0.042,-0.007,-0.031,-0.060,-83.549,-173.795,-158.467
1747666198.01,-0.005,0.029,0.050,0.008,-0.036,-0.044,-83.547,-173.526,-158.173
1747666198.02,-0.043,0.025,0.057,-0.003,0.003,-0.026,-83.546,-173.317,-157.954
1747666198.03,-0.075,0.002,0.030,-0.023,0.033,-0.006,-83.535,-173.201,-157.848
1747666198.04,-0.062,-0.025,-0.011,-0.040,0.069,0.015,-83.514,-173.198,-157.873
1747666198.05,-0.012,-0.045,-0.014,-0.055,0.109,0.027,-83.484,-173.310,-158.037
1747666198.06,0.033,-0.041,-0.001,-0.048,0.134,0.029,-83.453,-173.450,-158.247
1747666198.07,0.046,-0.006,0.008,-0.026,0.120,0.020,-83.430,-173.554,-158.427
1747666198.08,0.019,0.038,0.003,0.030,0.015,0.000,-83.430,-173.590,-158.504
1747666198.09,-0.024,0.053,-0.020,0.058,-0.063,-0.017,-83.453,-173.541,-158.436
1747666198.10,-0.042,0.026,0.014,0.037,-0.032,-0.024,-83.478,-173.419,-158.284
1747666198.11,-0.042,-0.014,0.038,-0.003,-0.003,-0.019,-83.484,-173.255,-158.111
1747666198.12,-0.017,-0.054,0.019,-0.021,-0.001,-0.003,-83.476,-173.171,-158.026
1747666198.13,0.025,-0.068,0.010,-0.013,0.024,0.004,-83.466,-173.178,-158.041
1747666198.14,0.059,-0.040,0.013,0.007,0.016,-0.003,-83.465,-173.190,-158.065
1747666198.15,0.065,-0.001,0.009,0.011,-0.004,0.010,-83.472,-173.221,-158.098
1747666198.16,0.037,0.026,0.039,0.017,0.002,0.021,-83.480,-173.309,-158.185
1747666198.17,-0.004,0.043,0.038,0.039,-0.035,0.006,-83.499,-173.361,-158.231
1747666198.18,-0.025,0.034,-0.006,0.025,-0.094,-0.004,-83.518,-173.356,-158.186
1747666198.19,0.001,-0.004,-0.005,-0.002,-0.116,0.005,-83.519,-173.375,-158.145
1747666198.20,0.036,-0.030,0.006,-0.000,-0.095,0.020,-83.516,-173.488,-158.197
1747666198.21,0.051,-0.025,0.018,0.026,-0.018,0.035,-83.522,-173.681,-158.358
1747666198.22,0.031,0.000,0.035,0.051,0.009,0.046,-83.546,-173.934,-158.613
1747666198.23,-0.026,0.024,0.032,0.058,-0.031,0.037,-83.579,-174.176,-158.850
1747666198.24,-0.067,0.020,0.022,0.071,-0.048,0.028,-83.615,-174.363,-159.013
1747666198.25,-0.068,-0.009,0.026,0.064,-0.031,0.036,-83.652,-174.510,-159.138
1747666198.26,-0.037,-0.040,0.039,0.052,0.018,0.042,-83.687,-174.669,-159.294
1747666198.27,0.007,-0.050,0.040,0.058,0.036,0.048,-83.719,-174.853,-159.498
1747666198.28,0.034,-0.034,-0.004,0.094,-0.011,0.058,-83.763,-175.117,-159.770
1747666198.29,0.044,0.006,-0.030,0.119,-0.040,0.074,-83.825,-175.469,-160.108
1747666198.30,0.035,0.037,-0.027,0.131,-0.079,0.087,-83.898,-175.907,-160.516
1747666198.31,-0.007,0.052,-0.008,0.138,-0.112,0.085,-83.974,-176.370,-160.925
1747666198.32,-0.047,0.044,0.001,0.158,-0.097,0.074,-84.057,-176.745,-161.240
1747666198.33,-0.052,0.006,0.014,0.175,-0.047,0.078,-84.151,-177.088,-161.545
1747666198.34,-0.028,-0.032,0.030,0.201,0.007,0.089,-84.255,-177.474,-161.922
1747666198.35,-0.001,-0.042,0.017,0.255,0.009,0.098,-84.381,-177.953,-162.411
1747666198.36,0.011,-0.027,-0.005,0.297,0.009,0.110,-84.540,-178.541,-163.005
1747666198.37,0.016,-0.004,0.006,0.318,0.021,0.125,-84.719,-179.250,-163.725
1747666198.38,0.008,0.014,0.009,0.364,-0.021,0.135,-84.915,179.924,-164.556
1747666198.39,-0.010,0.019,-0.001,0.419,-0.040,0.146,-85.138,178.973,-165.491
1747666198.40,-0.019,0.005,0.004,0.463,0.003,0.147,-85.385,177.939,-166.517
1747666198.41,-0.014,-0.018,0.006,0.487,0.034,0.150,-85.649,176.833,-167.639
1747666198.42,0.009,-0.034,-0.007,0.504,0.048,0.171,-85.926,175.358,-169.142
1747666198.43,0.047,-0.023,0.004,0.503,0.008,0.207,-86.203,173.401,-171.122
1747666198.44,0.056,0.010,0.024,0.491,-0.139,0.237,-86.466,170.794,-173.701
1747666198.45,0.036,0.031,0.018,0.549,-0.290,0.235,-86.729,167.512,-176.863
1747666198.46,0.025,0.025,0.044,0.597,-0.342,0.208,-87.018,163.561,179.365
1747666198.47,0.028,0.001,0.095,0.573,-0.328,0.176,-87.300,159.110,175.100
1747666198.48,0.019,-0.025,0.092,0.590,-0.373,0.148,-87.566,154.125,170.307
1747666198.49,0.003,-0.046,0.035,0.654,-0.448,0.137,-87.838,147.830,164.243
1747666198.50,0.003,-0.055,-0.004,0.684,-0.482,0.147,-88.100,139.314,155.990
1747666198.51,0.022,-0.037,-0.031,0.699,-0.492,0.156,-88.310,127.974,144.920
1747666198.52,0.038,0.004,-0.034,0.710,-0.520,0.169,-88.440,113.757,130.987
1747666198.53,0.046,0.044,0.036,0.677,-0.492,0.181,-88.453,98.363,115.878
1747666198.54,0.033,0.067,0.106,0.664,-0.422,0.186,-88.356,84.371,102.141
1747666198.55,-0.022,0.069,0.102,0.701,-0.401,0.184,-88.172,72.195,90.194
1747666198.56,-0.102,0.053,0.073,0.683,-0.360,0.170,-87.923,62.350,80.560
1747666198.57,-0.172,0.035,0.081,0.617,-0.340,0.142,-87.653,55.132,73.535
1747666198.58,-0.216,0.026,0.064,0.585,-0.325,0.098,-87.391,49.653,68.243
1747666198.59,-0.204,0.008,0.056,0.592,-0.205,0.071,-87.129,45.031,63.771
1747666198.60,-0.134,-0.014,0.081,0.643,-0.027,0.085,-86.843,41.042,59.843
1747666198.61,-0.059,-0.018,0.077,0.728,0.054,0.126,-86.502,37.564,56.346
1747666198.62,-0.010,-0.017,0.053,0.774,0.026,0.185,-86.101,34.763,53.514
1747666198.63,0.019,-0.011,0.017,0.785,0.010,0.238,-85.662,32.731,51.469
1747666198.64,0.051,0.001,0.008,0.802,0.116,0.275,-85.202,31.326,49.787
1747666198.65,0.046,0.012,-0.022,0.801,0.188,0.285,-84.722,30.300,48.669
1747666198.66,0.003,0.012,-0.010,0.688,0.176,0.285,-84.271,29.654,47.682
1747666198.67,-0.026,-0.006,0.021,0.634,0.113,0.292,-83.865,29.342,47.289
1747666198.68,-0.025,-0.022,0.028,0.649,0.132,0.288,-83.465,29.104,46.771
1747666198.69,-0.003,-0.032,0.060,0.664,0.146,0.278,-83.059,28.846,46.427
1747666198.70,0.029,-0.047,0.031,0.720,0.061,0.271,-82.639,28.505,45.813
1747666198.71,0.057,-0.048,-0.029,0.806,-0.063,0.275,-82.181,27.986,45.289
1747666198.72,0.073,-0.021,-0.086,0.826,-0.238,0.265,-81.694,27.334,44.497
1747666198.73,0.069,0.018,-0.118,0.828,-0.357,0.237,-81.208,26.586,43.918
1747666198.74,0.069,0.041,-0.039,0.846,-0.319,0.211,-80.722,25.782,43.117
1747666198.75,0.046,0.039,0.084,0.839,-0.179,0.182,-80.240,25.010,42.481
1747666198.76,-0.010,0.018,0.088,0.865,-0.061,0.153,-79.758,24.282,41.614
1747666198.77,-0.067,-0.007,-0.008,0.820,-0.046,0.159,-79.279,23.623,40.973
1747666198.78,-0.094,-0.039,-0.050,0.729,-0.045,0.191,-78.835,23.170,40.364
1747666198.79,-0.102,-0.056,-0.059,0.716,-0.114,0.221,-78.411,22.864,40.097
1747666198.80,-0.084,-0.043,-0.089,0.748,-0.093,0.251,-77.974,22.615,39.748
1747666198.81,-0.029,-0.014,-0.039,0.813,0.039,0.259,-77.508,22.437,39.582
1747666198.82,0.010,0.008,0.007,0.902,0.131,0.249,-77.000,22.260,39.194
1747666198.83,0.021,0.020,-0.002,0.946,0.192,0.242,-76.456,22.049,38.885
1747666198.84,0.007,0.024,0.006,0.916,0.273,0.246,-75.909,21.891,38.433
1747666198.85,-0.050,0.007,0.027,0.879,0.248,0.267,-75.380,21.821,38.205
1747666198.86,-0.087,-0.030,0.017,0.843,0.315,0.325,-74.861,21.874,37.951
1747666198.87,-0.071,-0.050,0.018,0.806,0.511,0.383,-74.348,22.154,37.996
1747666198.88,-0.055,-0.046,0.026,0.753,0.601,0.417,-73.848,22.624,38.016
1747666198.89,-0.009,-0.029,0.027,0.739,0.498,0.459,-73.361,23.166,38.249
1747666198.90,0.092,0.001,0.031,0.792,0.328,0.508,-72.849,23.668,38.391
1747666198.91,0.207,0.040,0.057,0.797,0.183,0.517,-72.313,24.081,38.674
1747666198.92,0.264,0.059,0.103,0.816,0.088,0.454,-71.779,24.364,38.757
1747666198.93,0.242,0.041,0.154,0.842,-0.132,0.356,-71.252,24.401,38.803
1747666198.94,0.157,0.005,0.098,0.821,-0.408,0.294,-70.740,24.163,38.588
1747666198.95,0.062,-0.029,0.002,0.735,-0.584,0.256,-70.270,23.768,38.474
1747666198.96,-0.003,-0.047,-0.028,0.687,-0.673,0.213,-69.846,23.300,38.246
1747666198.97,-0.034,-0.036,-0.021,0.697,-0.682,0.171,-69.441,22.766,38.091
1747666198.98,-0.047,-0.008,-0.026,0.695,-0.680,0.168,-69.035,22.208,37.804
1747666198.99,-0.053,0.015,-0.046,0.680,-0.623,0.177,-68.635,21.692,37.653
1747666199.00,-0.052,0.036,-0.072,0.705,-0.522,0.165,-68.232,21.231,37.454
1747666199.01,-0.078,0.046,-0.084,0.686,-0.401,0.133,-67.830,20.812,37.284
1747666199.02,-0.105,0.024,-0.049,0.723,-0.342,0.122,-67.431,20.421,37.043
1747666199.03,-0.111,-0.013,-0.043,0.751,-0.245,0.143,-67.008,20.069,36.846
1747666199.04,-0.106,-0.039,-0.017,0.732,-0.080,0.182,-66.577,19.840,36.699
1747666199.05,-0.091,-0.051,-0.012,0.753,0.038,0.235,-66.140,19.763,36.623
1747666199.06,-0.072,-0.059,-0.072,0.793,0.087,0.288,-65.673,19.774,36.598
1747666199.07,-0.036,-0.071,-0.072,0.771,0.186,0.323,-65.192,19.877,36.626
1747666199.08,-0.009,-0.081,-0.037,0.749,0.305,0.334,-64.720,20.079,36.695
1747666199.09,-0.019,-0.076,-0.030,0.744,0.359,0.309,-64.256,20.329,36.757
1747666199.10,-0.038,-0.054,-0.040,0.761,0.275,0.263,-63.797,20.522,36.766
1747666199.11,-0.041,-0.019,-0.083,0.766,0.173,0.194,-63.341,20.586,36.696
1747666199.12,-0.012,0.011,-0.047,0.756,0.119,0.126,-62.903,20.532,36.544
1747666199.13,0.028,0.025,0.015,0.700,0.120,0.072,-62.493,20.419,36.342
1747666199.14,0.066,0.030,0.045,0.699,0.105,0.053,-62.110,20.286,36.115
1747666199.15,0.103,0.042,0.014,0.722,-0.011,0.098,-61.714,20.125,35.899
1747666199.16,0.151,0.051,0.021,0.741,-0.115,0.173,-61.295,19.956,35.751
1747666199.17,0.209,0.043,0.044,0.744,-0.168,0.236,-60.855,19.814,35.681
1747666199.18,0.228,0.021,0.021,0.766,-0.199,0.222,-60.406,19.673,35.641
1747666199.19,0.191,-0.007,-0.015,0.803,-0.227,0.183,-59.944,19.480,35.558
1747666199.20,0.103,-0.034,-0.040,0.772,-0.281,0.142,-59.486,19.226,35.433
1747666199.21,0.016,-0.057,-0.021,0.676,-0.227,0.121,-59.070,18.967,35.306
1747666199.22,-0.034,-0.073,0.027,0.621,-0.051,0.109,-58.701,18.794,35.197
1747666199.23,-0.082,-0.074,0.045,0.608,0.038,0.135,-58.346,18.718,35.105
1747666199.24,-0.110,-0.057,0.018,0.585,-0.001,0.214,-57.992,18.705,35.075
1747666199.25,-0.072,-0.021,0.002,0.598,-0.032,0.287,-57.627,18.743,35.131
1747666199.26,-0.007,0.025,-0.021,0.628,-0.061,0.298,-57.242,18.791,35.219
1747666199.27,0.012,0.072,-0.036,0.688,-0.076,0.238,-56.837,18.787,35.265
1747666199.28,-0.010,0.101,0.003,0.733,-0.004,0.139,-56.417,18.723,35.216
1747666199.29,-0.069,0.113,0.018,0.760,-0.002,0.023,-55.997,18.586,35.049
1747666199.30,-0.149,0.097,0.026,0.732,-0.029,-0.042,-55.594,18.368,34.796
1747666199.31,-0.180,0.053,0.021,0.711,-0.001,-0.044,-55.211,18.133,34.525
1747666199.32,-0.136,0.012,0.019,0.660,0.080,-0.012,-54.841,17.957,34.283
1747666199.33,-0.055,-0.023,0.038,0.597,0.125,0.084,-54.497,17.883,34.119
1747666199.34,0.040,-0.046,0.031,0.620,0.137,0.132,-54.147,17.900,34.045
1747666199.35,0.123,-0.033,0.016,0.613,0.096,0.156,-53.785,17.925,33.992
1747666199.36,0.156,-0.007,-0.010,0.606,-0.013,0.165,-53.427,17.927,33.962
1747666199.37,0.133,0.027,-0.057,0.637,-0.078,0.150,-53.061,17.866,33.924
1747666199.38,0.062,0.046,-0.030,0.671,-0.089,0.109,-52.683,17.761,33.853
1747666199.39,-0.021,0.039,-0.016,0.721,-0.094,0.065,-52.290,17.610,33.731
1747666199.40,-0.069,0.005,0.011,0.712,0.002,0.037,-51.888,17.457,33.573
1747666199.41,-0.096,-0.041,0.025,0.657,0.097,0.023,-51.508,17.359,33.410
1747666199.42,-0.095,-0.082,-0.025,0.595,0.155,0.017,-51.165,17.314,33.256
1747666199.43,-0.064,-0.106,-0.019,0.582,0.152,0.054,-50.839,17.301,33.125
1747666199.44,-0.001,-0.094,0.009,0.593,0.160,0.127,-50.504,17.328,33.046
1747666199.45,0.066,-0.034,0.025,0.638,0.105,0.167,-50.144,17.380,33.009
1747666199.46,0.093,0.052,-0.003,0.688,0.008,0.164,-49.753,17.386,32.976
1747666199.47,0.093,0.112,-0.008,0.667,-0.038,0.113,-49.357,17.330,32.961
1747666199.48,0.062,0.112,-0.003,0.628,-0.062,0.049,-48.994,17.224,32.861
1747666199.49,0.026,0.064,0.003,0.651,-0.068,0.026,-48.639,17.083,32.831
1747666199.50,-0.001,0.006,-0.005,0.638,-0.055,0.044,-48.279,16.944,32.694
1747666199.51,0.013,-0.043,-0.052,0.576,-0.029,0.067,-47.938,16.844,32.634
1747666199.52,0.052,-0.083,-0.048,0.531,-0.064,0.107,-47.622,16.770,32.569
1747666199.53,0.082,-0.096,-0.004,0.523,-0.081,0.195,-47.311,16.721,32.561
1747666199.54,0.087,-0.063,0.033,0.573,-0.142,0.168,-46.982,16.673,32.577
1747666199.55,0.076,-0.014,0.009,0.626,-0.225,0.166,-46.625,16.560,32.567
1747666199.56,0.075,0.012,-0.014,0.647,-0.262,0.154,-46.250,16.402,32.545
1747666199.57,0.044,0.023,-0.009,0.655,-0.268,0.119,-45.871,16.218,32.571
1747666199.58,-0.017,0.026,-0.032,0.625,-0.246,0.059,-45.503,16.017,32.497
1747666199.59,-0.080,0.011,-0.067,0.557,-0.181,-0.008,-45.174,15.813,32.516
1747666199.60,-0.118,-0.025,-0.041,0.486,-0.088,-0.034,-44.889,15.641,32.383
1747666199.61,-0.122,-0.055,-0.005,0.404,0.034,0.015,-44.648,15.548,32.403
1747666199.62,-0.078,-0.061,-0.013,0.394,0.111,0.160,-44.419,15.579,32.381
1747666199.63,-0.043,-0.011,-0.002,0.416,0.104,0.200,-44.166,15.683,32.587
1747666199.64,0.026,0.081,0.029,0.500,0.102,0.175,-43.888,15.774,32.634
1747666199.65,0.119,0.139,0.010,0.586,0.108,0.113,-43.565,15.831,32.778
1747666199.66,0.124,0.152,-0.015,0.590,-0.038,0.062,-43.227,15.808,32.714
1747666199.67,0.063,0.108,-0.038,0.626,-0.179,0.031,-42.887,15.681,32.773
1747666199.68,-0.002,0.026,-0.053,0.610,-0.229,0.007,-42.542,15.479,32.656
1747666199.69,-0.018,-0.048,-0.036,0.545,-0.114,-0.006,-42.223,15.297,32.681
1747666199.70,-0.026,-0.101,-0.013,0.446,0.033,0.027,-41.948,15.211,32.585
1747666199.71,-0.051,-0.111,-0.008,0.355,0.073,0.088,-41.720,15.219,32.705
1747666199.72,-0.040,-0.057,0.030,0.317,0.079,0.114,-41.522,15.269,32.713
1747666199.73,0.009,0.038,0.054,0.302,0.072,0.152,-41.332,15.338,32.911
1747666199.74,0.056,0.122,0.042,0.310,0.028,0.131,-41.142,15.398,32.956
1747666199.75,0.077,0.164,-0.005,0.331,-0.067,0.062,-40.951,15.393,33.118
1747666199.76,0.080,0.143,-0.029,0.368,-0.169,-0.008,-40.756,15.293,33.067
1747666199.77,0.058,0.073,-0.025,0.426,-0.282,-0.052,-40.541,15.096,33.120
1747666199.78,0.035,-0.006,-0.023,0.450,-0.298,-0.096,-40.308,14.835,32.981
1747666199.79,0.035,-0.070,-0.019,0.406,-0.235,-0.124,-40.084,14.576,32.968
1747666199.80,0.020,-0.117,-0.028,0.322,-0.155,-0.080,-39.896,14.373,32.825
1747666199.81,-0.001,-0.126,-0.028,0.222,-0.092,0.005,-39.751,14.253,32.907
1747666199.82,0.007,-0.080,-0.027,0.153,-0.022,0.080,-39.644,14.220,32.905
1747666199.83,0.035,0.003,-0.008,0.140,-0.013,0.138,-39.548,14.245,33.117
1747666199.84,0.072,0.083,-0.001,0.165,-0.027,0.165,-39.441,14.289,33.201
1747666199.85,0.092,0.129,-0.016,0.212,-0.081,0.140,-39.316,14.310,33.432
1747666199.86,0.054,0.115,-0.021,0.269,-0.152,0.096,-39.166,14.267,33.473
1747666199.87,-0.005,0.054,-0.013,0.298,-0.167,0.022,-38.999,14.169,33.600
1747666199.88,-0.044,-0.032,-0.011,0.297,-0.126,-0.036,-38.836,14.047,33.540
1747666199.89,-0.064,-0.109,-0.029,0.264,-0.068,-0.059,-38.685,13.938,33.601
1747666199.90,-0.061,-0.130,-0.068,0.176,0.027,-0.054,-38.571,13.875,33.523
1747666199.91,-0.053,-0.101,-0.090,0.130,0.108,-0.043,-38.495,13.877,33.619
1747666199.92,-0.061,-0.013,-0.040,0.114,0.137,-0.036,-38.433,13.917,33.569
1747666199.93,-0.033,0.107,0.021,0.124,0.112,-0.019,-38.371,13.965,33.678
1747666199.94,0.025,0.189,0.019,0.154,0.020,-0.016,-38.299,13.982,33.642
1747666199.95,0.070,0.180,0.027,0.197,-0.048,-0.021,-38.205,13.945,33.769
1747666199.96,0.071,0.091,0.019,0.230,-0.101,-0.041,-38.090,13.865,33.710
1747666199.97,0.033,-0.007,-0.012,0.224,-0.131,-0.064,-37.970,13.748,33.779
1747666199.98,-0.010,-0.068,-0.030,0.221,-0.111,-0.063,-37.856,13.626,33.695
1747666199.99,-0.035,-0.088,-0.016,0.210,-0.048,-0.055,-37.744,13.533,33.770
1747666200.00,-0.053,-0.080,-0.016,0.184,0.012,-0.049,-37.640,13.480,33.699
1747666200.01,-0.034,-0.056,-0.047,0.145,0.035,-0.035,-37.554,13.458,33.790
1747666200.02,0.016,-0.025,-0.049,0.096,0.051,-0.010,-37.492,13.462,33.755
1747666200.03,0.067,0.017,-0.008,0.078,0.021,0.013,-37.448,13.479,33.881
1747666200.04,0.113,0.057,0.003,0.085,-0.043,0.016,-37.403,13.474,33.880
1747666200.05,0.139,0.060,0.015,0.095,-0.100,0.010,-37.351,13.430,34.018
1747666200.06,0.131,0.016,0.022,0.109,-0.147,0.034,-37.290,13.355,34.013
1747666200.07,0.096,-0.033,0.027,0.115,-0.148,0.061,-37.220,13.276,34.163
1747666200.08,0.052,-0.058,0.022,0.123,-0.090,0.081,-37.144,13.223,34.192
1747666200.09,0.030,-0.069,-0.017,0.109,-0.030,0.096,-37.066,13.215,34.367
1747666200.10,0.006,-0.070,-0.046,0.093,-0.001,0.113,-36.995,13.241,34.425
1747666200.11,-0.015,-0.047,-0.038,0.047,0.003,0.114,-36.939,13.287,34.626
1747666200.12,-0.007,-0.015,-0.041,0.016,-0.034,0.096,-36.911,13.327,34.698
1747666200.13,0.019,0.002,-0.037,0.028,-0.066,0.087,-36.889,13.340,34.899
1747666200.14,0.026,-0.001,-0.011,0.047,-0.091,0.079,-36.858,13.333,34.954
1747666200.15,0.035,-0.009,-0.007,0.057,-0.118,0.087,-36.817,13.308,35.141
1747666200.16,0.044,-0.002,-0.011,0.060,-0.136,0.094,-36.770,13.272,35.198
1747666200.17,0.017,0.020,0.004,0.087,-0.126,0.087,-36.714,13.228,35.397
1747666200.18,-0.027,0.036,0.014,0.105,-0.082,0.075,-36.645,13.192,35.437
1747666200.19,-0.078,0.033,-0.001,0.074,-0.031,0.065,-36.581,13.177,35.609
1747666200.20,-0.109,0.007,-0.041,0.022,0.036,0.042,-36.548,13.195,35.637
1747666200.21,-0.124,-0.025,-0.070,0.017,0.096,0.031,-36.533,13.246,35.797
1747666200.22,-0.112,-0.032,-0.048,0.022,0.138,0.028,-36.517,13.325,35.816
1747666200.23,-0.064,0.018,-0.015,0.034,0.142,0.016,-36.499,13.417,35.969
1747666200.24,-0.001,0.087,-0.006,0.051,0.083,-0.013,-36.475,13.482,35.965
1747666200.25,0.054,0.121,0.010,0.092,0.023,-0.038,-36.440,13.495,36.064
1747666200.26,0.065,0.107,0.031,0.104,-0.036,-0.050,-36.391,13.463,36.015
1747666200.27,0.031,0.057,-0.007,0.086,-0.105,-0.044,-36.346,13.388,36.095
1747666200.28,0.003,0.010,-0.033,0.067,-0.110,-0.025,-36.309,13.298,36.056
1747666200.29,-0.011,-0.004,-0.024,0.057,-0.039,-0.026,-36.276,13.233,36.161
1747666200.30,-0.014,0.003,-0.032,0.022,0.016,-0.057,-36.256,13.203,36.124
1747666200.31,-0.030,0.014,-0.034,-0.030,0.052,-0.080,-36.269,13.189,36.219
1747666200.32,-0.012,0.019,-0.026,-0.075,0.097,-0.058,-36.310,13.210,36.179
1747666200.33,0.018,0.024,-0.016,-0.110,0.119,-0.018,-36.370,13.268,36.310
1747666200.34,0.033,0.043,-0.007,-0.130,0.119,-0.003,-36.442,13.350,36.326
1747666200.35,0.040,0.074,-0.026,-0.148,0.050,-0.006,-36.523,13.413,36.474
1747666200.36,0.048,0.092,-0.030,-0.128,-0.002,-0.013,-36.601,13.436,36.614
1747666200.37,0.067,0.091,-0.006,-0.109,-0.068,-0.042,-36.668,13.416,36.613
1747666200.38,0.076,0.045,-0.007,-0.121,-0.134,-0.060,-36.736,13.346,36.723
1747666200.39,0.075,-0.024,-0.020,-0.202,-0.174,-0.068,-36.831,13.244,36.704
1747666200.40,0.050,-0.072,-0.054,-0.264,-0.149,-0.073,-36.973,13.141,36.801
1747666200.41,0.014,-0.090,-0.060,-0.284,-0.069,-0.034,-37.132,13.084,36.808
1747666200.42,-0.029,-0.070,-0.061,-0.343,-0.005,0.017,-37.308,13.094,36.970
1747666200.43,-0.049,-0.032,-0.046,-0.372,0.053,0.046,-37.506,13.163,37.056
1747666200.44,-0.053,-0.001,-0.031,-0.360,0.068,0.027,-37.708,13.253,37.256
1747666200.45,-0.007,0.007,-0.057,-0.356,0.080,-0.027,-37.907,13.338,37.320
1747666200.46,0.076,-0.008,-0.094,-0.431,0.037,-0.083,-38.131,13.393,37.463
1747666200.47,0.143,-0.040,-0.093,-0.487,-0.029,-0.084,-38.397,13.411,37.482
1747666200.48,0.159,-0.047,-0.082,-0.500,-0.103,-0.071,-38.681,13.392,37.607
1747666200.49,0.118,-0.020,-0.084,-0.540,-0.177,-0.059,-38.978,13.337,37.649
1747666200.50,0.053,0.011,-0.057,-0.564,-0.194,-0.040,-39.293,13.263,37.799
1747666200.51,-0.008,0.040,-0.006,-0.559,-0.159,-0.033,-39.611,13.206,37.869
1747666200.52,-0.058,0.053,0.018,-0.556,-0.092,-0.045,-39.925,13.178,38.038
1747666200.53,-0.079,0.039,-0.016,-0.606,-0.004,-0.064,-40.253,13.187,38.096
1747666200.54,-0.063,0.009,-0.077,-0.738,0.086,-0.082,-40.633,13.249,38.242
1747666200.55,-0.038,-0.018,-0.120,-0.837,0.140,-0.088,-41.086,13.364,38.315
1747666200.56,-0.037,-0.031,-0.099,-0.850,0.117,-0.072,-41.567,13.500,38.488
1747666200.57,-0.051,-0.015,-0.041,-0.845,0.077,-0.059,-42.046,13.622,38.592
1747666200.58,-0.055,0.021,-0.037,-0.843,0.060,-0.086,-42.524,13.731,38.752
1747666200.59,-0.062,0.050,-0.025,-0.840,0.074,-0.143,-43.009,13.816,38.823
1747666200.60,-0.069,0.061,-0.010,-0.827,0.075,-0.217,-43.494,13.871,38.878
1747666200.61,-0.059,0.059,-0.019,-0.841,0.059,-0.268,-43.990,13.892,38.849
1747666200.62,-0.048,0.045,-0.026,-0.864,0.004,-0.292,-44.502,13.872,38.842
1747666200.63,-0.031,0.021,-0.029,-0.883,0.007,-0.291,-45.027,13.831,38.782
1747666200.64,-0.007,-0.012,-0.024,-0.864,0.027,-0.277,-45.551,13.802,38.759
1747666200.65,0.001,-0.044,-0.040,-0.858,0.044,-0.259,-46.064,13.790,38.714
1747666200.66,0.009,-0.072,-0.040,-0.876,0.098,-0.234,-46.579,13.812,38.706
1747666200.67,0.012,-0.088,-0.037,-0.902,0.131,-0.228,-47.104,13.872,38.696
1747666200.68,0.003,-0.094,-0.048,-0.924,0.150,-0.226,-47.641,13.951,38.705
1747666200.69,0.009,-0.100,-0.026,-0.949,0.203,-0.227,-48.193,14.055,38.710
1747666200.70,0.027,-0.107,-0.008,-0.943,0.247,-0.229,-48.749,14.191,38.718
1747666200.71,0.044,-0.113,-0.040,-0.949,0.244,-0.207,-49.302,14.346,38.736
1747666200.72,0.072,-0.112,-0.044,-0.995,0.255,-0.181,-49.866,14.523,38.761
1747666200.73,0.105,-0.103,-0.029,-1.045,0.262,-0.156,-50.454,14.737,38.846
1747666200.74,0.137,-0.087,-0.025,-1.067,0.248,-0.132,-51.059,14.976,38.942
1747666200.75,0.161,-0.060,-0.022,-1.078,0.221,-0.121,-51.669,15.223,39.086
1747666200.76,0.166,-0.025,-0.018,-1.094,0.181,-0.118,-52.286,15.465,39.206
1747666200.77,0.149,0.009,-0.013,-1.110,0.125,-0.123,-52.910,15.688,39.376
1747666200.78,0.111,0.039,-0.010,-1.131,0.055,-0.137,-53.545,15.878,39.485
1747666200.79,0.066,0.058,-0.015,-1.139,0.006,-0.153,-54.192,16.028,39.652
1747666200.80,0.029,0.068,-0.023,-1.165,0.004,-0.181,-54.850,16.156,39.741
1747666200.81,-0.006,0.066,-0.009,-1.197,-0.008,-0.208,-55.529,16.273,39.884
1747666200.82,-0.029,0.049,-0.030,-1.202,-0.020,-0.232,-56.222,16.370,39.939
1747666200.83,-0.029,0.025,-0.031,-1.199,0.013,-0.245,-56.918,16.461,40.052
1747666200.84,-0.016,0.004,-0.011,-1.207,0.066,-0.245,-57.617,16.577,40.063
1747666200.85,-0.007,-0.010,-0.006,-1.227,0.093,-0.238,-58.321,16.731,40.189
1747666200.86,-0.007,-0.015,-0.001,-1.267,0.083,-0.232,-59.041,16.910,40.216
1747666200.87,-0.002,-0.013,0.023,-1.313,0.084,-0.240,-59.785,17.106,40.388
1747666200.87,0.012,-0.003,0.033,-1.333,0.076,-0.255,-60.549,17.308,40.434
1747666200.89,0.015,0.010,0.021,-1.353,0.035,-0.285,-61.327,17.489,40.604
1747666200.89,0.024,0.015,0.020,-1.355,-0.002,-0.308,-62.116,17.631,40.616
1747666200.91,0.052,0.007,0.011,-1.339,-0.029,-0.320,-62.904,17.745,40.754
1747666200.91,0.062,-0.006,-0.007,-1.318,-0.084,-0.334,-63.684,17.822,40.730
1747666200.93,0.046,-0.019,-0.022,-1.281,-0.157,-0.361,-64.451,17.833,40.818
1747666200.93,0.017,-0.032,-0.022,-1.263,-0.205,-0.396,-65.208,17.763,40.723
1747666200.94,-0.013,-0.046,-0.021,-1.250,-0.189,-0.430,-65.963,17.634,40.707
1747666200.95,-0.036,-0.055,-0.024,-1.279,-0.154,-0.450,-66.726,17.486,40.509
1747666200.96,-0.054,-0.057,-0.017,-1.347,-0.097,-0.453,-67.519,17.359,40.451
1747666200.97,-0.042,-0.056,0.015,-1.378,-0.041,-0.421,-68.338,17.305,40.290
1747666200.98,-0.015,-0.048,-0.018,-1.333,-0.040,-0.376,-69.147,17.321,40.329
1747666200.99,-0.001,-0.041,-0.064,-1.296,-0.007,-0.349,-69.924,17.374,40.246
1747666201.00,0.014,-0.039,-0.040,-1.263,0.084,-0.346,-70.680,17.481,40.335
1747666201.02,0.005,-0.045,-0.047,-1.192,0.091,-0.377,-71.412,17.580,40.216
1747666201.02,-0.025,-0.058,-0.086,-1.072,0.078,-0.417,-72.097,17.563,40.150
1747666201.03,-0.039,-0.068,-0.077,-1.045,0.124,-0.412,-72.740,17.473,39.818
1747666201.04,-0.044,-0.065,-0.021,-1.142,0.221,-0.370,-73.400,17.484,39.727
1747666201.05,-0.071,-0.039,0.013,-1.260,0.307,-0.336,-74.115,17.693,39.611
1747666201.06,-0.099,-0.006,0.022,-1.311,0.365,-0.315,-74.874,18.069,39.801
1747666201.07,-0.102,0.017,0.019,-1.305,0.361,-0.316,-75.641,18.528,39.863
1747666201.08,-0.087,0.028,0.019,-1.253,0.317,-0.351,-76.394,18.940,40.087
1747666201.09,-0.037,0.022,0.012,-1.202,0.273,-0.376,-77.125,19.246,40.028
1747666201.10,0.039,-0.007,-0.002,-1.151,0.253,-0.367,-77.830,19.491,40.127
1747666201.11,0.099,-0.042,-0.040,-1.123,0.230,-0.350,-78.509,19.750,40.025
1747666201.12,0.119,-0.067,-0.056,-1.120,0.193,-0.344,-79.178,20.032,40.189
1747666201.13,0.117,-0.073,-0.071,-1.134,0.104,-0.331,-79.846,20.332,40.175
1747666201.14,0.097,-0.061,-0.087,-1.193,0.008,-0.338,-80.535,20.681,40.497
1747666201.15,0.066,-0.045,-0.077,-1.254,-0.029,-0.355,-81.259,21.075,40.684
1747666201.16,0.049,-0.025,-0.042,-1.269,0.037,-0.364,-82.007,21.554,41.171
1747666201.17,0.054,-0.010,0.004,-1.222,0.151,-0.348,-82.745,22.160,41.497
1747666201.18,0.068,-0.003,0.045,-1.170,0.236,-0.297,-83.446,23.035,42.266
1747666201.19,0.088,-0.005,0.062,-1.107,0.235,-0.254,-84.105,24.247,43.120
1747666201.20,0.116,-0.004,0.026,-1.113,0.197,-0.212,-84.734,25.883,44.639
1747666201.21,0.125,-0.016,0.030,-1.175,0.145,-0.181,-85.367,28.277,46.722
1747666201.22,0.103,-0.037,0.034,-1.186,0.122,-0.180,-86.004,31.669,50.046
1747666201.23,0.050,-0.044,0.016,-1.177,0.065,-0.188,-86.622,36.229,54.468
1747666201.24,-0.022,-0.043,0.018,-1.143,-0.021,-0.204,-87.207,42.451,60.685
1747666201.25,-0.097,-0.036,-0.003,-1.055,-0.088,-0.222,-87.729,50.919,69.194
1747666201.26,-0.176,-0.027,-0.027,-0.971,-0.131,-0.268,-88.164,62.129,80.475
1747666201.27,-0.221,-0.021,-0.005,-0.949,-0.115,-0.309,-88.510,77.863,96.289
1747666201.28,-0.227,-0.013,0.001,-0.888,-0.048,-0.333,-88.709,99.454,117.932
1747666201.29,-0.216,0.012,-0.026,-0.796,0.004,-0.343,-88.716,122.653,141.149
1747666201.30,-0.178,0.043,-0.030,-0.707,0.090,-0.333,-88.571,141.665,160.142
1747666201.31,-0.117,0.057,0.004,-0.636,0.222,-0.311,-88.341,155.053,173.446
1747666201.32,-0.069,0.064,0.007,-0.575,0.307,-0.280,-88.075,164.146,-177.609
1747666201.33,-0.031,0.069,0.000,-0.518,0.402,-0.230,-87.805,170.238,-171.714
1747666201.34,-0.007,0.049,0.045,-0.533,0.509,-0.170,-87.526,174.268,-167.940
1747666201.35,-0.022,0.002,0.079,-0.591,0.559,-0.130,-87.214,176.953,-165.561
1747666201.36,-0.061,-0.045,0.066,-0.657,0.575,-0.091,-86.860,178.743,-164.091
1747666201.37,-0.070,-0.097,0.051,-0.679,0.673,-0.073,-86.477,179.972,-163.213
1747666201.38,-0.052,-0.121,0.033,-0.678,0.770,-0.071,-86.089,-179.031,-162.631
1747666201.39,-0.018,-0.092,0.022,-0.644,0.781,-0.073,-85.709,-178.133,-162.177
1747666201.40,0.030,-0.015,0.015,-0.575,0.699,-0.088,-85.357,-177.298,-161.766
1747666201.41,0.074,0.067,-0.020,-0.460,0.536,-0.109,-85.058,-176.470,-161.292
1747666201.42,0.109,0.109,-0.041,-0.368,0.304,-0.120,-84.820,-175.660,-160.722
1747666201.43,0.131,0.103,-0.045,-0.334,0.102,-0.119,-84.617,-174.991,-160.162
1747666201.44,0.127,0.062,-0.035,-0.341,-0.008,-0.134,-84.419,-174.406,-159.599
1747666201.45,0.105,0.007,0.001,-0.347,-0.090,-0.140,-84.215,-173.855,-159.016
1747666201.46,0.081,-0.029,0.026,-0.365,-0.111,-0.144,-84.005,-173.358,-158.459
1747666201.47,0.046,-0.044,0.019,-0.346,-0.160,-0.158,-83.791,-172.869,-157.892
1747666201.48,0.002,-0.044,-0.007,-0.284,-0.204,-0.191,-83.599,-172.308,-157.219
1747666201.49,-0.018,-0.026,-0.008,-0.241,-0.181,-0.231,-83.434,-171.552,-156.347
1747666201.50,-0.016,-0.019,0.001,-0.206,-0.127,-0.238,-83.288,-170.655,-155.355
1747666201.51,-0.004,-0.002,0.001,-0.193,-0.117,-0.196,-83.154,-169.854,-154.480
1747666201.52,-0.009,0.020,-0.004,-0.159,-0.173,-0.165,-83.037,-169.254,-153.793
1747666201.53,-0.023,0.028,0.019,-0.134,-0.266,-0.138,-82.939,-168.819,-153.229
1747666201.54,-0.023,0.020,0.051,-0.158,-0.294,-0.114,-82.846,-168.545,-152.789
1747666201.55,-0.014,0.012,0.062,-0.189,-0.278,-0.097,-82.736,-168.409,-152.486
1747666201.56,0.008,-0.007,0.016,-0.166,-0.261,-0.083,-82.625,-168.337,-152.258
1747666201.57,0.024,-0.030,-0.013,-0.130,-0.232,-0.067,-82.532,-168.283,-152.063
1747666201.58,0.025,-0.033,-0.003,-0.102,-0.163,-0.066,-82.460,-168.216,-151.878
1747666201.59,0.009,-0.019,0.013,-0.093,-0.032,-0.077,-82.398,-168.056,-151.657
1747666201.60,-0.022,0.009,0.053,-0.109,0.106,-0.081,-82.332,-167.788,-151.412
1747666201.61,-0.078,0.031,0.098,-0.115,0.132,-0.074,-82.260,-167.497,-151.193
1747666201.62,-0.149,0.046,0.113,-0.156,0.107,-0.070,-82.177,-167.264,-151.024
1747666201.63,-0.190,0.046,0.102,-0.192,0.108,-0.075,-82.070,-167.083,-150.903
1747666201.64,-0.174,0.014,0.067,-0.200,0.111,-0.086,-81.950,-166.883,-150.764
1747666201.65,-0.098,-0.052,0.041,-0.183,0.172,-0.081,-81.832,-166.650,-150.605
1747666201.66,0.006,-0.105,0.041,-0.157,0.286,-0.053,-81.730,-166.428,-150.514
1747666201.67,0.089,-0.104,0.029,-0.137,0.351,-0.019,-81.643,-166.240,-150.510
1747666201.68,0.139,-0.057,0.012,-0.113,0.354,0.023,-81.576,-166.163,-150.639
1747666201.69,0.141,0.013,-0.001,-0.072,0.211,0.048,-81.527,-166.227,-150.873
1747666201.70,0.102,0.061,-0.018,0.006,-0.002,0.052,-81.513,-166.380,-151.087
1747666201.71,0.068,0.077,-0.025,0.051,-0.164,0.042,-81.537,-166.577,-151.237
1747666201.72,0.052,0.060,-0.031,0.069,-0.293,0.018,-81.575,-166.768,-151.297
1747666201.73,0.058,0.013,-0.057,0.094,-0.374,0.004,-81.623,-166.934,-151.269
1747666201.74,0.081,-0.037,-0.049,0.138,-0.402,0.007,-81.688,-167.079,-151.191
1747666201.75,0.089,-0.060,-0.034,0.163,-0.399,-0.001,-81.774,-167.189,-151.070
1747666201.76,0.062,-0.044,-0.025,0.178,-0.373,-0.023,-81.867,-167.208,-150.866
1747666201.77,0.018,0.003,-0.029,0.219,-0.321,-0.026,-81.973,-167.132,-150.588
1747666201.78,-0.030,0.047,-0.021,0.273,-0.277,0.006,-82.109,-167.027,-150.310
1747666201.79,-0.083,0.062,0.003,0.307,-0.279,0.064,-82.276,-167.050,-150.174
1747666201.80,-0.131,0.051,0.011,0.336,-0.256,0.104,-82.466,-167.252,-150.221
1747666201.81,-0.147,0.016,0.002,0.356,-0.125,0.114,-82.673,-167.503,-150.361
1747666201.82,-0.119,-0.032,0.004,0.351,0.045,0.134,-82.886,-167.720,-150.558
1747666201.83,-0.074,-0.063,0.005,0.327,0.173,0.178,-83.095,-168.023,-150.928
1747666201.84,-0.038,-0.049,0.006,0.289,0.230,0.217,-83.289,-168.549,-151.576
1747666201.85,-0.016,0.008,0.005,0.292,0.243,0.212,-83.475,-169.183,-152.353
1747666201.86,-0.003,0.064,0.031,0.293,0.218,0.184,-83.660,-169.770,-153.076
1747666201.87,0.011,0.076,0.081,0.293,0.236,0.157,-83.840,-170.262,-153.699
1747666201.88,0.017,0.047,0.127,0.321,0.268,0.149,-84.028,-170.643,-154.230
1747666201.89,0.015,-0.003,0.125,0.338,0.250,0.166,-84.229,-171.066,-154.804
1747666201.90,0.010,-0.039,0.124,0.333,0.221,0.178,-84.433,-171.617,-155.495
1747666201.91,0.001,-0.047,0.125,0.339,0.110,0.174,-84.638,-172.286,-156.265
1747666201.92,-0.023,-0.037,0.102,0.345,-0.028,0.149,-84.843,-172.994,-156.999
1747666201.93,-0.045,-0.033,0.088,0.357,-0.149,0.108,-85.050,-173.614,-157.571
1747666201.94,-0.045,-0.032,0.065,0.381,-0.239,0.079,-85.265,-174.084,-157.928
1747666201.95,-0.024,-0.023,0.049,0.395,-0.286,0.064,-85.489,-174.442,-158.135
