Time,AccX,AccY,AccZ,GyroX,GyroY,GyroZ,Pitch,Roll,Yaw
1747667642.18,-0.051,-0.012,-0.016,0.050,0.087,0.002,-86.762,5.814,11.465
1747667642.19,-0.020,-0.019,-0.010,0.013,0.081,0.014,-86.735,5.846,11.448
1747667642.20,0.003,-0.011,0.005,-0.012,0.061,0.023,-86.722,5.958,11.520
1747667642.20,0.005,-0.002,0.009,-0.017,0.061,-0.002,-86.717,5.981,11.510
1747667642.20,0.003,-0.008,0.018,-0.003,0.048,0.002,-86.718,5.862,11.359
1747667642.21,0.005,-0.010,0.022,0.012,0.014,0.010,-86.715,5.728,11.206
1747667642.22,-0.008,0.001,0.008,0.027,-0.012,-0.003,-86.707,5.394,10.872
1747667642.23,-0.013,0.011,-0.011,0.038,-0.015,-0.008,-86.689,4.912,10.400
1747667642.24,-0.008,0.016,-0.012,0.030,-0.014,-0.015,-86.667,4.482,9.977
1747667642.25,-0.008,0.021,-0.002,0.016,-0.026,-0.028,-86.653,4.153,9.659
1747667642.26,-0.013,0.022,0.009,0.005,-0.031,-0.030,-86.650,3.886,9.409
1747667642.27,-0.012,0.014,0.018,-0.008,-0.019,-0.037,-86.656,3.592,9.128
1747667642.28,-0.018,-0.003,0.033,-0.008,-0.023,-0.046,-86.668,3.205,8.752
1747667642.29,-0.028,-0.019,0.025,-0.005,-0.037,-0.045,-86.681,2.796,8.360
1747667642.30,-0.028,-0.023,0.017,-0.012,-0.061,-0.035,-86.690,2.339,7.930
1747667642.31,-0.021,-0.021,0.011,-0.016,-0.075,-0.023,-86.695,1.948,7.578
1747667642.32,-0.013,-0.011,-0.001,0.001,-0.044,-0.019,-86.695,1.672,7.338
1747667642.33,-0.001,0.003,-0.010,0.024,-0.008,-0.010,-86.686,1.466,7.145
1747667642.34,-0.001,0.016,-0.017,0.020,0.007,0.000,-86.677,1.351,7.030
1747667642.35,-0.012,0.016,-0.025,0.026,0.024,0.006,-86.673,1.324,6.995
1747667642.36,-0.021,0.006,-0.031,0.019,0.036,0.010,-86.673,1.298,6.951
1747667642.37,-0.029,-0.014,-0.007,0.003,0.045,0.013,-86.678,1.211,6.842
1747667642.38,-0.031,-0.031,0.015,-0.004,0.036,0.025,-86.686,1.226,6.835
1747667642.39,-0.023,-0.026,0.013,0.001,0.013,0.031,-86.691,1.380,6.974
1747667642.40,-0.017,0.002,0.003,0.013,-0.012,0.018,-86.687,1.525,7.120
1747667642.41,-0.017,0.016,-0.008,0.043,-0.036,0.005,-86.667,1.597,7.206
1747667642.42,-0.015,0.011,-0.017,0.065,-0.021,0.007,-86.628,1.604,7.230
1747667642.43,-0.008,-0.006,-0.019,0.059,-0.000,0.012,-86.583,1.584,7.218
1747667642.44,-0.004,-0.014,-0.016,0.065,0.015,0.002,-86.537,1.507,7.136
1747667642.45,-0.005,-0.009,-0.023,0.074,0.029,-0.009,-86.495,1.263,6.880
1747667642.46,-0.005,0.009,-0.023,0.082,0.041,-0.002,-86.459,1.003,6.599
1747667642.47,-0.008,0.012,-0.013,0.089,0.051,0.026,-86.416,0.963,6.534
1747667642.48,-0.013,0.000,0.005,0.071,0.070,0.048,-86.372,1.219,6.757
1747667642.49,-0.024,-0.005,0.019,0.046,0.051,0.049,-86.339,1.588,7.091
1747667642.50,-0.031,-0.002,0.011,0.049,0.041,0.031,-86.308,1.865,7.345
1747667642.51,-0.028,0.006,0.016,0.057,0.024,0.015,-86.272,2.011,7.471
1747667642.52,-0.023,0.010,0.027,0.069,-0.012,0.011,-86.231,2.064,7.521
1747667642.53,-0.018,0.006,0.026,0.088,-0.027,0.000,-86.180,2.036,7.504
1747667642.54,-0.008,0.004,0.023,0.112,-0.035,0.000,-86.116,1.953,7.438
1747667642.55,0.002,0.007,0.017,0.148,-0.050,-0.005,-86.039,1.820,7.328
1747667642.56,0.004,0.016,0.002,0.179,-0.057,-0.011,-85.950,1.610,7.150
1747667642.57,-0.002,0.018,-0.003,0.221,-0.056,-0.018,-85.848,1.302,6.874
1747667642.58,-0.011,0.008,0.001,0.277,-0.033,-0.015,-85.713,0.954,6.551
1747667642.59,-0.017,0.001,0.006,0.282,-0.031,0.016,-85.563,0.772,6.387
1747667642.60,-0.020,-0.009,0.023,0.258,-0.065,0.042,-85.424,0.830,6.472
1747667642.61,-0.037,-0.006,0.023,0.264,-0.109,0.030,-85.292,0.929,6.623
1747667642.62,-0.047,-0.001,0.012,0.286,-0.094,0.020,-85.149,0.969,6.724
1747667642.63,-0.034,-0.015,0.023,0.294,-0.046,0.025,-84.997,1.059,6.855
1747667642.64,-0.015,-0.027,0.033,0.326,0.001,0.023,-84.830,1.187,6.995
1747667642.65,-0.004,-0.022,0.028,0.401,0.025,0.017,-84.630,1.271,7.070
1747667642.66,-0.001,0.001,0.007,0.482,0.005,0.009,-84.386,1.253,7.041
1747667642.67,-0.003,0.019,-0.013,0.565,-0.026,0.011,-84.097,1.180,6.976
1747667642.68,-0.003,0.022,-0.014,0.651,-0.045,0.024,-83.748,1.177,6.993
1747667642.69,-0.007,0.017,-0.017,0.703,-0.054,0.048,-83.360,1.249,7.096
1747667642.70,-0.019,-0.000,-0.003,0.719,-0.000,0.089,-82.951,1.459,7.325
1747667642.71,-0.025,-0.023,0.041,0.691,0.115,0.142,-82.545,1.913,7.750
1747667642.72,-0.041,-0.032,0.087,0.599,0.174,0.174,-82.171,2.570,8.328
1747667642.73,-0.076,-0.024,0.100,0.499,0.168,0.182,-81.856,3.287,8.951
1747667642.74,-0.102,-0.025,0.079,0.533,0.127,0.174,-81.560,3.932,9.519
1747667642.75,-0.096,-0.041,0.054,0.626,0.144,0.181,-81.222,4.515,10.032
1747667642.76,-0.050,-0.042,0.064,0.684,0.163,0.177,-80.839,5.050,10.484
1747667642.77,-0.003,-0.012,0.062,0.704,0.090,0.162,-80.434,5.492,10.854
1747667642.78,0.021,0.028,0.029,0.761,-0.043,0.146,-80.011,5.777,11.129
1747667642.79,0.032,0.066,0.019,0.820,-0.136,0.139,-79.551,5.916,11.324
1747667642.80,0.023,0.087,0.071,0.829,-0.199,0.133,-79.074,5.969,11.475
1747667642.81,-0.021,0.074,0.081,0.874,-0.263,0.112,-78.585,5.935,11.577
1747667642.82,-0.081,0.036,0.025,0.924,-0.226,0.105,-78.066,5.827,11.612
1747667642.83,-0.105,-0.010,0.016,0.886,-0.180,0.132,-77.544,5.779,11.679
1747667642.84,-0.117,-0.044,0.017,0.869,-0.149,0.129,-77.040,5.794,11.794
1747667642.85,-0.112,-0.041,0.004,0.877,-0.076,0.106,-76.536,5.802,11.869
1747667642.86,-0.080,-0.020,0.031,0.881,-0.000,0.082,-76.033,5.791,11.879
1747667642.87,-0.050,-0.005,0.044,0.925,-0.015,0.090,-75.516,5.770,11.857
1747667642.88,-0.031,0.011,0.005,0.955,-0.014,0.117,-74.974,5.779,11.965
1747667642.89,-0.018,0.027,0.010,0.958,0.064,0.126,-74.424,5.839,12.014
1747667642.90,-0.019,0.012,0.038,1.003,0.087,0.144,-73.859,5.959,12.186
1747667642.91,-0.029,-0.015,-0.005,0.976,0.063,0.163,-73.284,6.084,12.406
1747667642.92,0.006,-0.033,0.006,0.874,0.148,0.234,-72.746,6.317,12.590
1747667642.93,0.044,-0.055,0.058,0.852,0.232,0.218,-72.246,6.672,12.975
1747667642.94,0.053,-0.054,0.028,0.898,0.168,0.204,-71.735,6.973,13.167
1747667642.95,0.060,-0.042,-0.025,0.935,0.023,0.213,-71.201,7.189,13.478
1747667642.96,0.069,-0.020,-0.046,0.995,-0.132,0.238,-70.638,7.322,13.652
1747667642.97,0.060,0.007,-0.055,1.029,-0.231,0.168,-70.047,7.337,13.930
1747667642.98,0.034,0.041,-0.030,1.103,-0.227,0.090,-69.436,7.191,13.919
1747667642.99,0.009,0.041,-0.012,1.129,-0.165,0.014,-68.794,6.948,13.931
1747667643.00,-0.031,0.010,0.001,1.022,-0.073,-0.010,-68.183,6.688,13.727
1747667643.01,-0.064,-0.054,-0.009,0.980,-0.006,0.014,-67.617,6.510,13.714
1747667643.02,-0.092,-0.104,-0.071,0.959,0.015,0.028,-67.066,6.392,13.582
1747667643.03,-0.096,-0.117,-0.062,0.970,0.043,0.127,-66.516,6.355,13.694
1747667643.04,-0.062,-0.098,-0.025,0.974,0.110,0.159,-65.954,6.452,13.751
1747667643.05,-0.008,-0.035,0.008,0.992,0.141,0.156,-65.386,6.582,13.987
1747667643.06,0.017,0.006,-0.001,1.028,0.083,0.181,-64.805,6.707,14.052
1747667643.07,0.035,0.033,-0.025,1.054,0.084,0.137,-64.201,6.797,14.290
1747667643.08,0.075,0.042,-0.018,1.007,0.097,0.088,-63.608,6.835,14.274
1747667643.09,0.091,0.005,0.009,1.059,0.037,0.070,-63.021,6.821,14.409
1747667643.10,0.100,-0.025,-0.029,1.076,-0.027,0.085,-62.406,6.764,14.344
1747667643.11,0.110,-0.033,0.012,1.048,-0.050,0.125,-61.797,6.719,14.509
1747667643.12,0.109,-0.033,0.030,0.988,-0.121,0.163,-61.208,6.696,14.536
1747667643.13,0.093,-0.034,-0.014,0.967,-0.182,0.183,-60.644,6.671,14.816
1747667643.14,0.074,-0.029,-0.031,0.954,-0.275,0.165,-60.086,6.604,14.888
1747667643.15,0.059,-0.024,-0.014,0.930,-0.340,0.159,-59.542,6.476,15.152
1747667643.16,0.054,-0.020,0.016,0.951,-0.362,0.141,-59.002,6.321,15.202
1747667643.17,0.025,0.000,0.026,1.002,-0.429,0.112,-58.439,6.116,15.433
1747667643.18,-0.012,0.039,-0.007,1.046,-0.472,0.066,-57.851,5.840,15.415
1747667643.19,-0.035,0.074,-0.027,1.140,-0.431,0.003,-57.230,5.513,15.558
1747667643.20,-0.057,0.088,0.002,1.180,-0.286,-0.067,-56.568,5.182,15.411
1747667643.21,-0.099,0.079,0.065,1.170,-0.147,-0.122,-55.904,4.891,15.440
1747667643.22,-0.155,0.049,0.056,1.139,-0.175,-0.138,-55.253,4.613,15.208
1747667643.23,-0.170,-0.007,-0.034,1.065,-0.232,-0.067,-54.628,4.336,15.125
1747667643.24,-0.097,-0.071,-0.050,0.960,-0.176,0.079,-54.051,4.159,15.058
1747667643.25,0.011,-0.109,0.045,0.930,-0.062,0.090,-53.512,4.112,15.203
1747667643.26,0.083,-0.096,0.095,0.970,-0.034,0.075,-52.969,4.098,15.215
1747667643.27,0.112,-0.048,0.072,1.038,-0.073,0.080,-52.394,4.073,15.491
1747667643.28,0.125,0.026,0.045,1.089,-0.096,0.065,-51.784,4.022,15.490
1747667643.29,0.110,0.084,0.053,1.122,-0.084,0.026,-51.152,3.948,15.460
1747667643.30,0.067,0.104,0.041,1.152,-0.100,-0.021,-50.503,3.841,15.391
1747667643.31,0.016,0.094,0.031,1.128,-0.081,-0.043,-49.852,3.714,15.293
1747667643.32,-0.014,0.052,0.052,1.064,-0.086,-0.022,-49.229,3.603,15.202
1747667643.33,-0.028,-0.002,-0.005,1.036,-0.139,0.012,-48.633,3.490,15.139
1747667643.34,-0.004,-0.039,-0.029,0.994,-0.166,0.049,-48.052,3.382,15.112
1747667643.35,0.017,-0.051,0.015,0.954,-0.158,0.099,-47.496,3.299,15.127
1747667643.36,0.028,-0.040,0.040,0.964,-0.144,0.139,-46.947,3.254,15.183
1747667643.37,0.012,-0.010,0.040,1.014,-0.125,0.127,-46.379,3.227,15.250
1747667643.38,-0.027,0.033,0.021,1.092,-0.132,0.044,-45.777,3.172,15.275
1747667643.39,-0.046,0.067,-0.024,1.174,-0.129,-0.093,-45.131,3.041,15.205
1747667643.40,-0.020,0.066,0.050,1.200,0.009,-0.191,-44.457,2.888,15.036
1747667643.41,-0.005,0.027,0.097,1.178,0.016,-0.193,-43.780,2.759,14.831
1747667643.42,-0.041,-0.038,-0.060,1.039,-0.129,-0.120,-43.149,2.618,14.665
1747667643.43,-0.051,-0.105,-0.099,0.929,-0.267,-0.003,-42.593,2.441,14.581
1747667643.44,0.027,-0.131,-0.041,0.888,-0.199,0.117,-42.074,2.312,14.597
1747667643.45,0.125,-0.094,0.043,0.902,-0.105,0.175,-41.562,2.287,14.686
1747667643.46,0.125,-0.016,0.045,0.954,-0.061,0.138,-41.029,2.303,14.780
1747667643.47,0.045,0.063,0.006,1.000,-0.106,0.047,-40.470,2.287,14.821
1747667643.48,-0.039,0.107,0.006,1.023,-0.205,-0.032,-39.894,2.180,14.796
1747667643.49,-0.056,0.107,0.064,1.082,-0.218,-0.088,-39.296,2.008,14.722
1747667643.50,-0.011,0.067,0.128,1.176,-0.128,-0.106,-38.654,1.842,14.621
1747667643.51,0.028,0.010,0.112,1.250,-0.007,-0.101,-37.960,1.741,14.518
1747667643.52,0.013,-0.039,-0.078,1.145,-0.022,-0.101,-37.272,1.680,14.420
1747667643.53,-0.062,-0.088,-0.215,1.044,-0.163,-0.079,-36.653,1.570,14.330
1747667643.54,-0.105,-0.129,-0.115,1.000,-0.247,-0.006,-36.070,1.411,14.280
1747667643.55,-0.087,-0.116,0.030,0.937,-0.105,0.071,-35.516,1.314,14.289
1747667643.56,-0.064,-0.054,0.076,0.927,-0.039,0.071,-34.985,1.301,14.327
1747667643.57,-0.074,0.018,0.011,0.947,-0.085,0.016,-34.450,1.278,14.343
1747667643.58,-0.040,0.066,0.003,1.026,-0.221,-0.052,-33.889,1.177,14.316
1747667643.59,0.039,0.073,0.065,1.155,-0.299,-0.115,-33.269,0.982,14.244
1747667643.60,0.134,0.036,0.148,1.275,-0.190,-0.175,-32.573,0.777,14.132
1747667643.61,0.166,-0.034,0.022,1.246,-0.058,-0.226,-31.851,0.635,13.987
1747667643.62,0.044,-0.124,-0.099,1.159,-0.244,-0.244,-31.164,0.468,13.818
1747667643.63,-0.117,-0.189,-0.121,1.056,-0.388,-0.112,-30.532,0.208,13.686
1747667643.64,-0.063,-0.202,-0.047,0.972,-0.251,0.105,-29.954,0.024,13.685
1747667643.65,0.081,-0.132,0.031,0.927,-0.156,0.206,-29.413,-0.038,13.792
1747667643.66,0.122,-0.013,0.016,0.920,-0.121,0.237,-28.887,-0.043,13.939
1747667643.67,0.131,0.081,0.001,0.964,-0.218,0.259,-28.350,-0.057,14.101
1747667643.68,0.171,0.124,0.019,1.022,-0.288,0.262,-27.783,-0.126,14.274
1747667643.69,0.215,0.118,0.110,1.094,-0.238,0.171,-27.180,-0.212,14.418
1747667643.70,0.193,0.066,0.096,1.161,-0.169,0.052,-26.533,-0.293,14.491
1747667643.71,0.074,-0.023,-0.002,1.122,-0.197,0.017,-25.875,-0.387,14.512
1747667643.72,-0.107,-0.117,-0.097,1.023,-0.196,0.110,-25.265,-0.480,14.553
1747667643.73,-0.231,-0.164,-0.091,0.960,-0.156,0.236,-24.700,-0.542,14.667
1747667643.74,-0.235,-0.105,-0.014,0.915,0.030,0.304,-24.167,-0.504,14.847
1747667643.75,-0.156,0.024,0.018,0.896,0.176,0.278,-23.651,-0.366,15.347
1747667643.76,-0.090,0.130,-0.006,0.902,0.158,0.194,-23.141,-0.205,15.497
1747667643.77,-0.002,0.164,0.019,0.975,0.029,0.088,-22.607,-0.116,15.587
1747667643.78,0.094,0.147,0.071,1.085,-0.038,-0.000,-22.022,-0.112,15.613
1747667643.79,0.093,0.105,0.115,1.237,-0.029,-0.067,-21.358,-0.139,16.199
1747667643.80,-0.021,0.061,0.058,1.330,0.002,-0.144,-20.621,-0.171,16.136
1747667643.81,-0.188,0.006,-0.070,1.320,-0.050,-0.264,-19.861,-0.220,16.297
1747667643.82,-0.298,-0.056,-0.078,1.205,-0.024,-0.230,-19.139,-0.302,16.460
1747667643.83,-0.272,-0.067,0.003,1.084,0.155,-0.096,-18.486,-0.295,16.366
1747667643.84,-0.195,0.001,0.035,1.051,0.190,-0.073,-17.880,-0.206,16.945
1747667643.85,-0.116,0.102,-0.001,1.046,0.129,-0.089,-17.281,-0.128,16.897
1747667643.86,0.009,0.155,-0.003,1.065,0.069,-0.085,-16.680,-0.086,17.458
1747667643.87,0.124,0.143,0.030,1.101,-0.027,-0.113,-16.062,-0.088,17.402
1747667643.88,0.144,0.084,0.073,1.147,-0.159,-0.160,-15.419,-0.163,17.923
1747667643.89,0.098,-0.021,0.122,1.163,-0.237,-0.194,-14.758,-0.305,17.822
1747667643.90,0.073,-0.156,0.113,1.179,-0.136,-0.216,-14.088,-0.453,18.288
1747667643.91,0.106,-0.265,0.014,1.298,0.224,-0.156,-13.384,-0.449,18.185
1747667643.92,0.097,-0.288,-0.092,1.280,0.442,-0.153,-12.635,-0.267,18.696
1747667643.93,0.002,-0.214,-0.161,1.139,0.491,-0.084,-11.950,-0.015,18.620
1747667643.94,-0.032,-0.090,-0.106,1.105,0.400,0.126,-11.311,0.241,19.227
1747667643.95,-0.030,0.092,-0.022,1.091,0.453,0.155,-10.684,0.495,19.307
1747667643.96,-0.037,0.253,0.057,1.098,0.394,0.170,-10.055,0.753,19.954
1747667643.97,0.004,0.289,0.118,1.137,0.298,0.213,-9.414,0.973,20.057
1747667643.98,0.076,0.232,0.085,1.137,0.116,0.118,-8.762,1.105,20.696
1747667643.99,0.125,0.122,0.022,1.156,-0.028,0.061,-8.108,1.130,20.733
1747667644.00,0.108,0.000,0.007,1.187,-0.275,0.016,-7.438,1.047,21.286
1747667644.01,0.041,-0.059,0.041,1.195,-0.296,-0.089,-6.754,0.871,21.251
1747667644.02,-0.037,-0.084,0.042,1.161,-0.170,-0.153,-6.081,0.727,21.713
1747667644.03,-0.171,-0.118,-0.035,1.076,-0.029,-0.196,-5.442,0.657,21.603
1747667644.04,-0.241,-0.160,-0.121,1.026,0.094,-0.160,-4.846,0.669,22.037
1747667644.05,-0.212,-0.124,-0.081,1.006,0.156,-0.121,-4.267,0.732,21.951
1747667644.06,-0.112,0.048,0.024,1.037,0.201,-0.141,-3.686,0.832,22.399
1747667644.07,-0.014,0.164,0.068,1.057,0.102,-0.206,-3.088,0.917,22.291
1747667644.08,0.046,0.138,0.050,1.083,-0.035,-0.238,-2.480,0.928,22.665
1747667644.09,0.152,0.023,0.016,1.119,-0.146,-0.221,-1.853,0.869,22.522
1747667644.10,0.232,-0.053,-0.011,1.141,-0.213,-0.208,-1.211,0.768,22.891
1747667644.11,0.202,-0.060,-0.013,1.184,-0.260,-0.252,-0.547,0.625,22.748
1747667644.12,0.111,-0.061,-0.041,1.139,-0.180,-0.177,0.118,0.496,23.102
1747667644.13,0.009,-0.046,-0.105,1.066,-0.069,-0.004,0.748,0.423,23.042
1747667644.14,-0.031,0.015,-0.131,0.983,0.039,0.190,1.332,0.412,23.578
1747667644.15,0.011,0.062,-0.122,0.958,0.165,0.280,1.885,0.467,23.711
1747667644.16,0.108,0.054,-0.084,0.991,0.222,0.312,2.439,0.573,24.360
1747667644.17,0.194,0.010,-0.058,1.034,0.240,0.332,3.023,0.699,24.539
1747667644.18,0.239,-0.024,-0.036,0.990,0.160,0.303,3.602,0.805,25.192
1747667644.19,0.213,-0.037,-0.036,0.976,0.045,0.268,4.166,0.853,25.346
1747667644.20,0.119,-0.056,-0.035,0.940,-0.051,0.259,4.716,0.840,25.938
1747667644.21,-0.022,-0.074,-0.060,0.891,-0.072,0.261,5.242,0.791,26.079
1747667644.22,-0.146,-0.066,-0.066,0.872,0.024,0.259,5.745,0.759,26.657
1747667644.23,-0.209,-0.046,-0.032,0.841,0.190,0.234,6.238,0.805,26.793
1747667644.24,-0.201,-0.034,-0.041,0.812,0.303,0.176,6.710,0.938,27.343
1747667644.25,-0.159,0.000,-0.084,0.807,0.292,0.150,7.174,1.102,27.428
1747667644.26,-0.120,0.055,-0.088,0.786,0.186,0.147,7.632,1.230,27.933
1747667644.27,-0.071,0.073,-0.104,0.750,0.046,0.113,8.071,1.287,27.998
1747667644.28,0.001,0.072,-0.133,0.753,-0.118,0.068,8.501,1.263,28.452
1747667644.29,0.052,0.058,-0.151,0.736,-0.264,0.050,8.929,1.146,28.477
1747667644.30,0.040,0.026,-0.117,0.723,-0.286,0.083,9.346,0.980,28.918
1747667644.31,-0.006,-0.002,-0.059,0.698,-0.194,0.124,9.755,0.833,28.972
1747667644.32,-0.067,-0.012,-0.064,0.629,-0.087,0.141,10.135,0.740,29.457
1747667644.33,-0.107,-0.033,-0.078,0.608,0.041,0.150,10.488,0.712,29.537
1747667644.34,-0.093,-0.023,-0.049,0.604,0.156,0.160,10.836,0.755,30.020
1747667644.35,-0.034,0.015,-0.051,0.587,0.186,0.144,11.177,0.840,30.104
1747667644.36,0.037,0.023,-0.071,0.574,0.119,0.145,11.511,0.916,30.576
1747667644.37,0.103,-0.023,-0.066,0.514,0.027,0.187,11.824,0.939,30.667
1747667644.38,0.154,-0.052,-0.053,0.442,-0.079,0.246,12.100,0.898,31.179
1747667644.39,0.174,-0.049,-0.083,0.403,-0.185,0.342,12.343,0.788,31.346
1747667644.39,0.174,-0.092,-0.106,0.354,-0.217,0.458,12.563,0.619,31.961
1747667644.41,0.159,-0.119,-0.110,0.310,-0.146,0.554,12.756,0.446,32.256
1747667644.42,0.104,-0.081,-0.114,0.279,-0.044,0.620,12.928,0.317,32.784
1747667644.43,-0.005,-0.038,-0.089,0.261,0.099,0.659,13.081,0.245,33.159
1747667644.43,-0.125,-0.017,-0.005,0.237,0.267,0.652,13.226,0.263,33.545
1747667644.44,-0.157,0.000,-0.001,0.196,0.373,0.619,13.350,0.363,33.917
1747667644.46,-0.086,-0.050,-0.036,0.175,0.380,0.651,13.464,0.479,34.292
1747667644.47,0.005,-0.081,-0.023,0.104,0.316,0.570,13.541,0.597,34.650
1747667644.47,0.062,-0.007,-0.071,0.096,0.206,0.542,13.605,0.670,34.974
1747667644.48,0.084,0.004,-0.143,0.024,0.076,0.553,13.644,0.673,35.295
1747667644.49,0.021,0.015,-0.177,-0.038,0.032,0.543,13.643,0.622,35.618
1747667644.50,-0.069,0.035,-0.182,-0.101,0.069,0.508,13.608,0.577,35.928
1747667644.51,-0.140,0.028,-0.179,-0.149,0.148,0.494,13.539,0.568,36.221
1747667644.52,-0.148,-0.001,-0.116,-0.181,0.277,0.458,13.448,0.624,36.503
1747667644.53,-0.077,-0.003,-0.065,-0.220,0.336,0.403,13.335,0.744,36.758
1747667644.54,-0.010,0.004,-0.050,-0.248,0.328,0.350,13.205,0.884,36.982
1747667644.55,0.023,0.012,-0.038,-0.269,0.246,0.230,13.059,1.009,37.149
1747667644.56,0.056,0.001,-0.072,-0.317,0.229,0.319,12.895,1.107,37.315
1747667644.57,0.026,0.030,-0.122,-0.339,0.190,0.254,12.711,1.187,37.488
1747667644.58,-0.028,0.051,-0.161,-0.375,0.142,0.142,12.510,1.256,37.605
1747667644.59,0.017,-0.052,-0.158,-0.472,0.136,0.301,12.270,1.308,37.744
1747667644.60,0.074,-0.135,-0.126,-0.550,0.146,0.360,11.983,1.343,37.944
1747667644.61,0.161,-0.147,-0.077,-0.621,0.153,0.445,11.653,1.380,38.186
1747667644.62,0.206,-0.124,-0.027,-0.675,0.108,0.502,11.289,1.399,38.472
1747667644.63,0.166,-0.063,-0.008,-0.651,0.122,0.497,10.916,1.403,38.956
1747667644.64,0.114,0.009,-0.021,-0.659,0.154,0.464,10.554,1.430,39.244
1747667644.65,0.044,0.026,-0.086,-0.696,0.180,0.458,10.171,1.476,39.880
1747667644.66,-0.034,-0.026,-0.125,-0.703,0.214,0.407,9.781,1.540,40.142
1747667644.67,-0.035,-0.094,-0.064,-0.786,0.249,0.411,9.362,1.634,40.737
1747667644.68,0.018,-0.146,-0.027,-0.814,0.206,0.382,8.910,1.728,40.982
1747667644.69,0.057,-0.134,-0.005,-0.838,0.165,0.289,8.446,1.802,41.537
1747667644.70,0.114,-0.060,0.008,-0.876,0.089,0.291,7.962,1.852,42.048
1747667644.71,0.110,0.015,-0.035,-0.865,-0.051,0.269,7.468,1.836,42.231
1747667644.72,0.023,0.091,-0.057,-0.824,-0.078,0.156,6.989,1.776,42.701
1747667644.73,-0.062,0.119,-0.058,-0.805,-0.028,0.073,6.526,1.738,42.775
1747667644.74,-0.156,0.067,-0.044,-0.755,-0.061,0.021,6.081,1.709,43.137
1747667644.75,-0.212,0.035,-0.041,-0.782,-0.017,-0.066,5.644,1.682,43.133
1747667644.76,-0.137,-0.008,-0.028,-0.755,0.010,-0.071,5.201,1.685,43.417
1747667644.77,-0.097,-0.044,0.013,-0.735,0.031,-0.184,4.776,1.700,43.359
1747667644.78,-0.058,-0.017,0.018,-0.764,0.043,-0.197,4.345,1.732,43.551
1747667644.79,-0.028,-0.005,-0.035,-0.766,-0.010,-0.134,3.905,1.747,43.470
1747667644.80,-0.054,0.015,-0.042,-0.778,-0.013,-0.084,3.462,1.741,43.707
1747667644.81,-0.063,0.025,-0.022,-0.763,0.004,-0.030,3.020,1.741,43.687
1747667644.82,-0.074,0.009,-0.041,-0.800,0.031,0.021,2.576,1.749,43.974
1747667644.83,-0.045,-0.019,-0.078,-0.838,0.078,0.097,2.108,1.778,44.020
1747667644.84,0.023,-0.042,-0.078,-0.852,0.126,0.172,1.628,1.834,44.398
1747667644.85,0.079,-0.029,-0.049,-0.894,0.135,0.247,1.134,1.908,44.533
1747667644.86,0.137,-0.004,-0.059,-0.959,0.067,0.323,0.611,1.964,44.992
1747667644.87,0.181,0.002,-0.039,-0.992,0.066,0.357,0.061,1.997,45.206
1747667644.88,0.190,-0.000,0.011,-1.023,0.076,0.354,-0.510,2.041,45.703
1747667644.89,0.115,-0.005,-0.029,-1.008,0.065,0.330,-1.082,2.083,45.919
1747667644.90,-0.009,-0.006,-0.106,-1.009,0.014,0.287,-1.650,2.111,46.381
1747667644.91,-0.119,-0.004,-0.163,-1.025,0.022,0.250,-2.224,2.123,46.555
1747667644.92,-0.158,-0.014,-0.107,-1.056,0.076,0.236,-2.813,2.158,46.984
1747667644.93,-0.133,-0.007,-0.062,-1.079,0.070,0.231,-3.416,2.210,47.141
1747667644.94,-0.106,0.025,-0.033,-1.107,0.098,0.189,-4.036,2.263,47.563
1747667644.95,-0.079,0.053,-0.008,-1.093,0.159,0.117,-4.662,2.345,47.676
1747667644.96,-0.098,0.066,-0.057,-1.081,0.146,0.035,-5.280,2.441,48.021
1747667644.97,-0.165,0.074,-0.106,-1.064,0.093,-0.039,-5.892,2.510,48.046
1747667644.98,-0.207,0.067,-0.088,-1.063,0.143,-0.113,-6.499,2.569,48.299
1747667644.99,-0.199,0.048,-0.072,-1.059,0.260,-0.159,-7.110,2.679,48.247
1747667645.00,-0.169,0.022,-0.079,-1.093,0.276,-0.160,-7.725,2.827,48.449
1747667645.01,-0.123,-0.001,-0.070,-1.132,0.301,-0.117,-8.366,2.984,48.401
1747667645.02,-0.017,-0.013,-0.043,-1.141,0.353,-0.102,-9.016,3.166,48.622
1747667645.03,0.062,0.009,-0.028,-1.152,0.332,-0.140,-9.673,3.360,48.592
1747667645.04,0.062,0.040,-0.023,-1.166,0.248,-0.174,-10.339,3.516,48.785
1747667645.05,0.028,0.051,-0.018,-1.170,0.204,-0.193,-11.011,3.631,48.720
1747667645.06,-0.018,0.042,-0.002,-1.159,0.201,-0.218,-11.685,3.731,48.882
1747667645.07,-0.071,0.025,-0.009,-1.160,0.266,-0.244,-12.352,3.842,48.791
1747667645.08,-0.079,-0.002,-0.033,-1.207,0.329,-0.241,-13.037,3.995,48.923
1747667645.09,-0.051,-0.040,-0.072,-1.204,0.330,-0.187,-13.734,4.165,48.846
1747667645.10,-0.002,-0.064,-0.046,-1.205,0.385,-0.128,-14.426,4.358,49.015
1747667645.11,0.047,-0.062,-0.009,-1.209,0.399,-0.117,-15.118,4.581,49.000
1747667645.12,0.039,-0.042,-0.014,-1.217,0.389,-0.143,-15.814,4.800,49.192
1747667645.13,0.017,-0.024,0.033,-1.211,0.412,-0.156,-16.513,5.021,49.164
1747667645.14,0.008,-0.018,0.058,-1.206,0.420,-0.144,-17.208,5.251,49.330
1747667645.15,0.020,-0.022,0.042,-1.198,0.407,-0.109,-17.900,5.486,49.320
1747667645.16,0.054,-0.032,0.014,-1.174,0.365,-0.070,-18.580,5.711,49.508
1747667645.17,0.086,-0.047,-0.001,-1.175,0.330,-0.031,-19.248,5.924,49.550
1747667645.18,0.113,-0.069,-0.026,-1.184,0.273,-0.001,-19.919,6.119,49.789
1747667645.19,0.109,-0.096,0.006,-1.164,0.236,0.027,-20.586,6.292,49.875
1747667645.20,0.098,-0.114,0.063,-1.166,0.245,0.062,-21.242,6.467,50.131
1747667645.21,0.095,-0.116,0.057,-1.196,0.220,0.065,-21.909,6.647,50.254
1747667645.22,0.046,-0.098,0.066,-1.165,0.194,0.036,-22.577,6.808,50.515
1747667645.23,-0.014,-0.071,0.082,-1.145,0.236,0.004,-23.228,6.967,50.613
1747667645.24,-0.051,-0.055,0.029,-1.147,0.266,0.004,-23.877,7.147,50.822
1747667645.25,-0.066,-0.068,-0.052,-1.129,0.272,0.052,-24.520,7.345,50.928
1747667645.26,-0.039,-0.090,-0.028,-1.139,0.281,0.124,-25.156,7.563,51.187
1747667645.27,0.015,-0.094,0.019,-1.127,0.316,0.141,-25.787,7.812,51.368
1747667645.28,0.023,-0.079,0.038,-1.107,0.316,0.092,-26.410,8.069,51.604
1747667645.29,-0.014,-0.057,0.022,-1.087,0.269,0.052,-27.024,8.304,51.748
1747667645.30,-0.057,-0.042,0.001,-1.092,0.196,0.022,-27.636,8.492,51.873
1747667645.31,-0.086,-0.032,-0.001,-1.107,0.218,0.016,-28.255,8.662,51.991
1747667645.32,-0.075,-0.022,-0.001,-1.120,0.268,0.003,-28.882,8.859,52.109
1747667645.33,-0.078,0.006,-0.033,-1.145,0.285,-0.021,-29.522,9.072,52.218
1747667645.34,-0.091,0.044,-0.025,-1.147,0.260,-0.034,-30.171,9.279,52.320
1747667645.35,-0.107,0.080,0.005,-1.147,0.187,-0.038,-30.821,9.458,52.420
1747667645.36,-0.102,0.108,-0.009,-1.145,0.146,-0.033,-31.469,9.607,52.524
1747667645.37,-0.073,0.120,-0.018,-1.177,0.125,-0.060,-32.129,9.736,52.626
1747667645.38,-0.046,0.112,0.005,-1.058,0.150,-0.121,-32.773,9.852,52.696
1747667645.39,-0.041,0.095,0.007,-0.986,0.161,-0.164,-33.356,9.953,52.717
1747667645.40,-0.048,0.070,-0.012,-1.015,0.138,-0.168,-33.935,10.043,52.722
1747667645.41,-0.051,0.025,-0.059,-1.014,0.102,-0.167,-34.525,10.115,52.731
1747667645.42,-0.056,-0.031,-0.035,-1.008,0.103,-0.153,-35.109,10.179,52.745
1747667645.43,-0.039,-0.073,0.019,-1.017,0.142,-0.150,-35.694,10.262,52.768
1747667645.44,-0.029,-0.085,0.010,-1.030,0.170,-0.180,-36.285,10.360,52.784
1747667645.45,-0.034,-0.079,-0.025,-1.051,0.205,-0.205,-36.890,10.465,52.781
1747667645.46,-0.041,-0.069,-0.022,-1.080,0.206,-0.216,-37.508,10.578,52.771
1747667645.47,-0.056,-0.058,-0.014,-1.125,0.197,-0.185,-38.151,10.692,52.774
1747667645.48,-0.050,-0.049,-0.024,-1.093,0.199,-0.125,-38.790,10.832,52.813
1747667645.49,-0.036,-0.040,-0.052,-1.077,0.144,-0.067,-39.408,10.981,52.897
1747667645.50,-0.029,-0.034,-0.018,-1.064,0.201,-0.036,-40.013,11.149,53.013
1747667645.51,0.017,-0.026,0.025,-1.054,0.252,-0.044,-40.611,11.365,53.141
1747667645.52,0.020,-0.010,-0.020,-1.038,0.210,-0.077,-41.204,11.573,53.253
1747667645.53,0.002,-0.001,-0.038,-1.016,0.153,-0.119,-41.790,11.732,53.336
1747667645.54,-0.011,0.001,-0.010,-0.993,0.089,-0.137,-42.366,11.842,53.397
1747667645.55,-0.020,0.000,-0.014,-0.996,0.045,-0.147,-42.937,11.915,53.449
1747667645.56,-0.031,-0.006,-0.005,-1.026,0.012,-0.163,-43.522,11.961,53.494
1747667645.57,-0.040,-0.020,0.008,-1.037,0.030,-0.168,-44.117,11.998,53.533
1747667645.58,-0.026,-0.032,-0.016,-1.064,0.028,-0.149,-44.723,12.051,53.583
1747667645.59,-0.028,-0.036,-0.038,-1.068,0.004,-0.140,-45.337,12.108,53.651
1747667645.60,-0.033,-0.031,-0.031,-1.042,-0.027,-0.139,-45.943,12.150,53.719
1747667645.61,-0.030,-0.025,-0.036,-1.027,-0.039,-0.131,-46.537,12.180,53.789
1747667645.62,-0.027,-0.031,-0.063,-1.017,-0.033,-0.124,-47.123,12.218,53.865
1747667645.63,-0.039,-0.040,-0.081,-1.014,-0.050,-0.131,-47.704,12.249,53.941
1747667645.64,-0.044,-0.051,-0.066,-1.037,-0.011,-0.148,-48.292,12.281,54.010
1747667645.65,-0.036,-0.062,-0.031,-1.033,0.002,-0.158,-48.890,12.328,54.073
1747667645.66,-0.044,-0.056,-0.030,-1.021,-0.053,-0.161,-49.482,12.355,54.128
1747667645.67,-0.039,-0.041,-0.023,-1.025,-0.058,-0.150,-50.072,12.366,54.188
1747667645.68,-0.012,-0.026,-0.016,-1.030,-0.043,-0.145,-50.663,12.391,54.256
1747667645.69,-0.002,-0.007,-0.023,-1.059,-0.050,-0.152,-51.263,12.420,54.329
1747667645.70,-0.004,0.003,-0.009,-1.067,-0.034,-0.156,-51.877,12.452,54.401
1747667645.71,-0.005,-0.004,0.013,-1.039,-0.023,-0.158,-52.483,12.492,54.471
1747667645.72,-0.018,-0.009,0.002,-1.033,-0.054,-0.144,-53.079,12.527,54.544
1747667645.73,-0.019,-0.011,-0.032,-1.038,-0.048,-0.125,-53.672,12.569,54.634
1747667645.74,-0.006,-0.011,-0.039,-1.036,-0.027,-0.130,-54.265,12.629,54.735
1747667645.75,-0.010,-0.014,-0.035,-1.015,-0.011,-0.144,-54.855,12.691,54.826
1747667645.76,-0.014,-0.011,-0.032,-1.009,0.014,-0.157,-55.438,12.755,54.900
1747667645.77,-0.020,0.002,-0.008,-1.024,-0.005,-0.178,-56.025,12.810,54.964
1747667645.78,-0.037,0.017,0.006,-1.037,-0.003,-0.185,-56.622,12.849,55.016
1747667645.79,-0.040,0.022,0.042,-1.054,0.040,-0.183,-57.227,12.903,55.070
1747667645.80,-0.033,0.023,0.089,-1.055,0.102,-0.179,-57.839,12.996,55.134
1747667645.81,-0.026,0.020,0.091,-1.007,0.127,-0.176,-58.436,13.118,54.970
1747667645.82,-0.020,0.020,0.034,-0.989,0.099,-0.143,-59.010,13.250,55.048
1747667645.83,-0.008,0.013,0.001,-0.989,0.079,-0.118,-59.577,13.399,54.938
1747667645.84,-0.010,0.005,-0.007,-0.971,0.062,-0.122,-60.136,13.552,55.066
1747667645.85,-0.016,-0.002,-0.027,-0.964,0.067,-0.143,-60.691,13.682,54.946
1747667645.86,-0.008,-0.010,0.010,-1.014,0.133,-0.155,-61.258,13.831,55.053
1747667645.87,-0.017,-0.010,0.059,-1.055,0.161,-0.192,-61.858,14.003,54.912
1747667645.88,-0.047,-0.011,0.021,-1.022,0.129,-0.218,-62.462,14.144,54.976
1747667645.89,-0.046,-0.016,-0.013,-0.999,0.106,-0.200,-63.050,14.253,54.789
1747667645.90,-0.008,-0.019,0.022,-1.017,0.152,-0.175,-63.634,14.399,54.874
1747667645.91,0.020,-0.007,0.084,-1.006,0.234,-0.152,-64.219,14.624,54.749
1747667645.92,0.024,0.026,0.078,-0.960,0.224,-0.148,-64.784,14.886,54.892
1747667645.93,0.010,0.046,0.042,-0.957,0.196,-0.127,-65.332,15.146,54.782
1747667645.94,-0.001,0.056,0.035,-0.955,0.192,-0.127,-65.878,15.422,54.963
1747667645.95,-0.008,0.056,0.035,-0.935,0.195,-0.142,-66.419,15.692,54.862
1747667645.96,-0.010,0.052,0.029,-0.901,0.231,-0.166,-66.949,15.947,55.010
1747667645.97,-0.014,0.041,0.059,-0.870,0.275,-0.195,-67.462,16.191,54.842
1747667645.98,-0.025,0.022,0.077,-0.860,0.312,-0.216,-67.969,16.418,54.907
1747667645.99,-0.019,-0.004,0.069,-0.874,0.398,-0.221,-68.477,16.664,54.664
1747667646.00,-0.023,-0.026,0.101,-0.899,0.430,-0.214,-68.998,16.971,54.738
1747667646.01,-0.052,-0.037,0.101,-0.938,0.345,-0.173,-69.532,17.321,54.578
1747667646.02,-0.049,-0.032,0.046,-0.931,0.289,-0.125,-70.068,17.717,54.812
1747667646.03,-0.017,-0.019,0.050,-0.897,0.288,-0.131,-70.587,18.140,54.788
1747667646.04,0.022,-0.002,0.049,-0.894,0.291,-0.172,-71.098,18.534,55.029
1747667646.05,0.056,0.016,0.029,-0.891,0.284,-0.231,-71.620,18.869,54.886
1747667646.06,0.073,0.039,0.026,-0.819,0.248,-0.239,-72.127,19.114,54.985
1747667646.07,0.044,0.053,0.030,-0.750,0.211,-0.239,-72.595,19.303,54.703
1747667646.08,-0.004,0.054,-0.004,-0.718,0.166,-0.236,-73.034,19.441,54.739
1747667646.09,-0.037,0.032,-0.031,-0.747,0.251,-0.245,-73.473,19.589,54.437
1747667646.10,-0.043,0.003,0.009,-0.766,0.377,-0.265,-73.930,19.800,54.469
1747667646.11,-0.047,-0.030,0.035,-0.784,0.487,-0.290,-74.397,20.047,54.123
1747667646.12,-0.043,-0.043,0.047,-0.840,0.487,-0.249,-74.890,20.390,54.189
1747667646.13,-0.027,-0.049,0.023,-0.776,0.489,-0.199,-75.368,20.830,53.998
1747667646.14,0.001,-0.059,0.026,-0.794,0.452,-0.185,-75.824,21.334,54.238
1747667646.15,0.010,-0.039,0.031,-0.769,0.387,-0.168,-76.278,21.861,54.173
1747667646.16,0.016,-0.011,-0.016,-0.740,0.359,-0.168,-76.712,22.378,54.485
1747667646.17,0.045,0.015,-0.014,-0.716,0.364,-0.181,-77.135,22.884,54.408
1747667646.18,0.052,0.037,0.000,-0.668,0.376,-0.179,-77.541,23.359,54.679
1747667646.19,0.028,0.050,-0.020,-0.608,0.401,-0.187,-77.914,23.807,54.526
1747667646.20,-0.031,0.041,-0.014,-0.624,0.345,-0.224,-78.285,24.201,54.705
1747667646.21,-0.070,0.012,-0.017,-0.587,0.372,-0.267,-78.659,24.460,54.374
1747667646.22,-0.021,-0.027,0.031,-0.563,0.692,-0.306,-79.024,24.700,54.274
1747667646.23,-0.005,-0.060,0.007,-0.576,0.444,-0.227,-79.385,25.022,53.853
1747667646.24,-0.044,-0.056,-0.080,-0.524,0.516,-0.210,-79.725,25.413,53.973
1747667646.25,0.016,-0.019,-0.008,-0.483,0.561,-0.207,-80.034,25.815,53.667
1747667646.26,0.027,0.021,-0.009,-0.456,0.571,-0.199,-80.327,26.207,53.738
1747667646.27,0.060,0.011,0.004,-0.413,0.586,-0.180,-80.597,26.620,53.404
1747667646.28,0.075,-0.025,0.021,-0.372,0.531,-0.148,-80.841,27.036,53.499
1747667646.29,0.066,-0.056,0.001,-0.337,0.409,-0.104,-81.053,27.493,53.274
1747667646.30,0.036,-0.074,-0.024,-0.279,0.308,-0.099,-81.236,27.901,53.484
1747667646.31,0.011,-0.051,-0.055,-0.249,0.261,-0.098,-81.393,28.201,53.213
1747667646.32,-0.007,0.005,-0.063,-0.226,0.283,-0.153,-81.547,28.368,53.229
1747667646.33,-0.053,0.030,-0.046,-0.180,0.341,-0.204,-81.698,28.312,52.576
1747667646.34,-0.080,-0.004,-0.051,-0.154,0.430,-0.183,-81.834,28.139,52.186
1747667646.35,-0.051,-0.052,-0.035,-0.168,0.589,-0.150,-81.959,28.146,51.480
1747667646.36,-0.031,-0.045,-0.013,-0.146,0.613,-0.152,-82.079,28.260,51.244
1747667646.37,-0.012,-0.017,-0.034,-0.102,0.603,-0.114,-82.180,28.377,50.591
1747667646.38,0.058,-0.002,-0.024,0.017,0.509,-0.097,-82.229,28.380,50.275
1747667646.39,0.089,0.013,-0.002,-0.003,0.425,-0.051,-82.241,28.343,49.557
1747667646.40,0.118,-0.012,0.057,-0.053,0.259,-0.018,-82.266,28.470,49.489
1747667646.41,0.091,-0.044,0.053,-0.067,0.178,0.012,-82.296,28.703,49.207
1747667646.42,0.037,-0.050,0.029,-0.130,0.093,-0.022,-82.343,28.972,49.400
1747667646.43,-0.071,-0.059,0.008,-0.259,-0.011,-0.202,-82.478,28.933,48.971
1747667646.44,-0.084,-0.086,0.025,-0.261,0.106,-0.151,-82.661,28.815,48.823
1747667646.45,0.033,0.016,-0.011,-0.255,0.107,-0.087,-82.821,28.991,48.554
1747667646.46,0.049,0.088,-0.024,-0.227,0.008,-0.103,-82.967,29.218,48.750
1747667646.47,0.031,0.100,-0.035,-0.156,-0.016,-0.191,-83.105,29.057,48.215
1747667646.48,0.035,0.072,-0.043,-0.039,0.086,-0.222,-83.212,28.419,47.179
1747667646.49,0.073,0.037,-0.035,0.020,0.204,-0.190,-83.269,27.617,46.284
1747667646.50,0.079,0.004,-0.016,-0.017,0.153,-0.113,-83.308,27.056,45.227
1747667646.51,0.061,-0.045,-0.002,-0.059,0.074,-0.030,-83.347,26.894,44.998
1747667646.52,0.054,-0.068,0.005,-0.044,-0.009,0.068,-83.370,27.113,44.834
1747667646.53,0.065,-0.059,-0.001,-0.033,-0.082,0.123,-83.362,27.604,45.354
1747667646.54,0.023,-0.045,-0.014,-0.077,-0.136,0.138,-83.350,28.235,45.688
1747667646.55,0.005,-0.008,-0.025,-0.132,-0.111,0.176,-83.358,29.078,46.612
1747667646.56,0.024,0.039,0.013,-0.195,-0.088,0.135,-83.388,30.157,47.388
1747667646.57,-0.004,0.047,0.027,-0.226,-0.070,-0.015,-83.473,30.921,48.200
1747667646.58,0.007,-0.023,-0.004,-0.210,-0.107,-0.071,-83.593,31.248,48.240
1747667646.59,0.027,-0.031,-0.032,-0.150,-0.171,-0.050,-83.696,31.422,48.494
1747667646.60,0.009,0.019,-0.058,-0.084,-0.185,-0.041,-83.762,31.475,48.322
1747667646.61,-0.027,0.041,-0.065,-0.052,-0.121,-0.045,-83.802,31.402,48.339
1747667646.62,-0.053,0.014,-0.043,-0.072,-0.003,-0.065,-83.844,31.290,47.927
1747667646.63,-0.062,-0.030,-0.006,-0.106,0.094,-0.048,-83.902,31.231,47.844
1747667646.64,-0.032,-0.025,-0.007,-0.117,-0.004,-0.016,-83.966,31.539,47.801
1747667646.65,-0.018,-0.023,-0.037,-0.063,-0.099,-0.009,-84.015,31.701,47.991
1747667646.66,-0.002,-0.008,-0.059,-0.049,-0.108,0.080,-84.028,31.935,47.953
1747667646.67,0.041,0.009,-0.049,-0.097,-0.109,0.128,-84.019,32.591,48.676
1747667646.68,0.022,-0.012,-0.021,-0.138,-0.140,0.128,-84.025,33.415,49.238
1747667646.69,-0.006,-0.022,-0.001,-0.130,-0.189,0.115,-84.040,34.133,50.056
1747667646.70,-0.048,-0.008,0.015,-0.136,-0.277,0.045,-84.073,34.608,50.347
1747667646.71,-0.101,-0.010,0.035,-0.145,-0.320,-0.039,-84.143,34.787,50.704
1747667646.72,-0.098,-0.002,0.041,-0.116,-0.289,-0.089,-84.226,34.681,50.468
1747667646.73,-0.065,0.016,0.024,-0.078,-0.216,-0.132,-84.303,34.279,50.211
1747667646.74,-0.064,0.009,-0.012,-0.052,-0.085,-0.145,-84.373,33.664,49.373
1747667646.75,-0.033,-0.006,-0.040,-0.010,0.085,-0.076,-84.416,33.231,48.937
1747667646.76,0.015,0.016,-0.057,0.043,0.150,0.003,-84.412,33.093,48.432
1747667646.77,0.036,0.022,-0.076,0.044,0.148,0.009,-84.385,33.081,48.334
1747667646.78,0.034,0.028,-0.066,0.011,0.126,0.001,-84.373,33.062,47.928
1747667646.79,0.011,0.018,-0.051,-0.023,0.061,-0.024,-84.388,33.006,47.819
1747667646.80,-0.016,-0.020,-0.019,-0.056,0.046,-0.050,-84.430,32.912,47.397
1747667646.81,-0.006,-0.021,0.006,-0.043,0.016,-0.059,-84.478,32.785,47.251
1747667646.82,0.000,-0.011,-0.006,0.012,0.066,-0.072,-84.509,32.470,46.604
1747667646.83,-0.004,0.000,-0.018,0.039,0.064,-0.057,-84.514,32.024,46.120
1747667646.84,0.028,-0.014,-0.034,0.055,0.049,-0.032,-84.497,31.679,45.447
1747667646.85,0.071,-0.012,-0.045,0.091,0.113,-0.036,-84.459,31.333,45.055
1747667646.86,0.072,-0.001,-0.022,0.082,0.159,-0.049,-84.423,30.913,44.267
1747667646.87,0.054,0.019,0.008,0.070,0.146,-0.019,-84.392,30.582,43.843
1747667646.88,0.029,0.039,0.003,0.100,0.063,0.021,-84.350,30.387,43.304
1747667646.89,-0.000,0.005,-0.018,0.134,0.030,0.010,-84.287,30.142,43.034
1747667646.90,-0.037,-0.000,-0.014,0.079,0.025,-0.014,-84.232,29.842,42.434
1747667646.91,-0.051,-0.004,0.022,0.015,0.022,-0.047,-84.217,29.560,42.138
1747667646.92,-0.047,-0.014,0.035,-0.016,0.030,-0.054,-84.226,29.332,41.624
1747667646.93,-0.031,0.010,0.023,-0.024,0.020,-0.031,-84.238,29.253,41.530
1747667646.94,-0.021,0.003,0.020,-0.026,0.013,-0.010,-84.250,29.326,41.325
1747667646.95,-0.005,-0.011,0.036,-0.004,0.022,0.018,-84.255,29.484,41.470
1747667646.96,0.019,0.006,0.042,0.019,-0.008,-0.007,-84.248,29.559,41.266
1747667646.97,0.005,0.012,0.038,0.051,-0.019,-0.079,-84.241,29.232,40.946
1747667646.98,-0.029,0.019,0.019,0.079,-0.066,-0.140,-84.240,28.407,39.873
1747667646.99,-0.061,-0.000,0.008,0.101,-0.078,-0.128,-84.236,27.381,38.887
1747667647.00,-0.072,0.004,0.023,0.089,-0.026,-0.061,-84.217,26.585,37.864
1747667647.01,-0.081,0.005,0.017,0.072,0.072,-0.012,-84.189,26.225,37.491
1747667647.02,-0.048,-0.022,0.011,0.078,0.141,0.006,-84.156,26.090,37.045
1747667647.03,0.005,-0.044,-0.000,0.064,0.184,-0.006,-84.125,26.054,36.913
1747667647.04,0.021,-0.039,0.000,0.037,0.185,-0.031,-84.112,26.024,36.526
1747667647.05,0.021,-0.019,-0.006,0.036,0.125,-0.045,-84.110,25.900,36.310
1747667647.06,0.010,-0.014,-0.032,0.035,0.078,-0.047,-84.111,25.600,35.701
1747667647.07,-0.008,0.007,-0.015,0.044,0.042,-0.022,-84.107,25.285,35.349
1747667647.08,-0.010,0.017,-0.009,0.086,0.021,-0.027,-84.089,24.922,34.738
1747667647.09,-0.002,-0.024,-0.012,0.077,-0.016,-0.019,-84.061,24.485,34.297
1747667647.10,-0.002,-0.042,0.006,0.048,-0.033,-0.002,-84.037,24.206,33.813
1747667647.11,-0.030,-0.008,0.012,0.023,-0.002,-0.011,-84.019,24.103,33.719
1747667647.12,-0.034,0.012,0.003,0.047,-0.003,-0.009,-84.002,24.034,33.425
1747667647.13,-0.006,0.005,-0.024,0.058,0.018,-0.033,-83.974,23.865,33.250
1747667647.14,0.008,0.003,-0.028,0.044,0.040,-0.041,-83.949,23.588,32.746
1747667647.15,0.019,0.026,-0.040,0.046,0.060,-0.080,-83.937,23.225,32.353
1747667647.16,0.022,0.051,-0.045,0.064,0.090,-0.153,-83.934,22.539,31.406
1747667647.17,0.022,0.038,-0.039,0.085,0.100,-0.179,-83.927,21.595,30.399
1747667647.18,0.017,0.023,-0.032,0.087,0.082,-0.198,-83.921,20.536,29.065
1747667647.19,-0.002,-0.030,-0.026,0.091,0.047,-0.147,-83.915,19.489,27.976
1747667647.20,0.008,-0.022,-0.030,0.103,0.037,-0.142,-83.895,18.564,26.811
1747667647.21,-0.015,0.014,-0.019,0.078,0.037,-0.146,-83.865,17.674,25.899
1747667647.22,-0.007,0.005,0.002,0.059,0.133,-0.085,-83.839,17.047,25.006
1747667647.23,0.026,0.032,0.015,0.063,0.229,-0.110,-83.809,16.642,24.494
1747667647.24,0.002,0.020,0.005,0.070,0.275,-0.117,-83.778,16.155,23.665
1747667647.25,0.021,-0.031,-0.015,0.036,0.206,-0.062,-83.751,15.812,23.177
1747667647.26,0.030,-0.038,-0.022,0.002,0.063,-0.037,-83.739,15.685,22.782
1747667647.27,0.004,-0.026,-0.019,0.020,-0.070,-0.042,-83.734,15.462,22.561
1747667647.28,0.018,-0.012,-0.029,0.076,-0.129,-0.024,-83.705,15.187,22.162
1747667647.29,0.039,0.017,-0.032,0.087,-0.117,-0.032,-83.659,14.835,21.880
1747667647.30,0.052,0.005,-0.013,0.088,-0.088,0.012,-83.617,14.588,21.510
1747667647.31,0.075,-0.009,-0.028,0.107,0.003,0.091,-83.558,14.797,21.747
1747667647.32,0.047,0.022,-0.017,0.060,0.087,0.124,-83.493,15.397,22.116
1747667647.33,-0.010,0.005,-0.015,0.098,0.052,0.044,-83.433,15.744,22.429
1747667647.34,-0.049,0.014,-0.026,0.087,0.052,0.058,-83.364,15.937,22.420
1747667647.35,-0.043,0.041,0.015,0.044,0.038,0.042,-83.318,16.102,22.560
1747667647.36,0.021,-0.001,0.024,0.055,-0.002,0.054,-83.281,16.284,22.558
1747667647.37,0.082,-0.033,-0.005,0.092,-0.056,0.083,-83.224,16.505,22.624
1747667647.38,0.108,-0.063,-0.021,0.089,-0.090,0.115,-83.153,16.851,23.016
1747667647.39,0.100,-0.035,-0.005,0.069,-0.117,0.063,-83.091,17.134,23.198
1747667647.40,0.051,-0.038,0.009,0.056,-0.190,0.031,-83.049,17.192,23.342
1747667647.41,0.031,-0.067,-0.020,0.056,-0.246,0.016,-83.014,17.085,23.205
1747667647.42,-0.028,-0.033,-0.032,0.053,-0.305,0.017,-82.981,16.879,23.156
1747667647.43,-0.058,-0.020,-0.026,0.073,-0.331,0.041,-82.946,16.719,23.023
1747667647.44,-0.052,-0.006,-0.015,0.087,-0.366,0.044,-82.895,16.623,23.128
1747667647.45,-0.046,-0.005,0.003,0.075,-0.395,0.098,-82.839,16.630,23.205
1747667647.46,0.008,-0.035,0.005,0.088,-0.322,0.186,-82.766,16.995,23.784
1747667647.47,0.018,-0.008,0.021,0.091,-0.236,0.213,-82.680,17.628,24.442
1747667647.48,-0.008,-0.026,0.017,0.078,-0.233,0.237,-82.594,18.353,25.307
1747667647.49,-0.025,-0.028,-0.007,0.082,-0.258,0.233,-82.505,19.091,26.045
1747667647.50,-0.033,0.030,-0.030,0.062,-0.279,0.128,-82.429,19.561,26.675
1747667647.51,-0.025,0.076,-0.010,0.037,-0.279,0.036,-82.390,19.644,26.796
1747667647.52,0.001,0.018,-0.008,0.074,-0.254,0.035,-82.356,19.537,26.841
1747667647.53,0.029,0.068,-0.033,0.105,-0.190,0.039,-82.298,19.439,26.761
1747667647.54,0.007,0.034,-0.003,0.106,-0.107,0.006,-82.237,19.296,26.700
1747667647.55,-0.031,0.005,0.009,0.142,-0.071,-0.021,-82.172,19.047,26.378
1747667647.55,-0.062,0.030,-0.008,0.160,-0.055,-0.042,-82.096,18.683,26.046
1747667647.57,-0.078,0.016,-0.009,0.202,-0.051,-0.020,-82.006,18.286,25.568
1747667647.58,-0.070,-0.025,-0.014,0.235,-0.054,0.009,-81.885,17.955,25.258
1747667647.58,-0.040,-0.081,0.014,0.162,-0.005,0.027,-81.768,17.789,25.016
1747667647.60,-0.020,0.026,0.066,0.159,0.018,0.045,-81.683,17.716,24.926
1747667647.60,-0.028,0.062,0.007,0.127,0.021,0.022,-81.592,17.668,24.781
1747667647.61,-0.070,-0.079,0.046,0.047,0.067,0.118,-81.537,17.849,24.934
1747667647.62,0.038,-0.070,0.034,0.033,0.077,0.110,-81.498,18.277,25.241
1747667647.63,0.005,0.050,0.026,0.079,0.047,0.069,-81.457,18.536,25.456
1747667647.64,-0.009,0.057,0.005,0.171,-0.104,0.112,-81.375,18.638,25.490
1747667647.65,0.034,0.002,-0.030,0.211,-0.218,0.186,-81.242,18.797,25.748
1747667647.66,0.076,-0.032,-0.002,0.170,-0.319,0.227,-81.100,19.121,26.148
1747667647.67,0.047,-0.035,0.010,0.144,-0.455,0.272,-80.977,19.569,26.825
1747667647.68,0.035,-0.039,-0.011,0.151,-0.534,0.341,-80.842,20.125,27.612
1747667647.69,0.078,-0.069,0.001,0.149,-0.617,0.380,-80.694,20.792,28.620
1747667647.70,0.132,-0.090,-0.005,0.189,-0.718,0.368,-80.528,21.422,29.582
1747667647.71,0.193,-0.101,-0.037,0.215,-1.090,0.100,-80.358,21.571,30.219
1747667647.72,0.079,-0.262,-0.046,0.131,-1.600,-0.379,-80.308,19.992,29.376
1747667647.73,0.275,-0.360,-0.024,0.112,-1.451,-0.171,-80.297,18.037,28.274
1747667647.74,0.367,-0.093,0.040,0.051,-0.940,0.243,-80.244,17.327,28.246
1747667647.75,0.022,0.155,0.190,0.185,-0.793,0.366,-80.131,17.782,29.190
1747667647.76,-0.314,0.367,-0.013,0.351,-0.890,0.211,-79.930,17.950,29.833
1747667647.77,-0.331,0.403,-0.041,0.416,-0.783,0.097,-79.693,17.514,29.883
1747667647.78,-0.157,0.238,0.049,0.404,-0.639,0.133,-79.449,17.059,29.844
1747667647.79,-0.043,0.023,0.060,0.405,-0.529,0.192,-79.202,16.845,29.964
1747667647.80,-0.003,-0.089,0.026,0.406,-0.467,0.243,-78.943,16.833,30.240
1747667647.81,-0.012,-0.108,-0.006,0.399,-0.407,0.260,-78.682,16.939,30.602
1747667647.82,-0.040,-0.086,-0.004,0.403,-0.389,0.260,-78.419,17.087,30.983
1747667647.83,-0.065,-0.048,0.008,0.427,-0.366,0.242,-78.152,17.196,31.318
1747667647.84,-0.070,-0.020,0.033,0.481,-0.325,0.219,-77.865,17.229,31.552
1747667647.85,-0.050,-0.001,0.044,0.552,-0.356,0.203,-77.549,17.159,31.678
1747667647.86,-0.027,0.009,0.031,0.580,-0.440,0.227,-77.202,17.015,31.764
1747667647.87,0.003,0.005,0.037,0.570,-0.446,0.262,-76.848,16.924,31.935
1747667647.88,0.012,0.004,0.051,0.594,-0.350,0.274,-76.486,16.910,32.155
1747667647.89,-0.007,0.009,0.065,0.581,-0.290,0.286,-76.116,16.953,32.384
1747667647.90,-0.053,0.037,0.052,0.561,-0.351,0.272,-75.759,17.008,32.707
1747667647.91,-0.109,0.077,0.018,0.633,-0.369,0.227,-75.394,16.941,32.857
1747667647.92,-0.100,0.056,0.038,0.708,-0.258,0.211,-74.991,16.784,32.975
1747667647.93,-0.047,-0.001,0.073,0.736,-0.177,0.213,-74.559,16.654,32.967
1747667647.94,-0.032,-0.032,0.064,0.788,-0.172,0.207,-74.110,16.526,33.035
1747667647.95,-0.036,-0.034,0.033,0.862,-0.182,0.215,-73.622,16.360,32.967
1747667647.96,-0.023,-0.029,0.020,0.829,-0.189,0.226,-73.120,16.197,33.019
1747667647.97,0.001,-0.027,0.030,0.757,-0.131,0.263,-72.648,16.129,33.047
1747667647.98,0.024,-0.046,0.025,0.727,-0.024,0.308,-72.196,16.209,33.278
1747667647.99,0.031,-0.047,0.013,0.677,-0.032,0.321,-71.760,16.382,33.471
1747667648.00,0.010,-0.014,0.016,0.657,-0.151,0.302,-71.347,16.520,33.795
1747667648.01,0.000,0.050,0.041,0.682,-0.276,0.273,-70.936,16.539,33.947
1747667648.02,0.017,0.101,0.059,0.737,-0.300,0.232,-70.507,16.439,34.164
1747667648.03,0.023,0.096,0.067,0.819,-0.273,0.184,-70.048,16.243,34.129
1747667648.04,0.002,0.056,0.048,0.873,-0.343,0.148,-69.554,15.952,34.146
1747667648.05,-0.045,0.009,-0.011,0.895,-0.403,0.124,-69.048,15.565,33.965
1747667648.06,-0.067,-0.047,-0.009,0.914,-0.282,0.152,-68.528,15.200,33.936
1747667648.07,-0.060,-0.103,0.031,0.873,-0.099,0.204,-68.007,15.007,33.842
1747667648.08,-0.062,-0.131,0.002,0.793,-0.018,0.247,-67.512,14.978,33.911
1747667648.09,-0.069,-0.114,-0.030,0.699,0.054,0.290,-67.062,15.080,34.009
1747667648.10,-0.046,-0.066,-0.002,0.649,-0.000,0.312,-66.646,15.255,34.175
1747667648.11,-0.005,0.020,-0.002,0.662,-0.189,0.329,-66.240,15.385,34.374
1747667648.12,0.041,0.127,0.004,0.746,-0.287,0.286,-65.806,15.390,34.535
1747667648.13,0.065,0.175,0.053,0.877,-0.276,0.201,-65.325,15.256,34.566
1747667648.14,0.040,0.133,0.071,1.039,-0.338,0.137,-64.771,14.969,34.440
1747667648.15,-0.035,0.053,-0.029,1.095,-0.354,0.146,-64.156,14.593,34.251
1747667648.16,-0.088,-0.039,-0.072,1.001,-0.189,0.183,-63.550,14.315,34.117
1747667648.17,-0.157,-0.127,-0.028,0.919,0.023,0.170,-62.997,14.198,34.040
1747667648.18,-0.232,-0.185,-0.016,0.857,0.240,0.154,-62.482,14.204,33.961
1747667648.19,-0.221,-0.201,0.010,0.783,0.335,0.193,-62.005,14.337,33.917
1747667648.20,-0.153,-0.172,-0.005,0.743,0.275,0.277,-61.552,14.551,33.959
1747667648.21,-0.032,-0.094,-0.019,0.737,0.172,0.346,-61.098,14.802,34.099
1747667648.22,0.097,0.028,-0.005,0.782,0.040,0.338,-60.629,15.006,34.264
1747667648.23,0.180,0.151,0.006,0.898,-0.044,0.279,-60.123,15.085,34.360
1747667648.24,0.210,0.188,0.036,1.030,-0.105,0.209,-59.553,15.027,34.341
1747667648.25,0.142,0.139,0.016,1.018,-0.196,0.165,-58.955,14.854,34.240
1747667648.26,0.030,0.030,0.003,0.914,-0.249,0.185,-58.397,14.648,34.150
1747667648.27,-0.039,-0.090,-0.013,0.856,-0.267,0.223,-57.879,14.477,34.123
1747667648.28,-0.055,-0.148,-0.040,0.777,-0.242,0.259,-57.392,14.358,34.156
1747667648.29,-0.022,-0.143,0.004,0.728,-0.196,0.270,-56.942,14.299,34.233
1747667648.30,0.011,-0.091,0.026,0.777,-0.245,0.269,-56.488,14.244,34.314
1747667648.31,0.021,-0.013,-0.010,0.812,-0.318,0.268,-56.009,14.140,34.381
1747667648.32,0.020,0.057,-0.012,0.865,-0.356,0.241,-55.512,13.982,34.428
1747667648.33,0.025,0.102,-0.002,0.960,-0.230,0.178,-54.977,13.799,34.416
1747667648.34,0.011,0.102,0.059,1.058,-0.109,0.105,-54.397,13.622,34.313
1747667648.35,-0.074,0.072,0.041,1.061,-0.055,0.088,-53.791,13.449,34.155
1747667648.36,-0.145,-0.002,0.011,0.941,0.021,0.156,-53.218,13.346,34.042
1747667648.37,-0.140,-0.087,-0.015,0.850,0.121,0.241,-52.695,13.377,34.029
1747667648.38,-0.066,-0.132,-0.028,0.801,0.155,0.289,-52.203,13.510,34.092
1747667648.39,0.030,-0.121,0.008,0.814,0.066,0.317,-51.717,13.655,34.189
1747667648.40,0.117,-0.071,0.013,0.841,-0.111,0.339,-51.211,13.731,34.302
1747667648.41,0.155,-0.002,0.016,0.866,-0.238,0.320,-50.694,13.712,34.410
1747667648.42,0.137,0.062,0.041,0.933,-0.302,0.273,-50.155,13.610,34.480
1747667648.43,0.091,0.091,0.039,1.005,-0.315,0.217,-49.583,13.437,34.489
1747667648.44,0.045,0.080,0.083,1.001,-0.225,0.188,-48.996,13.255,34.456
1747667648.45,-0.009,0.042,0.084,0.963,-0.108,0.216,-48.423,13.141,34.429
1747667648.46,-0.044,-0.016,-0.032,0.866,-0.062,0.281,-47.880,13.119,34.457
1747667648.47,-0.057,-0.067,-0.076,0.760,-0.136,0.346,-47.390,13.138,34.559
1747667648.48,-0.026,-0.092,-0.051,0.735,-0.180,0.404,-46.928,13.170,34.727
1747667648.49,0.037,-0.068,0.004,0.790,-0.281,0.392,-46.454,13.173,34.909
1747667648.50,0.066,-0.003,-0.014,0.876,-0.399,0.317,-45.944,13.071,35.040
1747667648.51,0.068,0.057,-0.043,0.950,-0.431,0.194,-45.403,12.859,35.077
1747667648.52,0.033,0.081,0.016,1.001,-0.392,0.052,-44.843,12.568,35.001
1747667648.53,-0.037,0.072,0.121,1.068,-0.325,-0.031,-44.265,12.240,34.826
1747667648.54,-0.114,0.040,0.133,1.083,-0.224,0.007,-43.663,11.943,34.629
1747667648.55,-0.148,-0.015,0.007,0.950,-0.084,0.135,-43.083,11.779,34.516
1747667648.56,-0.125,-0.067,-0.062,0.793,-0.059,0.245,-42.575,11.747,34.525
1747667648.57,-0.072,-0.081,-0.018,0.751,-0.024,0.322,-42.115,11.788,34.622
1747667648.58,0.032,-0.025,0.060,0.822,-0.078,0.318,-41.639,11.845,34.744
1747667648.59,0.076,0.096,0.027,0.891,-0.215,0.231,-41.126,11.808,34.816
1747667648.60,0.041,0.205,-0.000,0.918,-0.337,0.125,-40.600,11.644,34.808
1747667648.61,-0.028,0.244,-0.022,0.961,-0.452,0.042,-40.063,11.364,34.727
1747667648.62,-0.075,0.212,-0.009,0.998,-0.420,-0.026,-39.516,11.022,34.592
1747667648.63,-0.099,0.143,0.110,1.077,-0.290,-0.090,-38.940,10.697,34.403
1747667648.64,-0.110,0.074,0.073,1.087,-0.087,-0.091,-38.338,10.457,34.190
1747667648.65,-0.100,0.011,-0.001,0.981,-0.030,-0.063,-37.762,10.311,33.996
1747667648.66,-0.135,-0.032,-0.056,0.889,-0.003,0.042,-37.239,10.218,33.866
1747667648.67,-0.097,-0.062,-0.022,0.868,0.074,0.127,-36.738,10.212,33.819
1747667648.68,-0.031,-0.029,0.003,0.877,0.047,0.092,-36.236,10.232,33.790
1747667648.69,-0.013,0.047,-0.026,0.903,-0.034,-0.000,-35.731,10.193,33.711
1747667648.70,-0.015,0.114,-0.030,0.932,-0.148,-0.096,-35.220,10.057,33.563
1747667648.71,-0.040,0.157,-0.037,0.965,-0.243,-0.171,-34.701,9.825,33.357
1747667648.72,-0.051,0.174,0.015,1.008,-0.275,-0.218,-34.166,9.535,33.109
1747667648.73,-0.046,0.167,0.089,1.081,-0.244,-0.247,-33.600,9.229,32.832
1747667648.74,-0.021,0.133,0.094,1.098,-0.168,-0.222,-33.003,8.960,32.554
1747667648.75,0.017,0.068,0.044,1.016,-0.160,-0.150,-32.421,8.742,32.317
1747667648.76,0.035,-0.010,-0.032,0.912,-0.182,-0.038,-31.886,8.557,32.155
1747667648.77,0.081,-0.089,-0.035,0.867,-0.183,0.058,-31.385,8.413,32.077
1747667648.78,0.110,-0.117,-0.018,0.857,-0.206,0.054,-30.894,8.281,32.035
1747667648.79,0.079,-0.076,-0.013,0.874,-0.215,0.013,-30.403,8.130,31.975
1747667648.80,0.046,-0.019,-0.013,0.884,-0.259,-0.017,-29.907,7.954,31.891
1747667648.81,-0.006,0.010,-0.019,0.883,-0.298,-0.027,-29.408,7.747,31.796
1747667648.82,-0.038,0.000,0.011,0.899,-0.282,-0.027,-28.908,7.532,31.701
1747667648.83,-0.019,-0.035,0.073,0.952,-0.245,-0.011,-28.384,7.338,31.610
1747667648.84,0.041,-0.072,0.035,0.962,-0.183,-0.001,-27.840,7.177,31.529
1747667648.85,0.069,-0.096,-0.026,0.905,-0.212,-0.039,-27.311,7.029,31.441
1747667648.86,0.006,-0.105,-0.096,0.819,-0.285,-0.023,-26.826,6.844,31.351
1747667648.87,-0.015,-0.122,-0.108,0.776,-0.293,0.051,-26.374,6.655,31.300
1747667648.88,0.001,-0.094,-0.073,0.731,-0.272,0.087,-25.942,6.487,31.290
1747667648.89,0.023,-0.023,-0.048,0.699,-0.256,0.096,-25.530,6.341,31.298
1747667648.90,0.048,0.048,-0.016,0.699,-0.268,0.103,-25.129,6.199,31.312
1747667648.91,0.045,0.113,0.016,0.735,-0.285,0.127,-24.715,6.051,31.335
1747667648.92,0.028,0.155,0.037,0.747,-0.326,0.156,-24.284,5.893,31.376
1747667648.93,-0.005,0.169,0.041,0.762,-0.344,0.165,-23.848,5.722,31.429
1747667648.94,-0.025,0.140,0.053,0.829,-0.366,0.173,-23.387,5.544,31.486
1747667648.95,-0.020,0.079,0.016,0.829,-0.407,0.183,-22.902,5.345,31.547
1747667648.96,0.033,-0.016,-0.048,0.787,-0.388,0.184,-22.434,5.144,31.616
1747667648.97,0.090,-0.118,-0.038,0.786,-0.424,0.153,-21.978,4.937,31.677
1747667648.98,0.081,-0.171,-0.033,0.778,-0.465,0.138,-21.525,4.699,31.725
1747667648.99,0.043,-0.167,-0.038,0.763,-0.486,0.111,-21.081,4.441,32.053
1747667649.00,-0.037,-0.119,-0.021,0.757,-0.446,0.082,-20.645,4.179,32.076
1747667649.01,-0.120,-0.062,0.037,0.777,-0.340,0.067,-20.205,3.958,32.643
1747667649.02,-0.186,-0.006,0.010,0.782,-0.235,0.046,-19.757,3.793,32.646
1747667649.03,-0.206,0.029,-0.040,0.761,-0.106,0.053,-19.316,3.695,33.188
1747667649.04,-0.168,0.041,-0.023,0.759,0.037,0.057,-18.882,3.676,33.192
1747667649.05,-0.096,0.051,-0.005,0.788,0.155,0.047,-18.439,3.734,33.740
1747667649.06,-0.040,0.076,0.027,0.810,0.164,0.022,-17.982,3.823,33.729
1747667649.07,-0.008,0.106,0.016,0.817,0.121,0.021,-17.518,3.899,34.242
1747667649.08,0.005,0.120,-0.001,0.820,0.061,0.024,-17.050,3.944,34.759
1747667649.09,0.017,0.128,-0.020,0.821,0.020,0.021,-16.581,3.960,34.739
1747667649.10,0.037,0.120,-0.041,0.809,-0.023,0.005,-16.115,3.951,35.233
1747667649.11,0.039,0.090,-0.050,0.800,-0.070,-0.016,-15.657,3.915,35.198
1747667649.12,0.018,0.059,-0.068,0.788,-0.139,-0.047,-15.204,3.842,35.675
1747667649.13,-0.030,0.038,-0.059,0.766,-0.170,-0.074,-14.764,3.735,35.609
1747667649.14,-0.061,0.035,-0.013,0.787,-0.129,-0.125,-14.328,3.625,36.047
1747667649.15,-0.080,0.069,0.013,0.847,-0.056,-0.182,-13.868,3.543,35.925
1747667649.16,-0.118,0.128,0.014,0.863,-0.015,-0.214,-13.384,3.489,36.293
1747667649.17,-0.156,0.170,-0.058,0.788,-0.000,-0.197,-12.920,3.449,36.142
1747667649.18,-0.157,0.159,-0.115,0.762,0.056,-0.176,-12.486,3.433,36.524
1747667649.19,-0.114,0.117,-0.071,0.751,0.107,-0.168,-12.060,3.455,36.398
1747667649.20,-0.001,0.069,-0.055,0.741,0.068,-0.188,-11.640,3.482,36.782
1747667649.21,0.147,0.019,-0.076,0.738,-0.037,-0.227,-11.225,3.464,36.635
1747667649.22,0.237,-0.010,-0.041,0.730,-0.188,-0.241,-10.814,3.370,36.967
1747667649.23,0.246,-0.020,-0.029,0.706,-0.365,-0.208,-10.412,3.182,36.811
1747667649.24,0.158,-0.003,-0.032,0.696,-0.418,-0.164,-10.020,2.927,37.165
1747667649.25,0.025,0.043,0.023,0.712,-0.284,-0.131,-9.624,2.704,37.060
1747667649.26,-0.067,0.079,0.036,0.711,-0.121,-0.108,-9.220,2.575,37.454
1747667649.27,-0.125,0.079,0.006,0.678,0.057,-0.071,-8.825,2.544,37.385
1747667649.28,-0.086,0.023,-0.029,0.627,0.192,-0.048,-8.454,2.611,37.809
1747667649.29,0.026,-0.059,-0.093,0.585,0.193,-0.059,-8.111,2.720,37.762
1747667649.30,0.113,-0.093,-0.091,0.568,0.095,-0.046,-7.783,2.797,38.192
1747667649.31,0.175,-0.036,-0.063,0.547,-0.061,-0.045,-7.466,2.803,38.150
1747667649.32,0.137,0.078,-0.078,0.553,-0.214,-0.067,-7.156,2.717,38.563
1747667649.33,0.033,0.142,-0.059,0.600,-0.270,-0.080,-6.829,2.567,38.505
1747667649.34,-0.078,0.129,-0.002,0.629,-0.277,-0.081,-6.481,2.405,38.903
1747667649.35,-0.151,0.072,0.001,0.662,-0.309,-0.058,-6.114,2.231,38.848
1747667649.36,-0.134,-0.006,0.007,0.670,-0.298,-0.014,-5.732,2.052,39.263
1747667649.37,-0.049,-0.063,0.019,0.658,-0.312,0.043,-5.354,1.880,39.259
1747667649.38,0.025,-0.066,-0.015,0.653,-0.407,0.090,-4.980,1.677,39.725
1747667649.39,0.048,-0.022,-0.033,0.688,-0.441,0.141,-4.596,1.437,39.781
1747667649.40,0.039,0.033,-0.045,0.697,-0.519,0.173,-4.195,1.173,40.285
1747667649.41,-0.020,0.029,-0.084,0.657,-0.606,0.180,-3.806,0.856,40.380
1747667649.42,-0.076,-0.038,-0.069,0.629,-0.586,0.181,-3.438,0.517,40.880
1747667649.43,-0.049,-0.100,-0.016,0.608,-0.508,0.166,-3.085,0.209,40.978
1747667649.44,-0.002,-0.103,0.011,0.577,-0.413,0.114,-2.746,-0.049,41.479
1747667649.45,0.036,-0.057,0.016,0.529,-0.359,0.051,-2.430,-0.265,41.525
1747667649.46,0.056,-0.025,-0.001,0.503,-0.331,0.053,-2.139,-0.461,41.971
1747667649.47,0.028,-0.018,0.029,0.513,-0.294,0.070,-1.848,-0.640,42.010
1747667649.48,-0.003,-0.005,0.025,0.501,-0.237,0.089,-1.559,-0.791,42.455
1747667649.49,0.006,-0.027,-0.032,0.491,-0.227,0.105,-1.276,-0.917,42.514
1747667649.50,0.026,-0.055,-0.064,0.458,-0.276,0.115,-1.007,-1.061,42.975
1747667649.51,0.075,-0.101,-0.055,0.432,-0.265,0.129,-0.753,-1.217,43.051
1747667649.52,0.129,-0.148,-0.022,0.383,-0.246,0.117,-0.522,-1.362,43.523
1747667649.53,0.155,-0.150,-0.026,0.323,-0.280,0.166,-0.323,-1.510,43.607
1747667649.54,0.140,-0.133,-0.041,0.299,-0.277,0.224,-0.150,-1.673,44.111
1747667649.55,0.093,-0.084,0.014,0.297,-0.209,0.268,0.015,-1.813,44.258
1747667649.56,0.006,-0.012,0.051,0.300,-0.117,0.252,0.179,-1.907,44.791
1747667649.57,-0.093,0.058,0.014,0.331,-0.040,0.169,0.355,-1.952,44.919
1747667649.58,-0.112,0.050,-0.007,0.322,0.042,0.118,0.541,-1.951,45.374
1747667649.59,-0.044,-0.013,-0.046,0.278,0.004,0.152,0.711,-1.934,45.454
1747667649.60,0.019,-0.071,-0.105,0.226,-0.086,0.210,0.852,-1.961,45.907
1747667649.61,0.055,-0.089,-0.085,0.218,-0.113,0.241,0.973,-2.022,46.039
1747667649.62,0.085,-0.061,-0.047,0.209,-0.121,0.248,1.091,-2.090,46.521
1747667649.63,0.070,-0.008,-0.045,0.186,-0.173,0.218,1.198,-2.176,46.659
1747667649.64,0.019,0.023,-0.031,0.194,-0.154,0.166,1.301,-2.276,47.122
1747667649.65,-0.005,0.030,-0.007,0.192,-0.112,0.133,1.410,-2.352,47.210
1747667649.66,-0.007,0.030,-0.051,0.136,-0.139,0.118,1.501,-2.423,47.625
1747667649.67,-0.025,0.012,-0.080,0.101,-0.097,0.103,1.565,-2.499,47.692
1747667649.68,-0.018,-0.014,-0.036,0.091,0.010,0.096,1.616,-2.523,48.072
1747667649.69,-0.030,-0.017,-0.040,0.081,0.053,0.060,1.664,-2.506,48.121
1747667649.70,-0.061,-0.003,-0.053,0.049,0.105,0.006,1.700,-2.463,48.467
1747667649.71,-0.053,-0.000,-0.064,-0.014,0.145,-0.017,1.712,-2.391,48.463
1747667649.72,-0.028,-0.005,-0.083,-0.095,0.146,-0.027,1.681,-2.306,48.760
1747667649.73,0.001,-0.020,-0.104,-0.149,0.160,-0.018,1.610,-2.220,48.745
1747667649.74,0.030,-0.039,-0.136,-0.194,0.170,-0.005,1.511,-2.124,49.041
1747667649.75,0.008,-0.035,-0.177,-0.249,0.157,-0.020,1.385,-2.032,49.031
1747667649.76,-0.034,-0.020,-0.140,-0.315,0.215,-0.078,1.225,-1.930,49.297
1747667649.77,-0.040,-0.010,-0.061,-0.341,0.352,-0.139,1.040,-1.769,49.229
1747667649.78,-0.027,0.002,-0.059,-0.390,0.479,-0.206,0.837,-1.530,49.428
1747667649.79,-0.048,0.027,-0.073,-0.449,0.547,-0.286,0.600,-1.234,49.282
1747667649.80,-0.065,0.038,-0.080,-0.509,0.602,-0.344,0.331,-0.905,49.402
1747667649.81,-0.010,0.015,-0.120,-0.594,0.636,-0.335,0.020,-0.549,49.201
1747667649.82,0.078,-0.010,-0.193,-0.668,0.602,-0.296,-0.340,-0.193,49.326
1747667649.83,0.124,0.003,-0.190,-0.738,0.529,-0.261,-0.741,0.129,49.167
1747667649.84,0.127,0.011,-0.155,-0.784,0.468,-0.210,-1.177,0.412,49.323
1747667649.85,0.128,0.003,-0.161,-0.830,0.350,-0.166,-1.638,0.644,49.219
1747667649.86,0.089,0.004,-0.154,-0.855,0.281,-0.169,-2.122,0.819,49.428
1747667649.87,0.017,-0.007,-0.139,-0.872,0.252,-0.270,-2.617,0.966,49.305
1747667649.88,-0.055,-0.023,-0.143,-0.908,0.180,-0.242,-3.126,1.085,49.439
1747667649.89,-0.127,-0.016,-0.141,-0.945,0.125,-0.169,-3.659,1.163,49.332
1747667649.90,-0.152,-0.016,-0.148,-0.955,0.184,-0.086,-4.203,1.243,49.532
1747667649.91,-0.111,-0.017,-0.093,-0.995,0.267,0.014,-4.760,1.373,49.524
1747667649.92,-0.050,0.003,-0.067,-1.023,0.324,0.077,-5.336,1.545,49.813
1747667649.93,0.007,0.034,-0.086,-1.041,0.371,0.079,-5.923,1.751,49.994
1747667649.94,0.045,0.085,-0.103,-1.094,0.379,0.063,-6.531,1.972,50.055
1747667649.95,0.023,0.123,-0.123,-1.110,0.354,0.037,-7.162,2.189,50.225
1747667649.96,-0.038,0.124,-0.132,-1.106,0.280,0.011,-7.793,2.375,50.263
1747667649.97,-0.088,0.098,-0.132,-1.141,0.262,-0.015,-8.433,2.530,50.290
1747667649.98,-0.094,0.067,-0.076,-1.170,0.292,-0.045,-9.094,2.690,50.303
1747667649.99,-0.080,0.046,-0.050,-1.202,0.319,-0.061,-9.771,2.865,50.552
1747667650.00,-0.054,0.029,-0.089,-1.231,0.342,-0.077,-10.469,3.052,50.550
1747667650.01,-0.058,0.017,-0.110,-1.223,0.370,-0.115,-11.172,3.252,50.659
1747667650.02,-0.102,0.019,-0.072,-1.213,0.386,-0.159,-11.869,3.460,50.619
1747667650.03,-0.119,0.020,-0.078,-1.230,0.408,-0.202,-12.572,3.673,50.683
1747667650.04,-0.121,0.024,-0.090,-1.268,0.439,-0.241,-13.292,3.896,50.601
1747667650.05,-0.112,0.022,-0.068,-1.277,0.439,-0.254,-14.028,4.125,50.641
1747667650.06,-0.093,0.018,-0.057,-1.322,0.435,-0.249,-14.778,4.351,50.548
1747667650.07,-0.047,0.014,-0.029,-1.345,0.414,-0.247,-15.550,4.573,50.464
1747667650.08,-0.015,0.009,0.000,-1.362,0.355,-0.268,-16.333,4.768,50.377
1747667650.09,0.007,-0.006,-0.011,-1.314,0.290,-0.305,-17.109,4.925,50.275
1747667650.10,0.012,-0.030,-0.036,-1.288,0.230,-0.354,-17.863,5.032,50.145
1747667650.11,-0.024,-0.058,-0.034,-1.277,0.248,-0.390,-18.612,5.119,49.992
1747667650.12,-0.074,-0.089,-0.035,-1.280,0.295,-0.432,-19.360,5.214,49.814
1747667650.13,-0.126,-0.101,-0.013,-1.299,0.381,-0.436,-20.117,5.341,49.621
1747667650.14,-0.137,-0.095,0.023,-1.303,0.486,-0.403,-20.879,5.525,49.441
1747667650.15,-0.108,-0.078,0.060,-1.300,0.555,-0.370,-21.642,5.769,49.283
1747667650.16,-0.072,-0.060,0.088,-1.274,0.555,-0.349,-22.395,6.036,49.145
1747667650.17,-0.015,-0.046,0.076,-1.233,0.568,-0.331,-23.127,6.308,49.020
1747667650.18,0.057,-0.039,0.023,-1.205,0.562,-0.339,-23.838,6.584,48.899
1747667650.19,0.080,-0.043,-0.017,-1.218,0.509,-0.381,-24.550,6.837,48.766
1747667650.20,0.026,-0.065,-0.004,-1.180,0.477,-0.415,-25.260,7.050,48.608
1747667650.21,-0.037,-0.089,0.014,-1.164,0.530,-0.409,-25.950,7.262,48.440
1747667650.22,-0.072,-0.104,-0.029,-1.203,0.568,-0.374,-26.649,7.511,48.289
1747667650.23,-0.098,-0.113,-0.072,-1.226,0.583,-0.339,-27.365,7.784,48.166
1747667650.24,-0.084,-0.111,-0.012,-1.205,0.606,-0.303,-28.081,8.078,48.070
1747667650.25,-0.028,-0.084,0.058,-1.200,0.634,-0.285,-28.783,8.398,47.994
1747667650.26,0.030,-0.041,0.084,-1.204,0.563,-0.307,-29.488,8.710,47.921
1747667650.27,0.052,-0.002,0.032,-1.184,0.446,-0.347,-30.190,8.950,47.827
1747667650.28,0.068,0.015,0.006,-1.190,0.419,-0.372,-30.892,9.137,47.715
1747667650.29,0.078,0.016,0.046,-1.169,0.347,-0.382,-31.592,9.294,47.591
1747667650.30,0.041,0.015,0.014,-1.152,0.275,-0.377,-32.282,9.402,47.465
1747667650.31,0.009,0.012,-0.012,-1.144,0.261,-0.362,-32.963,9.490,47.345
1747667650.32,-0.010,0.007,-0.004,-1.146,0.256,-0.334,-33.640,9.579,47.239
1747667650.33,-0.003,-0.003,-0.005,-1.157,0.276,-0.300,-34.318,9.684,47.156
1747667650.34,0.029,-0.014,0.030,-1.171,0.289,-0.287,-35.001,9.810,47.094
1747667650.35,0.055,-0.020,0.050,-1.187,0.309,-0.287,-35.692,9.951,47.038
1747667650.36,0.057,-0.030,0.063,-1.215,0.255,-0.277,-36.397,10.085,46.989
1747667650.37,0.036,-0.040,0.052,-1.187,0.222,-0.246,-37.101,10.199,46.956
1747667650.38,0.036,-0.043,-0.005,-1.172,0.276,-0.219,-37.784,10.331,46.942
1747667650.39,0.030,-0.035,-0.029,-1.222,0.294,-0.216,-38.478,10.499,46.945
1747667650.40,0.003,-0.030,-0.022,-1.248,0.216,-0.210,-39.195,10.654,46.957
1747667650.41,-0.008,-0.017,-0.002,-1.270,0.176,-0.186,-39.922,10.782,46.987
1747667650.42,0.016,0.007,0.028,-1.298,0.141,-0.187,-40.664,10.904,47.032
1747667650.43,0.025,0.036,0.036,-1.299,0.067,-0.198,-41.413,10.992,47.075
1747667650.44,0.027,0.055,0.033,-1.287,0.005,-0.200,-42.161,11.039,47.116
1747667650.45,0.031,0.062,0.020,-1.254,-0.088,-0.203,-42.897,11.041,47.152
1747667650.46,0.025,0.054,-0.022,-1.220,-0.194,-0.210,-43.614,10.979,47.179
1747667650.47,0.018,0.031,-0.036,-1.182,-0.250,-0.216,-44.310,10.858,47.194
1747667650.48,-0.000,0.002,-0.023,-1.172,-0.230,-0.229,-44.994,10.720,47.196
1747667650.49,-0.035,-0.034,-0.001,-1.163,-0.197,-0.238,-45.674,10.589,47.184
1747667650.50,-0.070,-0.063,-0.028,-1.204,-0.132,-0.231,-46.361,10.485,47.172
1747667650.51,-0.094,-0.083,-0.030,-1.252,-0.049,-0.230,-47.076,10.429,47.168
1747667650.52,-0.110,-0.089,-0.016,-1.278,0.042,-0.232,-47.810,10.428,47.170
1747667650.53,-0.092,-0.087,-0.002,-1.294,0.145,-0.231,-48.557,10.485,47.175
1747667650.54,-0.053,-0.067,0.028,-1.305,0.169,-0.252,-49.312,10.579,47.176
1747667650.55,-0.040,-0.026,0.011,-1.305,0.126,-0.275,-50.073,10.650,47.159
1747667650.56,-0.021,0.006,-0.007,-1.311,0.104,-0.274,-50.837,10.695,47.134
1747667650.57,0.008,0.028,0.001,-1.306,0.071,-0.270,-51.601,10.731,47.114
1747667650.58,0.025,0.045,-0.014,-1.267,0.032,-0.276,-52.352,10.741,47.090
1747667650.59,0.035,0.055,-0.020,-1.244,0.040,-0.302,-53.086,10.722,47.043
1747667650.60,0.030,0.054,0.017,-1.227,0.071,-0.338,-53.813,10.688,46.960
1747667650.61,0.006,0.042,0.032,-1.224,0.092,-0.373,-54.538,10.640,46.840
1747667650.62,-0.020,0.017,0.034,-1.233,0.078,-0.374,-55.266,10.570,46.697
1747667650.63,-0.022,-0.011,0.015,-1.261,0.091,-0.349,-56.003,10.509,46.566
1747667650.64,-0.002,-0.034,0.007,-1.284,0.111,-0.315,-56.754,10.486,46.468
1747667650.65,0.016,-0.038,0.003,-1.280,0.121,-0.293,-57.505,10.494,46.400
1747667650.66,0.030,-0.030,-0.002,-1.285,0.132,-0.279,-58.254,10.525,46.350
1747667650.67,0.043,-0.018,-0.002,-1.290,0.147,-0.270,-59.006,10.574,46.313
1747667650.68,0.055,-0.009,0.016,-1.316,0.163,-0.262,-59.765,10.642,46.289
1747667650.69,0.056,0.000,0.034,-1.294,0.159,-0.276,-60.527,10.715,46.265
1747667650.70,0.046,0.000,0.017,-1.268,0.172,-0.288,-61.275,10.768,46.219
1747667650.71,0.050,-0.016,0.032,-1.295,0.203,-0.297,-62.025,10.822,46.160
1747667650.72,0.052,-0.042,0.049,-1.314,0.199,-0.306,-62.792,10.885,46.099
1747667650.72,0.041,-0.072,0.012,-1.301,0.145,-0.303,-63.559,10.927,46.035
1747667650.73,0.052,-0.094,-0.020,-1.302,0.075,-0.277,-64.319,10.943,45.983
1747667650.74,0.079,-0.098,-0.020,-1.323,0.008,-0.245,-65.083,10.959,45.975
1747667650.76,0.081,-0.080,-0.029,-1.299,-0.054,-0.237,-65.846,10.965,45.997
1747667650.76,0.059,-0.049,-0.038,-1.265,-0.087,-0.237,-66.590,10.938,46.012
1747667650.77,0.043,-0.020,-0.020,-1.247,-0.081,-0.243,-67.321,10.894,46.017
1747667650.78,0.015,-0.002,-0.006,-1.213,-0.033,-0.273,-68.040,10.832,45.987
1747667650.79,-0.009,-0.014,-0.000,-1.152,0.057,-0.282,-68.734,10.760,45.577
1747667650.80,-0.002,-0.047,-0.005,-1.149,0.118,-0.243,-69.403,10.739,45.499
1747667650.81,0.008,-0.081,-0.012,-1.199,0.165,-0.192,-70.086,10.830,45.168
1747667650.82,0.023,-0.097,-0.036,-1.209,0.195,-0.154,-70.781,11.032,45.270
1747667650.83,0.025,-0.085,-0.052,-1.191,0.146,-0.150,-71.473,11.274,45.059
1747667650.85,0.011,-0.064,-0.056,-1.136,0.105,-0.139,-72.141,11.494,45.219
1747667650.85,0.018,-0.052,-0.034,-1.078,0.141,-0.117,-72.773,11.742,45.043
1747667650.86,0.033,-0.034,-0.005,-1.034,0.208,-0.113,-73.377,12.044,45.256
1747667650.87,0.013,-0.002,-0.013,-0.997,0.242,-0.134,-73.957,12.363,45.073
1747667650.88,-0.033,0.023,-0.045,-1.036,0.150,-0.175,-74.542,12.616,45.217
1747667650.89,-0.073,0.019,-0.054,-1.093,0.036,-0.223,-75.162,12.756,44.920
1747667650.90,-0.101,0.000,-0.024,-1.081,-0.065,-0.253,-75.800,12.765,44.940
1747667650.91,-0.109,-0.013,-0.021,-1.013,-0.071,-0.263,-76.417,12.671,44.508
1747667650.92,-0.088,-0.022,-0.007,-0.931,0.035,-0.260,-76.992,12.551,44.397
1747667650.93,-0.061,-0.020,0.021,-0.840,0.224,-0.249,-77.517,12.480,43.842
1747667650.94,-0.060,-0.001,0.016,-0.798,0.393,-0.269,-78.001,12.461,43.639
1747667650.95,-0.103,0.016,0.021,-0.851,0.430,-0.296,-78.494,12.417,42.951
1747667650.96,-0.137,0.019,0.018,-0.917,0.401,-0.285,-79.024,12.381,42.672
1747667650.97,-0.108,-0.003,0.009,-0.938,0.382,-0.257,-79.577,12.406,42.052
1747667650.98,-0.036,-0.045,0.025,-0.925,0.385,-0.213,-80.126,12.532,41.957
1747667650.99,0.049,-0.085,0.049,-0.932,0.376,-0.167,-80.668,12.829,41.607
1747667651.00,0.117,-0.094,0.032,-0.871,0.281,-0.157,-81.192,13.187,41.779
1747667651.01,0.161,-0.092,-0.002,-0.776,0.196,-0.179,-81.672,13.423,41.447
1747667651.02,0.169,-0.050,-0.024,-0.689,0.156,-0.204,-82.106,13.464,41.388
1747667651.03,0.160,0.015,-0.052,-0.560,0.129,-0.212,-82.481,13.296,40.706
1747667651.04,0.140,0.069,-0.108,-0.427,0.100,-0.208,-82.781,12.951,40.291
1747667651.05,0.104,0.101,-0.125,-0.371,0.084,-0.183,-83.025,12.513,39.362
1747667651.06,0.070,0.091,-0.076,-0.418,0.050,-0.132,-83.263,12.218,39.025
1747667651.07,0.023,0.043,-0.007,-0.451,-0.030,-0.122,-83.522,12.076,38.429
1747667651.08,-0.051,-0.026,0.041,-0.444,-0.127,-0.157,-83.789,11.820,38.217
1747667651.09,-0.117,-0.074,0.055,-0.387,-0.166,-0.201,-84.045,11.230,37.279
1747667651.10,-0.145,-0.099,0.045,-0.288,-0.126,-0.202,-84.257,10.379,36.510
1747667651.11,-0.142,-0.090,0.054,-0.232,-0.039,-0.160,-84.418,9.544,35.297
1747667651.12,-0.137,-0.042,0.075,-0.228,0.042,-0.126,-84.559,8.932,34.681
1747667651.13,-0.132,0.015,0.062,-0.217,0.096,-0.109,-84.695,8.478,33.756
1747667651.14,-0.113,0.056,0.018,-0.185,0.134,-0.081,-84.817,8.132,33.342
1747667651.15,-0.090,0.068,-0.002,-0.129,0.162,-0.039,-84.913,7.975,32.674
1747667651.16,-0.078,0.050,0.002,-0.055,0.186,-0.012,-84.967,7.996,32.594
1747667651.17,-0.068,0.019,0.017,-0.001,0.231,0.017,-84.980,8.148,32.211
1747667651.18,-0.047,-0.010,0.030,0.012,0.267,0.049,-84.973,8.510,32.430
1747667651.19,-0.025,-0.020,0.018,-0.010,0.241,0.046,-84.968,8.972,32.342
1747667651.20,-0.019,-0.024,0.022,-0.030,0.142,0.010,-84.978,9.303,32.560
1747667651.21,-0.013,-0.024,0.029,-0.030,0.006,-0.044,-84.997,9.280,32.094
1747667651.22,0.006,-0.007,0.021,0.016,-0.082,-0.086,-85.008,8.838,31.675
1747667651.23,0.044,0.009,0.009,0.084,-0.090,-0.098,-84.988,8.138,30.615
1747667651.24,0.081,0.014,0.019,0.145,-0.053,-0.100,-84.931,7.314,29.829
1747667651.25,0.100,0.008,0.041,0.188,-0.032,-0.096,-84.844,6.511,28.639
1747667651.26,0.111,-0.004,0.054,0.205,-0.031,-0.074,-84.738,5.806,27.947
1747667651.27,0.114,0.000,0.035,0.189,-0.098,-0.033,-84.629,5.312,27.099
1747667651.28,0.083,0.016,0.021,0.144,-0.193,0.006,-84.536,5.058,26.927
1747667651.29,0.026,0.013,0.012,0.116,-0.269,0.015,-84.463,4.929,26.536
1747667651.30,-0.023,-0.010,-0.004,0.090,-0.262,-0.010,-84.406,4.756,26.518
1747667651.31,-0.047,-0.028,0.008,0.063,-0.186,-0.040,-84.364,4.475,25.984
1747667651.32,-0.044,-0.029,0.013,0.034,-0.137,-0.053,-84.340,4.147,25.744
1747667651.33,-0.021,-0.014,0.019,0.022,-0.173,-0.053,-84.331,3.839,25.171
1747667651.34,0.010,0.002,0.012,0.056,-0.244,-0.051,-84.317,3.519,24.968
1747667651.35,0.041,0.012,-0.002,0.118,-0.286,-0.052,-84.272,3.150,24.397
1747667651.36,0.057,0.012,-0.007,0.154,-0.274,-0.031,-84.197,2.785,24.191
1747667651.37,0.053,0.012,-0.002,0.178,-0.236,-0.011,-84.104,2.520,23.727
1747667651.38,0.021,0.032,-0.014,0.215,-0.197,-0.011,-83.993,2.286,23.616
1747667651.39,-0.040,0.052,-0.024,0.233,-0.152,-0.018,-83.865,2.017,23.133
1747667651.40,-0.103,0.034,-0.002,0.204,-0.098,-0.015,-83.740,1.786,22.974
1747667651.41,-0.135,-0.012,0.016,0.157,-0.036,-0.007,-83.638,1.653,22.574
1747667651.42,-0.125,-0.049,0.021,0.100,0.043,-0.003,-83.567,1.618,22.537
1747667651.43,-0.092,-0.058,0.026,0.077,0.108,-0.002,-83.519,1.658,22.235
1747667651.44,-0.035,-0.043,0.015,0.113,0.147,0.010,-83.468,1.769,22.270
1747667651.45,0.029,-0.004,-0.008,0.139,0.202,0.011,-83.395,1.934,22.031
1747667651.46,0.076,0.033,0.008,0.144,0.260,0.022,-83.314,2.133,22.098
1747667651.47,0.081,0.048,0.018,0.156,0.252,0.027,-83.228,2.366,21.889
1747667651.48,0.049,0.045,0.008,0.160,0.196,0.016,-83.137,2.527,21.922
1747667651.49,-0.005,0.030,0.012,0.161,0.168,0.004,-83.046,2.586,21.568
1747667651.50,-0.045,0.012,0.035,0.154,0.170,-0.004,-82.958,2.589,21.475
1747667651.51,-0.061,0.001,0.043,0.153,0.189,-0.004,-82.872,2.595,21.087
1747667651.52,-0.057,-0.017,0.043,0.168,0.228,0.002,-82.783,2.666,21.041
1747667651.53,-0.036,-0.037,0.038,0.186,0.290,0.004,-82.682,2.797,20.756
1747667651.54,-0.011,-0.045,0.019,0.155,0.299,0.002,-82.583,2.974,20.761
1747667651.55,-0.005,-0.040,0.001,0.063,0.212,-0.000,-82.522,3.136,20.508
1747667651.56,-0.008,-0.030,-0.012,-0.010,0.104,-0.003,-82.510,3.237,20.521
1747667651.57,-0.003,-0.011,-0.009,-0.045,0.053,-0.004,-82.529,3.270,20.242
1747667651.58,0.012,0.019,-0.004,-0.052,0.022,0.004,-82.562,3.267,20.218
1747667651.59,0.021,0.043,-0.020,-0.036,0.002,0.015,-82.595,3.265,19.973
1747667651.60,0.033,0.048,-0.036,-0.018,0.034,0.021,-82.614,3.297,19.999
1747667651.61,0.041,0.033,-0.015,-0.066,0.116,0.029,-82.640,3.421,19.830
1747667651.62,0.021,0.002,0.023,-0.136,0.158,0.015,-82.699,3.627,19.955
1747667651.63,-0.042,-0.027,0.011,-0.169,0.147,-0.040,-82.785,3.689,19.686
1747667651.64,-0.094,-0.038,-0.019,-0.161,0.140,-0.071,-82.877,3.531,19.446
1747667651.65,-0.094,-0.038,-0.025,-0.172,0.195,-0.055,-82.971,3.364,18.938
1747667651.66,-0.061,-0.030,0.010,-0.206,0.275,-0.031,-83.077,3.362,18.800
1747667651.67,-0.026,-0.019,0.032,-0.228,0.297,-0.014,-83.199,3.511,18.556
1747667651.68,0.003,-0.012,-0.005,-0.224,0.234,-0.015,-83.322,3.706,18.342
1747667651.69,0.022,-0.000,-0.083,-0.243,0.126,-0.031,-83.451,3.823,18.356
1747667651.70,0.033,0.002,-0.113,-0.247,0.068,-0.040,-83.595,3.805,18.032
1747667651.71,0.050,0.002,-0.123,-0.203,0.057,-0.044,-83.726,3.640,17.834
1747667651.72,0.047,0.016,-0.139,-0.131,0.106,-0.074,-83.820,3.335,17.242
1747667651.73,0.022,0.034,-0.133,-0.054,0.141,-0.107,-83.870,2.860,16.693
1747667651.74,-0.000,0.037,-0.125,-0.004,0.135,-0.116,-83.889,2.290,15.794
1747667651.75,-0.011,0.033,-0.131,0.046,0.126,-0.119,-83.881,1.714,15.143
1747667651.76,-0.024,0.032,-0.127,0.064,0.179,-0.116,-83.848,1.165,14.269
1747667651.77,-0.035,0.013,-0.091,0.015,0.270,-0.064,-83.816,0.824,13.798
1747667651.78,-0.054,-0.020,-0.036,-0.064,0.337,-0.012,-83.821,0.845,13.414
1747667651.79,-0.092,-0.057,-0.013,-0.116,0.353,0.008,-83.862,1.095,13.467
1747667651.80,-0.114,-0.082,-0.014,-0.172,0.439,0.015,-83.943,1.396,13.313
1747667651.81,-0.094,-0.092,0.031,-0.250,0.572,0.044,-84.063,1.880,13.508
1747667651.82,-0.071,-0.083,0.059,-0.316,0.624,0.075,-84.224,2.622,13.675
1747667651.83,-0.050,-0.064,0.044,-0.347,0.598,0.063,-84.413,3.491,14.194
1747667651.84,-0.026,-0.039,0.030,-0.332,0.530,0.036,-84.606,4.247,14.405
1747667651.85,0.011,-0.018,0.010,-0.258,0.447,0.023,-84.775,4.840,14.720
1747667651.86,0.054,0.020,-0.049,-0.176,0.325,-0.013,-84.896,5.216,14.637
1747667651.87,0.074,0.070,-0.095,-0.126,0.200,-0.048,-84.983,5.249,14.520
1747667651.88,0.090,0.092,-0.109,-0.077,0.113,-0.066,-85.044,5.011,13.955
1747667651.89,0.094,0.069,-0.107,-0.029,0.057,-0.067,-85.077,4.632,13.526
1747667651.90,0.084,0.018,-0.091,0.003,0.048,-0.031,-85.085,4.332,12.947
1747667651.91,0.070,-0.044,-0.068,0.008,0.067,0.014,-85.081,4.303,12.886
1747667651.92,0.031,-0.079,-0.040,-0.039,0.080,0.030,-85.088,4.522,12.817
1747667651.93,-0.018,-0.060,-0.018,-0.080,0.040,0.015,-85.123,4.749,13.009
1747667651.94,-0.031,-0.013,-0.052,-0.083,-0.032,-0.004,-85.170,4.823,12.854
1747667651.95,0.000,0.029,-0.083,-0.055,-0.065,-0.028,-85.211,4.730,12.790
1747667651.96,0.037,0.051,-0.068,0.002,-0.039,-0.054,-85.229,4.426,12.284
1747667651.97,0.049,0.040,-0.038,0.088,0.003,-0.070,-85.206,3.963,11.829
1747667651.98,0.032,0.014,-0.028,0.167,0.039,-0.049,-85.125,3.595,11.187
1747667651.99,-0.003,-0.004,-0.037,0.197,0.052,-0.012,-85.010,3.424,10.987
1747667652.00,-0.051,-0.011,-0.050,0.162,0.069,-0.000,-84.901,3.392,10.654
1747667652.01,-0.094,-0.018,-0.014,0.120,0.107,-0.002,-84.820,3.354,10.566
1747667652.02,-0.099,-0.017,0.018,0.114,0.160,0.027,-84.749,3.426,10.311
1747667652.03,-0.073,0.005,0.047,0.111,0.228,0.063,-84.679,3.777,10.551
1747667652.04,-0.052,0.030,0.098,0.098,0.237,0.059,-84.614,4.279,10.712
1747667652.05,-0.049,0.035,0.126,0.121,0.203,0.047,-84.549,4.706,11.013
1747667652.06,-0.053,0.022,0.135,0.153,0.148,0.032,-84.468,4.983,10.976
1747667652.07,-0.056,0.006,0.142,0.204,0.103,0.021,-84.365,5.126,11.048
1747667652.08,-0.066,0.002,0.134,0.259,0.067,-0.001,-84.229,5.087,10.753
1747667652.09,-0.090,0.011,0.138,0.294,0.029,-0.042,-84.075,4.825,10.461
1747667652.10,-0.127,0.022,0.141,0.372,-0.002,-0.084,-83.891,4.308,9.730
1747667652.11,-0.150,0.024,0.119,0.426,0.042,-0.087,-83.667,3.676,9.087
1747667652.12,-0.154,0.027,0.158,0.384,0.106,-0.087,-83.442,3.152,8.318
1747667652.13,-0.184,0.025,0.188,0.318,0.132,-0.113,-83.253,2.627,7.724
1747667652.14,-0.181,0.008,0.170,0.285,0.218,-0.096,-83.086,2.155,6.961
1747667652.15,-0.125,-0.004,0.152,0.266,0.257,-0.069,-82.930,1.863,6.528
1747667652.16,-0.079,0.001,0.113,0.248,0.275,-0.043,-82.785,1.721,6.045
1747667652.17,-0.018,-0.000,0.093,0.250,0.343,-0.010,-82.643,1.746,5.894
1747667652.18,0.056,-0.013,0.096,0.282,0.414,0.023,-82.493,1.959,5.707
1747667652.19,0.107,-0.018,0.087,0.377,0.404,0.033,-82.307,2.277,5.788
1747667652.20,0.109,-0.006,0.031,0.490,0.311,0.022,-82.059,2.523,5.662
1747667652.21,0.097,0.001,-0.023,0.547,0.217,0.032,-81.759,2.676,5.665
1747667652.22,0.114,-0.012,-0.040,0.520,0.169,0.077,-81.451,2.889,5.595
1747667652.23,0.149,-0.022,-0.051,0.502,0.158,0.099,-81.159,3.222,5.837
1747667652.24,0.164,-0.018,-0.066,0.507,0.128,0.088,-80.870,3.534,5.897
1747667652.25,0.162,-0.014,-0.050,0.554,0.040,0.079,-80.566,3.758,6.073
1747667652.26,0.129,-0.004,-0.046,0.636,-0.108,0.055,-80.225,3.844,5.999
1747667652.27,0.045,0.018,-0.082,0.687,-0.323,0.023,-79.843,3.705,5.982
1747667652.28,-0.057,0.009,-0.130,0.674,-0.418,0.003,-79.455,3.387,5.720
1747667652.29,-0.090,-0.048,-0.104,0.702,-0.267,-0.004,-79.065,3.066,5.598
1747667652.30,-0.052,-0.098,-0.074,0.725,-0.074,-0.009,-78.655,2.845,5.317
1747667652.31,-0.013,-0.105,-0.068,0.692,-0.003,-0.015,-78.250,2.696,5.180
1747667652.32,0.002,-0.087,-0.081,0.680,-0.078,0.007,-77.859,2.585,4.947
1747667652.33,0.015,-0.048,-0.095,0.662,-0.107,0.042,-77.475,2.505,4.923
1747667652.34,0.063,-0.014,-0.031,0.653,-0.039,0.116,-77.099,2.578,4.897
1747667652.35,0.123,-0.007,0.023,0.689,0.041,0.214,-76.712,2.901,5.227
1747667652.36,0.159,-0.009,0.026,0.768,0.087,0.296,-76.291,3.455,5.690
1747667652.37,0.174,-0.008,0.017,0.869,0.071,0.356,-75.810,4.129,6.336
1747667652.38,0.137,-0.007,0.034,0.923,-0.000,0.372,-75.281,4.810,6.948
1747667652.39,0.005,-0.002,0.061,0.935,-0.135,0.313,-74.734,5.331,7.523
1747667652.40,-0.158,-0.004,0.014,0.897,-0.299,0.235,-74.196,5.583,7.867
1747667652.41,-0.249,-0.010,-0.034,0.742,-0.314,0.209,-73.714,5.677,8.156
1747667652.42,-0.222,-0.021,0.051,0.620,-0.180,0.166,-73.321,5.764,8.394
1747667652.43,-0.128,-0.017,0.072,0.654,-0.146,0.123,-72.955,5.830,8.552
1747667652.44,-0.043,0.011,0.007,0.734,-0.240,0.128,-72.554,5.809,8.645
1747667652.45,0.038,0.044,0.014,0.854,-0.270,0.227,-72.092,5.843,8.840
1747667652.46,0.097,0.092,0.096,0.938,-0.268,0.172,-71.568,5.895,8.968
1747667652.47,0.055,0.143,0.149,0.940,-0.394,0.105,-71.025,5.770,9.033
1747667652.48,-0.059,0.137,0.108,0.919,-0.521,0.109,-70.491,5.521,8.966
1747667652.49,-0.151,0.095,0.061,0.889,-0.543,0.168,-69.970,5.291,9.049
1747667652.50,-0.164,0.032,0.067,0.848,-0.458,0.246,-69.465,5.197,9.208
1747667652.51,-0.104,-0.031,0.068,0.821,-0.215,0.291,-68.977,5.291,9.521
1747667652.52,-0.004,-0.072,0.095,0.829,0.105,0.279,-68.493,5.571,9.825
1747667652.53,0.077,-0.083,0.099,0.855,0.178,0.235,-68.001,5.907,10.089
1747667652.54,0.087,-0.063,0.016,0.905,-0.003,0.201,-67.487,6.135,10.241
1747667652.55,0.053,-0.027,-0.062,0.895,-0.201,0.210,-66.962,6.214,10.394
1747667652.56,0.043,0.005,-0.056,0.872,-0.200,0.277,-66.445,6.283,10.593
1747667652.57,0.047,0.018,0.025,0.855,-0.113,0.311,-65.938,6.457,10.906
1747667652.58,-0.027,0.038,0.062,0.884,-0.162,0.262,-65.426,6.622,11.168
1747667652.59,-0.133,0.052,-0.023,0.858,-0.233,0.217,-64.912,6.671,11.384
1747667652.60,-0.154,0.037,-0.025,0.794,-0.228,0.224,-64.430,6.681,11.544
1747667652.61,-0.105,-0.004,-0.007,0.799,-0.214,0.257,-63.966,6.729,11.758
1747667652.62,-0.029,-0.048,-0.003,0.871,-0.201,0.289,-63.475,6.812,11.982
1747667652.63,0.053,-0.069,0.010,0.974,-0.210,0.269,-62.933,6.887,12.197
1747667652.64,0.114,-0.072,0.006,1.066,-0.281,0.228,-62.337,6.886,12.351
1747667652.65,0.151,-0.073,-0.025,1.097,-0.333,0.202,-61.706,6.794,12.452
1747667652.66,0.165,-0.083,-0.020,1.062,-0.158,0.211,-61.081,6.727,12.543
1747667652.67,0.133,-0.079,0.028,1.035,0.013,0.196,-60.469,6.773,12.638
1747667652.68,-0.009,-0.052,0.015,0.893,0.083,0.163,-59.909,6.865,12.710
1747667652.69,-0.148,-0.020,-0.032,0.812,0.047,0.152,-59.419,6.958,12.768
1747667652.70,-0.197,0.014,-0.070,0.785,-0.094,0.204,-58.956,7.015,12.851
1747667652.71,-0.159,0.046,-0.034,0.791,-0.130,0.308,-58.490,7.094,13.023
1747667652.72,-0.050,0.065,0.008,0.842,-0.106,0.325,-58.008,7.232,13.264
1747667652.73,0.025,0.079,0.027,0.990,-0.114,0.226,-57.472,7.317,13.436
1747667652.74,0.026,0.099,0.029,1.160,-0.224,0.099,-56.849,7.247,13.462
1747667652.75,-0.013,0.113,-0.004,1.203,-0.329,-0.035,-56.173,6.985,13.343
1747667652.76,-0.030,0.100,-0.024,1.194,-0.251,-0.156,-55.500,6.611,13.100
1747667652.77,-0.029,0.035,0.056,1.165,-0.046,-0.172,-54.839,6.274,12.797
1747667652.78,-0.054,-0.048,0.145,1.061,0.190,-0.052,-54.212,6.127,12.562
1747667652.79,-0.064,-0.102,0.066,0.957,0.158,0.112,-53.638,6.174,12.484
1747667652.80,-0.021,-0.117,-0.112,0.840,0.009,0.304,-53.114,6.301,12.586
1747667652.81,0.085,-0.111,-0.081,0.800,-0.042,0.401,-52.631,6.499,12.848
1747667652.82,0.175,-0.066,-0.021,0.878,-0.125,0.293,-52.133,6.641,13.085
1747667652.83,0.177,0.001,-0.043,0.942,-0.253,0.190,-51.600,6.629,13.207
1747667652.84,0.104,0.045,-0.032,1.005,-0.298,0.121,-51.039,6.498,13.246
1747667652.85,0.005,0.081,-0.000,1.081,-0.257,0.047,-50.440,6.315,13.218
1747667652.86,-0.066,0.094,0.025,1.145,-0.112,-0.036,-49.808,6.126,13.115
1747667652.87,-0.088,0.076,0.042,1.162,0.112,-0.049,-49.153,6.010,12.964
1747667652.88,-0.080,0.020,0.060,1.098,0.278,0.013,-48.510,6.035,12.841
1747667652.89,-0.065,-0.056,0.016,0.996,0.193,0.103,-47.911,6.141,12.792
1747667652.90,0.009,-0.124,-0.078,0.858,-0.005,0.241,-47.374,6.236,12.851
1747667652.91,0.174,-0.172,-0.045,0.770,-0.099,0.378,-46.895,6.336,13.035
1747667652.92,0.293,-0.166,0.044,0.769,-0.186,0.452,-46.434,6.458,13.312
1747667652.93,0.259,-0.089,0.073,0.817,-0.280,0.350,-45.959,6.513,13.568
1747667652.94,0.155,0.015,0.051,0.907,-0.421,0.297,-45.450,6.443,13.749
1747667652.95,0.029,0.083,0.015,0.991,-0.490,0.262,-44.893,6.277,13.890
1747667652.96,-0.071,0.124,0.024,1.043,-0.420,0.210,-44.299,6.084,13.992
1747667652.97,-0.131,0.131,0.041,1.030,-0.287,0.148,-43.698,5.919,14.045
1747667652.98,-0.155,0.091,0.068,1.033,-0.194,0.160,-43.105,5.806,14.079
1747667652.99,-0.118,0.030,0.056,0.992,-0.158,0.235,-42.515,5.758,14.150
1747667653.00,-0.021,-0.019,-0.002,0.888,-0.175,0.329,-41.966,5.758,14.295
1747667653.01,0.093,-0.053,-0.001,0.860,-0.147,0.404,-41.453,5.807,14.508
1747667653.02,0.159,-0.057,0.052,0.900,-0.138,0.451,-40.928,5.897,14.764
1747667653.03,0.125,-0.002,0.051,0.922,-0.210,0.441,-40.383,5.972,15.029
1747667653.04,0.038,0.080,0.031,0.959,-0.282,0.394,-39.824,5.983,15.268
1747667653.05,-0.041,0.148,0.042,1.020,-0.257,0.314,-39.242,5.943,15.455
1747667653.06,-0.106,0.188,0.077,1.112,-0.175,0.216,-38.621,5.891,15.568
1747667653.07,-0.138,0.183,0.068,1.151,-0.123,0.166,-37.963,5.836,15.618
1747667653.08,-0.130,0.120,0.031,1.092,-0.101,0.200,-37.314,5.800,15.663
1747667653.09,-0.072,0.018,-0.021,1.004,-0.103,0.259,-36.705,5.794,15.751
1747667653.10,0.013,-0.073,0.002,0.956,-0.085,0.295,-36.135,5.813,15.877
1747667653.11,0.077,-0.121,0.031,0.927,-0.018,0.352,-35.580,5.876,16.035
1747667653.12,0.105,-0.104,0.055,0.918,-0.016,0.383,-35.036,5.982,16.228
1747667653.13,0.049,-0.017,0.016,0.921,-0.065,0.381,-34.491,6.071,16.427
1747667653.14,-0.008,0.089,-0.025,0.952,-0.098,0.339,-33.939,6.127,16.608
1747667653.15,-0.038,0.176,-0.013,1.034,-0.153,0.250,-33.358,6.127,16.738
1747667653.16,-0.054,0.215,0.036,1.084,-0.147,0.173,-32.742,6.075,16.803
1747667653.17,-0.041,0.186,0.036,1.090,-0.168,0.125,-32.114,6.001,16.825
1747667653.18,-0.031,0.089,-0.024,1.075,-0.290,0.123,-31.491,5.874,16.830
1747667653.19,-0.014,-0.033,-0.025,1.063,-0.333,0.191,-30.874,5.704,16.859
1747667653.20,0.058,-0.122,0.030,1.058,-0.246,0.249,-30.259,5.578,16.938
1747667653.21,0.104,-0.141,0.051,1.060,-0.186,0.224,-29.645,5.503,17.029
1747667653.22,0.061,-0.099,0.017,1.082,-0.202,0.169,-29.026,5.423,17.089
1747667653.23,0.012,-0.038,-0.045,1.104,-0.183,0.159,-28.398,5.330,17.128
1747667653.24,-0.004,0.012,-0.056,1.175,-0.240,0.145,-27.743,5.229,17.160
1747667653.25,-0.051,0.054,-0.029,1.241,-0.287,0.120,-27.048,5.084,17.177
1747667653.26,-0.086,0.082,0.005,1.253,-0.299,0.084,-26.332,4.913,17.171
1747667653.27,-0.096,0.081,0.004,1.216,-0.295,0.061,-25.625,4.733,17.150
1747667653.28,-0.106,0.039,-0.001,1.149,-0.285,0.063,-24.950,4.556,17.125
1747667653.29,-0.115,-0.036,0.026,1.123,-0.213,0.108,-24.300,4.411,17.123
1747667653.30,-0.082,-0.105,0.072,1.106,-0.123,0.142,-23.660,4.325,17.149
1747667653.31,-0.017,-0.132,0.049,1.090,-0.086,0.145,-23.029,4.283,17.187
1747667653.32,0.050,-0.118,-0.018,1.097,-0.088,0.097,-22.403,4.243,17.212
1747667653.33,0.095,-0.072,-0.008,1.135,-0.044,0.052,-21.764,4.202,17.207
1747667653.34,0.125,-0.011,0.035,1.161,0.019,0.040,-21.108,4.187,17.182
1747667653.35,0.114,0.044,0.027,1.206,-0.025,0.057,-20.432,4.181,17.157
1747667653.36,0.060,0.077,0.018,1.164,-0.123,0.082,-19.752,4.134,17.146
1747667653.37,0.021,0.086,0.027,1.112,-0.193,0.117,-19.103,4.045,17.155
1747667653.38,0.020,0.062,0.051,1.133,-0.199,0.162,-18.459,3.942,17.193
1747667653.39,0.051,0.024,0.048,1.165,-0.172,0.176,-17.797,3.853,17.249
1747667653.40,0.083,-0.013,-0.002,1.175,-0.135,0.138,-17.124,3.779,17.298
1747667653.41,0.090,-0.047,-0.026,1.208,-0.061,0.111,-16.440,3.728,17.325
1747667653.42,0.071,-0.079,0.009,1.167,0.008,0.108,-15.755,3.719,17.343
1747667653.43,0.024,-0.094,0.002,1.101,0.001,0.128,-15.106,3.731,17.368
1747667653.44,-0.053,-0.066,0.005,1.091,-0.041,0.166,-14.476,3.731,17.411
1747667653.45,-0.109,0.023,0.059,1.091,-0.046,0.204,-13.847,3.721,17.479
1747667653.46,-0.107,0.109,0.045,1.105,-0.044,0.221,-13.215,3.716,17.563
1747667653.47,-0.052,0.131,0.006,1.132,-0.070,0.224,-12.568,3.705,17.651
1747667653.48,0.029,0.103,-0.006,1.144,-0.097,0.191,-11.914,3.672,17.731
1747667653.49,0.074,0.039,-0.001,1.160,-0.094,0.142,-11.250,3.630,17.785
1747667653.50,0.033,-0.043,0.006,1.160,-0.132,0.067,-10.585,3.568,18.160
1747667653.51,-0.036,-0.125,-0.014,1.165,-0.139,0.027,-9.921,3.487,18.143
1747667653.52,-0.087,-0.177,-0.073,1.136,-0.064,0.005,-9.263,3.419,18.802
1747667653.53,-0.135,-0.138,-0.069,1.131,0.068,-0.032,-8.620,3.414,18.756
1747667653.54,-0.226,-0.012,-0.020,1.139,0.148,-0.021,-7.972,3.468,19.044
1747667653.55,-0.281,0.118,-0.004,1.126,0.172,0.027,-7.327,3.558,19.007
1747667653.56,-0.248,0.219,-0.045,1.145,0.086,0.032,-6.680,3.631,19.666
1747667653.57,-0.149,0.258,-0.057,1.182,0.000,-0.020,-6.016,3.652,19.628
1747667653.58,-0.023,0.205,-0.021,1.192,-0.180,-0.097,-5.341,3.598,20.214
1747667653.59,0.079,0.091,-0.047,1.194,-0.424,-0.160,-4.665,3.415,20.098
1747667653.60,0.124,-0.036,-0.031,1.194,-0.582,-0.232,-3.988,3.110,20.600
1747667653.61,0.086,-0.149,0.011,1.160,-0.608,-0.308,-3.326,2.754,20.410
1747667653.62,-0.016,-0.257,0.018,1.149,-0.509,-0.350,-2.677,2.418,20.836
1747667653.63,-0.105,-0.304,0.060,1.118,-0.243,-0.340,-2.036,2.189,20.611
1747667653.64,-0.083,-0.238,0.071,1.117,0.050,-0.271,-1.409,2.133,21.055
1747667653.65,-0.040,-0.023,0.051,1.142,0.163,-0.209,-0.766,2.194,20.894
1747667653.66,-0.022,0.208,-0.035,1.097,0.200,-0.145,-0.132,2.300,21.405
1747667653.67,0.030,0.245,-0.091,1.111,0.144,-0.078,0.495,2.400,21.317
1747667653.68,0.074,0.147,-0.089,1.070,0.059,-0.051,1.119,2.459,21.886
1747667653.69,0.152,0.006,-0.093,1.007,-0.077,-0.066,1.708,2.459,21.829
1747667653.70,0.224,-0.135,-0.081,1.009,-0.290,-0.098,2.281,2.357,22.383
1747667653.71,0.248,-0.226,-0.045,0.954,-0.460,-0.094,2.841,2.143,22.303
1747667653.72,0.236,-0.242,-0.047,0.903,-0.552,-0.055,3.367,1.855,22.855
1747667653.73,0.137,-0.171,-0.023,0.898,-0.500,-0.025,3.881,1.550,22.816
1747667653.74,0.008,-0.037,0.024,0.877,-0.261,0.018,4.388,1.327,23.386
1747667653.75,-0.094,0.095,0.039,0.907,-0.009,0.052,4.896,1.253,23.394
1747667653.76,-0.194,0.176,0.020,0.925,0.161,0.124,5.422,1.293,24.012
1747667653.77,-0.196,0.164,-0.021,0.896,0.304,0.181,5.944,1.420,24.089
1747667653.78,-0.042,0.075,-0.068,0.853,0.310,0.194,6.448,1.593,24.760
1747667653.79,0.142,-0.029,-0.132,0.780,0.097,0.198,6.918,1.702,24.857
1747667653.80,0.260,-0.113,-0.205,0.713,-0.170,0.261,7.347,1.667,25.536
1747667653.81,0.278,-0.154,-0.216,0.631,-0.403,0.355,7.736,1.476,25.701
1747667653.82,0.199,-0.133,-0.157,0.564,-0.459,0.466,8.082,1.194,26.475
1747667653.83,0.074,-0.035,-0.088,0.497,-0.417,0.519,8.391,0.900,26.756
1747667653.84,-0.048,0.028,-0.085,0.495,-0.294,0.585,8.675,0.650,27.611
1747667653.85,-0.143,0.025,-0.014,0.526,-0.083,0.652,8.971,0.483,27.965
1747667653.86,-0.157,0.042,0.042,0.538,0.143,0.725,9.277,0.442,28.903
1747667653.87,-0.113,0.068,-0.028,0.542,0.211,0.697,9.590,0.479,29.315
1747667653.88,-0.076,0.051,-0.090,0.508,0.229,0.643,9.893,0.541,29.701
1747667653.88,-0.022,-0.009,-0.100,0.471,0.202,0.608,10.176,0.603,30.059
1747667653.90,0.012,-0.048,-0.088,0.411,0.168,0.620,10.431,0.645,30.413
1747667653.90,0.068,-0.042,-0.104,0.362,0.089,0.597,10.657,0.658,30.766
1747667653.91,0.107,-0.040,-0.160,0.331,-0.155,0.501,10.858,0.582,31.065
1747667653.92,0.131,-0.074,-0.169,0.283,-0.329,0.669,11.035,0.377,31.403
1747667653.94,0.095,-0.017,-0.133,0.255,-0.365,0.796,11.191,0.089,31.830
1747667653.95,-0.008,0.092,-0.063,0.239,-0.279,0.875,11.330,-0.197,32.318
1747667653.95,-0.107,0.149,0.011,0.290,-0.162,0.999,11.474,-0.417,32.858
1747667653.96,-0.123,0.082,-0.040,0.214,0.111,1.052,11.629,-0.556,33.482
1747667653.97,-0.197,0.029,0.039,0.175,0.185,0.941,11.729,-0.592,34.061
1747667653.98,-0.169,-0.005,-0.040,0.127,0.353,0.913,11.813,-0.546,34.601
1747667653.99,0.027,-0.098,-0.074,0.054,0.320,0.950,11.858,-0.456,35.143
1747667654.00,0.116,-0.099,-0.129,0.055,0.132,0.828,11.882,-0.437,35.678
1747667654.01,0.174,-0.031,-0.119,0.057,0.105,0.990,11.914,-0.481,36.203
1747667654.02,0.170,0.053,-0.088,0.023,0.094,1.008,11.929,-0.543,36.798
1747667654.03,0.003,0.100,-0.081,0.052,0.120,0.827,11.944,-0.596,37.332
1747667654.04,-0.103,0.098,-0.049,0.052,0.194,0.743,11.970,-0.601,37.794
1747667654.05,-0.150,0.068,-0.020,0.049,0.259,0.557,11.994,-0.551,38.182
1747667654.06,-0.128,0.065,-0.034,0.020,0.207,0.402,12.014,-0.471,38.456
1747667654.07,-0.082,0.036,-0.069,-0.082,0.123,0.357,11.997,-0.424,38.676
1747667654.08,-0.031,-0.025,-0.052,-0.135,0.094,0.375,11.928,-0.409,38.887
1747667654.09,0.056,-0.052,-0.044,-0.085,0.099,0.380,11.862,-0.399,39.108
1747667654.10,0.093,-0.035,-0.106,-0.093,0.040,0.388,11.814,-0.406,39.327
1747667654.11,0.033,0.022,-0.120,-0.110,0.076,0.461,11.753,-0.429,39.577
1747667654.12,-0.016,0.062,-0.077,-0.132,0.135,0.401,11.682,-0.417,39.832
1747667654.13,-0.080,0.028,-0.069,-0.170,0.166,0.300,11.593,-0.374,40.038
1747667654.14,-0.103,-0.088,-0.027,-0.204,0.205,0.203,11.486,-0.294,40.178
1747667654.15,-0.053,-0.131,-0.035,-0.239,0.132,0.182,11.358,-0.218,40.291
1747667654.16,-0.046,-0.033,-0.087,-0.230,0.001,0.026,11.223,-0.192,40.354
1747667654.17,-0.005,-0.002,-0.064,-0.245,-0.045,0.034,11.086,-0.210,40.367
1747667654.18,0.063,0.054,-0.052,-0.221,-0.121,0.013,10.953,-0.259,40.385
1747667654.19,-0.000,0.080,-0.088,-0.223,-0.124,-0.028,10.827,-0.336,40.374
1747667654.20,0.005,0.000,-0.065,-0.229,-0.046,-0.019,10.699,-0.383,40.357
1747667654.21,0.045,-0.080,-0.028,-0.253,0.014,0.007,10.562,-0.391,40.354
1747667654.22,0.079,-0.116,0.008,-0.297,0.105,0.123,10.405,-0.363,40.387
1747667654.23,0.119,-0.099,0.016,-0.359,0.115,0.225,10.218,-0.314,40.488
1747667654.24,0.096,-0.076,-0.040,-0.405,0.088,0.290,9.997,-0.284,40.639
1747667654.25,0.065,-0.087,-0.030,-0.422,0.152,0.330,9.760,-0.247,40.820
1747667654.26,0.070,-0.079,0.003,-0.453,0.197,0.363,9.510,-0.179,41.019
1747667654.27,0.049,-0.041,-0.049,-0.492,0.206,0.382,9.238,-0.102,41.235
1747667654.28,-0.001,0.007,-0.081,-0.493,0.265,0.370,8.955,-0.004,41.455
1747667654.29,-0.058,0.089,-0.079,-0.527,0.310,0.265,8.667,0.133,41.639
1747667654.30,-0.095,0.122,-0.085,-0.593,0.307,0.177,8.347,0.293,41.771
1747667654.31,-0.121,0.089,-0.103,-0.630,0.239,0.036,7.998,0.439,41.832
1747667654.32,-0.102,-0.004,-0.115,-0.672,0.180,-0.089,7.627,0.559,41.819
1747667654.33,-0.046,-0.096,-0.075,-0.710,0.112,-0.176,7.231,0.654,41.745
1747667654.34,0.029,-0.129,-0.105,-0.743,0.006,-0.218,6.814,0.701,41.635
1747667654.35,0.081,-0.105,-0.157,-0.770,-0.089,-0.278,6.379,0.692,41.498
1747667654.36,0.051,-0.008,-0.125,-0.747,-0.118,-0.372,5.942,0.650,41.321
1747667654.37,-0.033,0.115,-0.110,-0.737,-0.133,-0.500,5.517,0.602,41.071
1747667654.38,-0.106,0.188,-0.101,-0.741,-0.140,-0.614,5.092,0.551,41.008
1747667654.39,-0.148,0.181,-0.062,-0.739,-0.106,-0.697,4.667,0.511,40.633
1747667654.40,-0.106,0.073,-0.055,-0.781,-0.015,-0.630,4.232,0.507,40.761
1747667654.41,0.004,-0.086,-0.108,-0.843,-0.016,-0.441,3.765,0.523,40.460
1747667654.42,0.044,-0.192,-0.118,-0.904,-0.033,-0.321,3.264,0.521,40.743
1747667654.43,0.046,-0.201,-0.041,-0.936,-0.014,-0.179,2.735,0.515,40.603
1747667654.44,0.045,-0.140,-0.041,-0.985,-0.004,-0.035,2.187,0.514,41.037
1747667654.45,-0.000,-0.048,-0.064,-1.008,0.029,0.019,1.614,0.519,41.040
1747667654.46,-0.056,0.030,-0.040,-1.010,0.104,0.077,1.040,0.556,41.538
1747667654.47,-0.106,0.059,-0.071,-1.040,0.144,0.122,0.456,0.627,41.602
1747667654.48,-0.157,0.042,-0.116,-1.080,0.173,0.154,-0.148,0.716,42.162
1747667654.49,-0.136,-0.014,-0.099,-1.135,0.253,0.201,-0.779,0.837,42.272
1747667654.50,-0.045,-0.069,-0.067,-1.190,0.327,0.248,-1.441,1.006,42.878
1747667654.51,0.021,-0.089,-0.047,-1.218,0.364,0.250,-2.127,1.212,43.036
1747667654.52,0.035,-0.081,-0.045,-1.210,0.339,0.217,-2.818,1.422,43.648
1747667654.53,0.024,-0.052,-0.048,-1.188,0.280,0.171,-3.500,1.605,43.778
1747667654.54,-0.001,-0.013,-0.025,-1.188,0.287,0.128,-4.174,1.772,44.320
1747667654.55,-0.040,0.022,-0.024,-1.205,0.332,0.112,-4.857,1.956,44.410
1747667654.56,-0.099,0.043,-0.084,-1.198,0.376,0.101,-5.541,2.164,44.923
1747667654.57,-0.167,0.052,-0.096,-1.207,0.485,0.111,-6.225,2.417,45.011
1747667654.58,-0.173,0.045,-0.091,-1.234,0.601,0.109,-6.917,2.741,45.522
1747667654.59,-0.137,0.035,-0.083,-1.277,0.691,0.069,-7.632,3.122,45.611
1747667654.60,-0.072,0.021,-0.039,-1.283,0.692,0.040,-8.361,3.534,46.101
1747667654.61,-0.004,0.020,-0.040,-1.293,0.540,0.027,-9.093,3.900,46.168
1747667654.62,0.027,0.031,-0.088,-1.279,0.301,-0.004,-9.828,4.151,46.629
1747667654.63,0.027,0.056,-0.068,-1.235,0.128,-0.096,-10.546,4.273,46.656
1747667654.64,-0.004,0.104,-0.002,-1.234,0.109,-0.211,-11.255,4.329,47.000
1747667654.65,-0.050,0.161,0.006,-1.241,0.160,-0.278,-11.969,4.387,46.910
1747667654.66,-0.084,0.182,-0.019,-1.270,0.299,-0.260,-12.696,4.490,47.189
1747667654.67,-0.082,0.154,0.012,-1.262,0.505,-0.202,-13.429,4.704,47.112
1747667654.68,-0.069,0.099,0.002,-1.240,0.615,-0.139,-14.148,5.018,47.437
1747667654.69,-0.051,0.027,-0.059,-1.249,0.664,-0.088,-14.861,5.385,47.438
1747667654.70,-0.002,-0.050,-0.060,-1.274,0.687,-0.088,-15.582,5.777,47.645
1747667654.71,0.038,-0.105,-0.039,-1.299,0.689,-0.136,-16.320,6.176,47.660
1747667654.72,0.050,-0.136,-0.019,-1.344,0.616,-0.186,-17.079,6.548,47.650
1747667654.73,0.034,-0.138,-0.010,-1.386,0.569,-0.219,-17.868,6.878,47.626
1747667654.74,0.002,-0.115,0.006,-1.406,0.542,-0.226,-18.676,7.185,47.595
1747667654.75,-0.020,-0.077,-0.001,-1.395,0.545,-0.200,-19.484,7.488,47.575
1747667654.76,-0.015,-0.042,-0.018,-1.397,0.592,-0.137,-20.288,7.816,47.585
1747667654.77,0.007,-0.001,-0.014,-1.382,0.585,-0.084,-21.084,8.174,47.638
1747667654.78,-0.004,0.036,-0.028,-1.339,0.541,-0.094,-21.860,8.520,47.709
1747667654.79,-0.026,0.046,-0.003,-1.315,0.555,-0.161,-22.619,8.848,47.755
1747667654.80,-0.023,0.022,0.033,-1.339,0.555,-0.213,-23.384,9.173,47.767
1747667654.81,-0.011,-0.035,0.002,-1.372,0.500,-0.201,-24.167,9.478,47.774
1747667654.82,0.020,-0.094,-0.019,-1.420,0.471,-0.156,-24.969,9.769,47.810
1747667654.83,0.085,-0.133,0.007,-1.445,0.433,-0.122,-25.790,10.058,47.880
1747667654.84,0.121,-0.130,0.003,-1.468,0.331,-0.105,-26.620,10.321,47.974
1747667654.85,0.112,-0.093,-0.023,-1.452,0.181,-0.099,-27.453,10.515,48.079
1747667654.86,0.084,-0.052,-0.023,-1.418,0.105,-0.080,-28.267,10.644,48.192
1747667654.87,0.070,-0.023,-0.023,-1.387,0.169,-0.094,-29.065,10.776,48.309
1747667654.88,0.040,-0.030,-0.009,-1.321,0.252,-0.152,-29.837,10.939,48.398
1747667654.89,-0.018,-0.077,0.048,-1.304,0.362,-0.194,-30.592,11.143,48.450
1747667654.90,-0.056,-0.149,0.045,-1.341,0.314,-0.154,-31.349,11.371,48.502
1747667654.91,-0.071,-0.211,-0.041,-1.448,0.230,-0.013,-32.141,11.590,48.631
1747667654.92,-0.011,-0.231,-0.016,-1.529,0.234,0.095,-32.967,11.847,48.866
1747667654.93,0.060,-0.176,0.030,-1.598,0.205,0.125,-33.829,12.139,49.166
1747667654.94,0.088,-0.076,0.045,-1.592,0.146,0.120,-34.706,12.420,49.485
1747667654.95,0.098,0.032,0.047,-1.568,0.092,0.094,-35.574,12.668,49.799
1747667654.96,0.084,0.124,0.002,-1.530,-0.014,0.027,-36.431,12.860,50.085
1747667654.97,0.064,0.156,-0.030,-1.461,-0.112,-0.028,-37.262,12.963,50.321
1747667654.98,0.053,0.120,-0.005,-1.458,-0.134,-0.049,-38.079,13.016,50.530
1747667654.99,0.019,0.059,0.021,-1.416,-0.159,-0.083,-38.889,13.056,50.722
1747667655.00,-0.084,0.019,-0.011,-1.390,-0.181,-0.106,-39.680,13.058,50.883
1747667655.01,-0.162,-0.003,-0.013,-1.402,-0.117,-0.078,-40.469,13.079,51.051
1747667655.02,-0.188,-0.008,-0.021,-1.397,-0.011,-0.034,-41.255,13.171,51.249
1747667655.03,-0.186,-0.007,-0.041,-1.403,0.109,-0.020,-42.036,13.348,51.475
1747667655.04,-0.146,-0.010,-0.025,-1.418,0.170,-0.036,-42.823,13.590,51.709
1747667655.05,-0.103,-0.014,-0.012,-1.427,0.159,-0.070,-43.620,13.839,51.934
1747667655.06,-0.062,-0.016,0.009,-1.425,0.154,-0.128,-44.424,14.067,52.133
1747667655.07,-0.031,-0.002,0.033,-1.409,0.124,-0.196,-45.233,14.254,52.283
1747667655.08,-0.019,0.025,0.026,-1.392,0.055,-0.205,-46.036,14.394,52.407
1747667655.09,-0.032,0.054,0.018,-1.405,-0.007,-0.230,-46.841,14.492,52.524
1747667655.10,-0.072,0.079,0.001,-1.371,-0.032,-0.246,-47.645,14.550,52.623
1747667655.11,-0.124,0.080,-0.025,-1.305,0.013,-0.268,-48.420,14.599,52.699
1747667655.12,-0.166,0.061,-0.031,-1.299,0.106,-0.277,-49.178,14.672,52.753
1747667655.13,-0.175,0.017,-0.087,-1.340,0.205,-0.289,-49.947,14.805,52.808
1747667655.14,-0.177,-0.039,-0.093,-1.331,0.259,-0.342,-50.732,14.966,52.844
1747667655.15,-0.170,-0.070,-0.023,-1.313,0.343,-0.394,-51.515,15.128,52.833
1747667655.16,-0.144,-0.066,0.042,-1.307,0.400,-0.437,-52.300,15.302,52.780
1747667655.17,-0.123,-0.033,0.027,-1.300,0.403,-0.462,-53.086,15.467,52.696
1747667655.18,-0.099,-0.004,0.022,-1.298,0.382,-0.478,-53.873,15.609,52.595
1747667655.19,-0.062,0.016,0.016,-1.295,0.350,-0.472,-54.658,15.731,52.489
1747667655.20,-0.011,0.024,-0.010,-1.281,0.308,-0.465,-55.441,15.842,52.392
1747667655.21,0.029,0.022,-0.033,-1.269,0.233,-0.482,-56.215,15.906,52.283
1747667655.22,0.044,0.020,-0.040,-1.296,0.168,-0.507,-56.996,15.911,52.153
1747667655.23,0.034,0.015,-0.017,-1.296,0.167,-0.537,-57.791,15.875,51.999
1747667655.24,0.003,0.007,0.019,-1.293,0.177,-0.572,-58.589,15.806,51.802
1747667655.25,-0.040,-0.001,0.040,-1.277,0.230,-0.593,-59.386,15.716,51.565
1747667655.26,-0.057,-0.021,0.040,-1.246,0.345,-0.573,-60.170,15.662,51.313
1747667655.27,-0.051,-0.050,0.007,-1.220,0.457,-0.541,-60.934,15.687,51.075
1747667655.28,-0.052,-0.079,-0.020,-1.233,0.498,-0.505,-61.688,15.780,50.870
1747667655.29,-0.036,-0.108,-0.002,-1.258,0.539,-0.443,-62.447,15.949,50.727
1747667655.30,0.014,-0.114,0.026,-1.257,0.569,-0.397,-63.205,16.208,50.660
1747667655.31,0.052,-0.082,0.026,-1.247,0.539,-0.405,-63.955,16.492,50.622
1747667655.32,0.075,-0.032,0.029,-1.257,0.497,-0.420,-64.708,16.741,50.570
1747667655.33,0.104,0.010,0.050,-1.257,0.453,-0.422,-65.465,16.967,50.519
1747667655.34,0.105,0.036,0.059,-1.212,0.434,-0.438,-66.213,17.162,50.455
1747667655.35,0.088,0.037,0.046,-1.166,0.401,-0.467,-66.936,17.294,50.337
1747667655.36,0.081,0.010,0.033,-1.175,0.375,-0.465,-67.653,17.377,50.189
1747667655.37,0.090,-0.033,0.034,-1.173,0.347,-0.436,-68.372,17.476,50.072
1747667655.38,0.102,-0.066,0.001,-1.175,0.273,-0.399,-69.082,17.584,49.997
1747667655.39,0.107,-0.073,-0.007,-1.177,0.190,-0.355,-69.788,17.715,49.792
1747667655.40,0.089,-0.052,-0.009,-1.163,0.109,-0.358,-70.486,17.836,49.830
1747667655.41,0.047,-0.028,-0.024,-1.112,0.096,-0.370,-71.171,17.896,49.624
1747667655.42,0.010,-0.009,0.009,-1.050,0.197,-0.377,-71.823,17.935,49.578
1747667655.43,-0.031,0.002,0.048,-1.063,0.323,-0.381,-72.461,18.015,49.282
1747667655.44,-0.078,-0.012,0.041,-1.098,0.448,-0.406,-73.119,18.175,49.216
1747667655.45,-0.107,-0.053,0.022,-1.099,0.499,-0.380,-73.789,18.385,48.892
1747667655.46,-0.093,-0.079,-0.008,-1.083,0.544,-0.323,-74.442,18.708,48.917
1747667655.47,-0.039,-0.079,0.021,-1.079,0.544,-0.290,-75.082,19.158,48.793
1747667655.48,0.007,-0.043,0.053,-1.076,0.558,-0.291,-75.716,19.650,48.977
1747667655.49,0.047,0.016,0.075,-1.073,0.614,-0.308,-76.352,20.185,48.889
1747667655.50,0.059,0.048,0.068,-1.057,0.598,-0.365,-76.987,20.674,49.031
1747667655.51,0.038,0.041,0.056,-1.030,0.469,-0.360,-77.621,21.057,48.812
1747667655.52,0.040,0.008,0.011,-0.985,0.380,-0.310,-78.225,21.434,48.950
1747667655.53,0.057,-0.028,-0.031,-1.012,0.342,-0.270,-78.814,21.922,48.924
1747667655.54,0.052,-0.043,-0.006,-1.051,0.386,-0.281,-79.420,22.529,49.332
1747667655.55,0.057,-0.030,0.023,-1.018,0.400,-0.271,-80.030,23.222,49.488
1747667655.56,0.049,0.017,-0.017,-0.934,0.361,-0.271,-80.602,23.918,49.974
1747667655.57,0.037,0.039,-0.046,-0.863,0.327,-0.267,-81.131,24.536,50.058
1747667655.58,0.022,0.052,-0.014,-0.862,0.367,-0.228,-81.635,25.237,50.572
1747667655.59,0.012,0.022,0.085,-0.899,0.520,-0.209,-82.142,26.234,50.987
1747667655.60,0.002,-0.055,0.140,-0.891,0.677,-0.233,-82.657,27.472,51.883
1747667655.61,-0.051,-0.100,0.075,-0.854,0.596,-0.256,-83.163,28.751,52.450
1747667655.62,-0.135,-0.112,-0.020,-0.767,0.412,-0.262,-83.640,29.874,53.289
1747667655.63,-0.177,-0.085,-0.084,-0.696,0.312,-0.264,-84.074,30.830,53.682
1747667655.64,-0.172,-0.045,-0.050,-0.660,0.451,-0.295,-84.488,31.690,54.334
1747667655.65,-0.126,0.003,0.046,-0.623,0.627,-0.330,-84.893,32.476,54.631
1747667655.66,-0.093,0.027,0.053,-0.581,0.630,-0.383,-85.291,33.006,54.796
1747667655.67,-0.075,0.039,-0.023,-0.515,0.601,-0.424,-85.680,33.068,54.509
1747667655.68,-0.041,0.051,-0.044,-0.470,0.575,-0.424,-86.046,32.671,53.772
1747667655.69,0.007,0.023,-0.019,-0.523,0.522,-0.410,-86.411,32.208,52.994
1747667655.70,0.044,-0.001,0.027,-0.608,0.493,-0.369,-86.805,32.211,52.710
1747667655.71,0.078,-0.023,0.045,-0.627,0.594,-0.327,-87.212,33.004,53.197
1747667655.72,0.091,-0.054,0.062,-0.610,0.663,-0.311,-87.607,34.338,54.168
1747667655.73,0.074,-0.070,0.051,-0.616,0.613,-0.288,-87.992,36.330,55.793
1747667655.74,0.082,-0.064,0.004,-0.581,0.563,-0.254,-88.358,39.440,58.569
1747667655.75,0.112,-0.049,-0.033,-0.549,0.516,-0.229,-88.691,44.103,62.926
1747667655.76,0.124,-0.004,-0.057,-0.522,0.418,-0.225,-88.992,51.286,69.839
1747667655.77,0.125,0.029,-0.088,-0.486,0.315,-0.233,-89.261,62.661,81.007
1747667655.78,0.130,0.051,-0.099,-0.435,0.198,-0.242,-89.474,81.929,100.129
1747667655.79,0.135,0.033,-0.116,-0.361,0.111,-0.224,-89.583,111.594,129.706
1747667655.80,0.133,-0.019,-0.118,-0.296,0.128,-0.204,-89.568,142.473,160.519
1747667655.81,0.117,0.020,-0.094,-0.230,0.127,-0.151,-89.483,161.995,179.966
1747667655.82,0.080,-0.012,-0.102,-0.197,0.118,-0.089,-89.382,171.531,-170.569
1747667655.83,0.039,-0.022,-0.090,-0.217,0.024,-0.054,-89.270,175.972,-166.172
1747667655.84,-0.024,-0.019,-0.045,-0.263,-0.162,-0.051,-89.135,178.502,-163.603
1747667655.85,-0.074,-0.023,0.002,-0.292,-0.257,-0.061,-88.975,-179.591,-161.570
1747667655.86,-0.089,-0.039,0.053,-0.247,-0.227,-0.078,-88.819,-177.818,-159.659
1747667655.87,-0.098,-0.049,0.059,-0.188,-0.161,-0.096,-88.692,-175.943,-157.671
1747667655.88,-0.102,-0.034,0.046,-0.122,-0.030,-0.125,-88.597,-173.706,-155.377
1747667655.89,-0.102,-0.001,0.045,-0.002,0.124,-0.180,-88.547,-170.425,-152.123
1747667655.90,-0.117,-0.022,0.005,0.169,0.224,-0.245,-88.569,-165.318,-147.114
1747667655.91,-0.143,-0.097,-0.058,0.177,0.312,-0.308,-88.619,-157.507,-139.454
1747667655.92,-0.162,0.088,0.001,0.063,0.316,-0.214,-88.612,-150.319,-132.451
1747667655.93,-0.177,0.172,0.044,0.016,0.169,-0.129,-88.580,-146.486,-128.755
1747667655.94,-0.210,0.059,0.011,-0.007,0.127,-0.122,-88.542,-144.031,-126.378
1747667655.95,-0.148,-0.007,-0.000,-0.033,0.246,-0.117,-88.491,-142.069,-124.516
1747667655.96,-0.025,-0.038,0.026,-0.060,0.464,-0.084,-88.434,-140.763,-123.412
1747667655.97,0.095,-0.046,0.080,-0.089,0.634,-0.023,-88.381,-140.550,-123.516
1747667655.98,0.163,-0.029,0.096,-0.108,0.643,0.022,-88.337,-141.473,-124.810
1747667655.99,0.172,0.000,0.061,-0.122,0.520,0.040,-88.296,-142.980,-126.654
1747667656.00,0.162,0.013,0.016,-0.127,0.332,0.078,-88.258,-145.023,-128.942
1747667656.01,0.137,-0.003,-0.011,-0.107,0.143,0.115,-88.232,-147.602,-131.658
1747667656.02,0.097,-0.032,-0.012,-0.079,-0.048,0.122,-88.223,-150.386,-134.471
1747667656.03,0.051,-0.043,-0.010,-0.060,-0.219,0.086,-88.217,-152.782,-136.791
1747667656.04,0.009,-0.024,-0.009,-0.041,-0.329,0.031,-88.206,-154.333,-138.183
1747667656.05,-0.023,0.002,-0.009,-0.010,-0.343,-0.013,-88.195,-154.840,-138.495
1747667656.06,-0.031,0.008,0.006,-0.012,-0.253,-0.022,-88.186,-154.801,-138.280
1747667656.07,-0.034,0.001,0.035,-0.037,-0.120,-0.012,-88.170,-154.815,-138.189
1747667656.08,-0.062,-0.006,0.043,-0.041,-0.040,-0.005,-88.149,-155.037,-138.370
1747667656.09,-0.113,0.001,0.012,-0.016,-0.058,0.003,-88.133,-155.291,-138.596
1747667656.10,-0.152,0.010,-0.036,0.012,-0.029,0.010,-88.133,-155.417,-138.695
1747667656.11,-0.162,0.008,-0.036,0.029,0.021,0.022,-88.148,-155.512,-138.790
1747667656.12,-0.159,0.002,-0.026,0.036,0.053,0.016,-88.170,-155.589,-138.888
1747667656.13,-0.134,0.005,-0.011,0.032,0.115,0.000,-88.189,-155.428,-138.774
1747667656.14,-0.081,0.011,0.002,0.035,0.176,-0.009,-88.205,-154.975,-138.405
1747667656.15,-0.016,0.013,-0.000,0.032,0.223,0.004,-88.220,-154.496,-138.039
1747667656.16,0.049,0.007,0.015,0.037,0.298,0.020,-88.238,-154.236,-137.928
1747667656.17,0.088,-0.002,0.038,0.085,0.320,0.014,-88.269,-153.774,-137.646
1747667656.18,0.072,-0.004,0.021,0.159,0.284,-0.017,-88.330,-152.316,-136.361
1747667656.19,0.023,0.000,-0.004,0.227,0.236,-0.041,-88.416,-149.467,-133.659
1747667656.20,-0.012,0.000,-0.024,0.274,0.201,-0.038,-88.523,-145.438,-129.753
1747667656.21,-0.035,0.002,-0.018,0.275,0.112,-0.032,-88.634,-140.664,-125.070
1747667656.22,-0.061,0.004,-0.014,0.247,0.019,-0.021,-88.732,-135.659,-120.097
1747667656.23,-0.055,-0.004,-0.004,0.248,0.048,0.009,-88.825,-130.752,-115.204
1747667656.24,-0.022,-0.021,0.019,0.268,0.137,0.029,-88.926,-125.218,-109.723
1747667656.25,0.007,-0.036,0.029,0.250,0.180,0.037,-89.024,-118.910,-103.507
1747667656.26,0.029,-0.051,0.035,0.216,0.193,0.048,-89.105,-112.319,-97.022
1747667656.27,0.051,-0.060,0.035,0.196,0.165,0.068,-89.177,-105.701,-90.506
1747667656.28,0.060,-0.051,0.025,0.192,0.107,0.075,-89.239,-98.458,-83.343
1747667656.29,0.060,-0.028,0.006,0.187,0.017,0.086,-89.292,-90.313,-75.232
1747667656.30,0.052,0.004,-0.008,0.191,-0.081,0.080,-89.333,-81.123,-66.024
1747667656.31,0.023,0.048,-0.013,0.206,-0.196,0.051,-89.342,-70.892,-55.714
1747667656.32,-0.005,0.079,-0.031,0.200,-0.242,0.028,-89.313,-61.118,-45.808
1747667656.33,-0.006,0.056,0.000,0.178,-0.161,0.024,-89.267,-53.287,-37.857
1747667656.34,0.001,0.003,0.052,0.185,-0.088,0.012,-89.209,-46.859,-31.360
1747667656.35,-0.013,-0.034,0.049,0.201,-0.069,-0.009,-89.130,-41.562,-26.019
1747667656.36,-0.021,-0.048,0.038,0.190,-0.061,-0.010,-89.039,-37.435,-21.855
1747667656.37,-0.010,-0.046,0.036,0.172,-0.063,0.007,-88.964,-33.684,-18.068
1747667656.38,0.000,-0.028,0.032,0.172,-0.119,0.027,-88.893,-30.152,-14.488
1747667656.39,0.002,0.008,0.024,0.212,-0.244,0.036,-88.808,-26.707,-10.941
1747667656.40,0.003,0.043,-0.000,0.290,-0.348,0.053,-88.687,-23.089,-7.149
1747667656.41,0.013,0.046,-0.009,0.368,-0.350,0.082,-88.524,-19.043,-2.901
1747667656.42,0.023,0.012,0.004,0.415,-0.277,0.113,-88.325,-14.879,1.447
1747667656.43,0.008,-0.028,0.011,0.411,-0.160,0.128,-88.108,-11.120,5.333
1747667656.44,-0.015,-0.054,0.011,0.371,-0.106,0.134,-87.900,-7.991,8.535
1747667656.45,-0.039,-0.054,-0.006,0.324,-0.155,0.133,-87.713,-5.499,11.101
1747667656.46,-0.049,-0.022,-0.025,0.340,-0.234,0.135,-87.532,-3.431,13.283
1747667656.47,-0.032,0.014,-0.012,0.379,-0.242,0.139,-87.331,-1.608,15.248
1747667656.48,-0.009,0.043,0.036,0.439,-0.199,0.109,-87.100,-0.201,16.783
1747667656.49,-0.003,0.064,0.046,0.529,-0.160,0.073,-86.823,0.678,17.763
1747667656.50,-0.011,0.062,0.012,0.579,-0.178,0.038,-86.504,1.030,18.211
1747667656.51,-0.017,0.037,-0.011,0.592,-0.179,0.024,-86.169,1.093,18.380
1747667656.52,-0.005,-0.003,0.007,0.594,-0.124,0.034,-85.832,1.137,18.511
1747667656.53,0.010,-0.042,0.020,0.632,-0.084,0.057,-85.483,1.314,18.746
1747667656.54,0.015,-0.056,0.006,0.661,-0.090,0.110,-85.111,1.721,19.203
1747667656.55,-0.009,-0.039,0.024,0.627,-0.129,0.170,-84.739,2.417,19.964
1747667656.56,-0.064,-0.023,0.056,0.621,-0.121,0.180,-84.381,3.220,20.844
1747667656.57,-0.091,-0.027,0.081,0.638,-0.057,0.160,-84.015,3.910,21.591
1747667656.58,-0.074,-0.033,0.092,0.618,0.041,0.142,-83.650,4.452,22.139
1747667656.59,-0.031,-0.026,0.066,0.600,0.059,0.128,-83.299,4.905,22.562
1747667656.60,-0.007,0.002,0.002,0.614,-0.012,0.111,-82.948,5.237,22.882
1747667656.61,-0.006,0.034,-0.027,0.609,-0.043,0.095,-82.594,5.418,23.084
1747667656.62,0.013,0.039,0.018,0.642,0.021,0.096,-82.236,5.559,23.235
1747667656.63,0.033,0.022,0.060,0.716,0.062,0.108,-81.844,5.721,23.372
1747667656.64,0.018,0.003,0.063,0.773,0.052,0.130,-81.414,5.914,23.533
1747667656.65,-0.016,-0.010,0.052,0.781,-0.011,0.153,-80.962,6.150,23.756
1747667656.66,-0.059,-0.003,0.016,0.778,-0.157,0.159,-80.512,6.350,24.007
1747667656.67,-0.100,0.017,-0.044,0.758,-0.220,0.161,-80.063,6.479,24.252
1747667656.68,-0.104,0.023,-0.039,0.642,-0.118,0.132,-79.655,6.597,24.476
1747667656.69,-0.071,0.007,0.022,0.600,0.052,0.082,-79.301,6.689,24.589
1747667656.70,-0.019,-0.026,0.039,0.646,0.169,0.044,-78.944,6.719,24.549
1747667656.71,0.032,-0.041,0.036,0.662,0.135,0.046,-78.568,6.707,24.442
1747667656.72,0.046,-0.031,0.038,0.716,-0.062,0.091,-78.176,6.697,24.406
1747667656.73,0.049,-0.001,-0.020,0.849,-0.274,0.155,-77.725,6.673,24.486
1747667656.74,0.086,0.040,-0.050,0.866,-0.208,0.190,-77.218,6.719,24.309
1747667656.75,0.122,0.071,0.071,0.734,-0.034,0.170,-76.751,6.865,24.528
1747667656.76,0.052,0.065,0.108,0.697,0.084,0.106,-76.340,7.007,24.303
1747667656.77,-0.069,0.010,0.033,0.683,0.055,0.059,-75.941,7.036,24.287
1747667656.78,-0.147,-0.043,-0.037,0.611,-0.022,0.085,-75.568,7.014,23.912
1747667656.79,-0.133,-0.070,-0.039,0.568,-0.040,0.150,-75.229,7.095,24.016
1747667656.80,-0.045,-0.059,-0.016,0.596,-0.023,0.174,-74.891,7.272,23.873
1747667656.81,0.055,-0.020,-0.004,0.766,-0.027,0.146,-74.499,7.418,24.037
1747667656.82,0.117,0.029,-0.032,0.953,-0.113,0.063,-73.999,7.367,23.692
1747667656.83,0.106,0.056,-0.055,0.993,-0.203,-0.005,-73.443,7.082,23.492
1747667656.84,0.058,0.039,-0.012,1.045,-0.251,-0.042,-72.867,6.665,22.892
1747667656.85,0.019,0.014,-0.036,1.020,-0.186,0.011,-72.278,6.284,22.630
1747667656.86,-0.023,-0.012,0.033,0.898,-0.031,0.091,-71.730,6.131,22.242
1747667656.87,-0.057,-0.046,0.075,0.766,0.099,0.173,-71.251,6.222,22.316
1747667656.88,-0.084,-0.074,0.051,0.685,0.194,0.269,-70.829,6.540,22.298
1747667656.89,-0.105,-0.070,0.069,0.690,0.185,0.341,-70.420,7.014,22.680
1747667656.90,-0.091,-0.033,0.069,0.739,0.110,0.380,-69.991,7.529,22.873
1747667656.91,-0.012,0.018,0.050,0.838,0.075,0.342,-69.518,7.977,23.295
1747667656.92,0.066,0.057,0.022,0.935,-0.001,0.228,-68.993,8.245,23.296
1747667656.93,0.077,0.074,0.005,1.064,-0.169,0.082,-68.417,8.211,23.311
1747667656.94,0.029,0.078,0.010,1.160,-0.303,-0.022,-67.780,7.881,22.872
1747667656.95,-0.040,0.065,0.083,1.040,-0.247,-0.062,-67.155,7.454,22.584
1747667656.96,-0.144,0.040,0.127,0.948,-0.182,-0.063,-66.601,7.077,22.079
1747667656.97,-0.238,0.005,-0.021,0.896,-0.067,0.024,-66.078,6.823,21.884
1747667656.98,-0.237,-0.033,-0.035,0.760,0.083,0.192,-65.601,6.838,21.691
1747667656.99,-0.193,-0.053,0.074,0.684,0.211,0.333,-65.178,7.147,21.938
1747667657.00,-0.078,-0.062,0.113,0.751,0.266,0.409,-64.749,7.627,22.133
1747667657.01,0.105,-0.045,0.071,0.871,0.146,0.398,-64.258,8.106,22.528
1747667657.02,0.273,-0.006,0.018,1.042,-0.056,0.325,-63.689,8.394,22.816
1747667657.03,0.350,0.024,-0.020,1.181,-0.346,0.255,-63.033,8.425,22.974
1747667657.04,0.307,0.047,-0.083,1.173,-0.635,0.131,-62.346,8.165,23.004
1747667657.05,0.167,0.044,-0.086,1.083,-0.551,0.025,-61.702,7.719,22.902
1747667657.06,0.008,-0.000,0.036,0.989,-0.170,0.001,-61.115,7.380,22.752
1747667657.07,-0.176,-0.036,0.049,0.938,0.020,0.008,-60.571,7.225,22.612
1747667657.08,-0.342,-0.059,-0.094,0.875,-0.042,0.055,-60.051,7.135,22.512
1747667657.09,-0.345,-0.078,-0.077,0.757,-0.064,0.185,-59.582,7.112,22.526
1747667657.09,-0.160,-0.094,0.065,0.779,0.015,0.374,-59.133,7.270,22.728
1747667657.11,0.080,-0.086,0.098,0.884,0.025,0.475,-58.632,7.592,23.087
1747667657.11,0.233,-0.028,0.029,0.987,-0.057,0.394,-58.068,7.881,23.434
1747667657.12,0.280,0.035,-0.048,1.094,-0.222,0.208,-57.456,7.942,23.597
1747667657.14,0.250,0.058,-0.086,1.176,-0.375,0.082,-56.801,7.751,23.579
1747667657.14,0.140,0.045,-0.026,1.152,-0.269,0.039,-56.133,7.470,23.475
1747667657.15,-0.021,0.010,0.100,1.060,-0.057,0.046,-55.505,7.294,23.372
1747667657.16,-0.194,-0.026,0.058,1.017,0.014,0.079,-54.914,7.228,23.301
1747667657.17,-0.274,-0.060,-0.095,0.939,0.025,0.144,-54.350,7.227,23.286
1747667657.18,-0.213,-0.084,-0.061,0.888,0.090,0.205,-53.824,7.303,23.344
1747667657.19,-0.080,-0.083,0.019,0.927,0.136,0.234,-53.294,7.451,23.443
1747667657.20,0.038,-0.049,0.025,1.000,0.034,0.194,-52.735,7.573,23.530
1747667657.21,0.077,0.022,0.008,1.120,-0.152,0.087,-52.125,7.543,23.532
1747667657.22,0.068,0.098,-0.006,1.205,-0.339,-0.032,-51.464,7.310,23.417
1747667657.23,0.044,0.141,-0.004,1.251,-0.392,-0.101,-50.772,6.936,23.214
1747667657.24,-0.005,0.126,0.069,1.242,-0.261,-0.118,-50.070,6.564,22.981
1747667657.25,-0.086,0.058,0.121,1.242,-0.056,-0.059,-49.372,6.319,22.779
1747667657.26,-0.152,-0.019,0.004,1.170,0.016,0.006,-48.683,6.214,22.642
1747667657.27,-0.173,-0.075,-0.110,1.008,-0.057,0.050,-48.064,6.146,22.564
1747667657.28,-0.119,-0.118,-0.072,0.905,-0.068,0.116,-47.519,6.094,22.546
1747667657.29,-0.010,-0.134,0.013,0.868,-0.008,0.232,-47.006,6.120,22.609
1747667657.30,0.085,-0.088,0.061,0.862,0.008,0.204,-46.501,6.208,22.726
1747667657.31,0.117,0.028,0.031,0.885,-0.078,0.142,-45.997,6.233,22.787
1747667657.32,0.107,0.141,-0.014,0.935,-0.225,0.107,-45.474,6.160,22.808
1747667657.33,0.073,0.210,-0.003,1.051,-0.235,0.054,-44.908,6.009,22.790
1747667657.34,0.033,0.229,0.087,1.169,-0.131,-0.040,-44.275,5.842,22.705
1747667657.35,-0.007,0.203,0.138,1.192,-0.038,-0.112,-43.605,5.686,22.546
1747667657.36,-0.057,0.113,0.051,1.162,-0.100,-0.113,-42.941,5.530,22.364
1747667657.37,-0.094,-0.013,-0.123,1.070,-0.309,-0.060,-42.309,5.310,22.213
1747667657.38,-0.038,-0.127,-0.129,0.976,-0.355,-0.002,-41.731,5.049,22.119
1747667657.39,0.064,-0.206,0.006,0.962,-0.219,0.040,-41.183,4.850,22.072
1747667657.40,0.121,-0.230,0.075,0.998,-0.115,0.053,-40.622,4.743,22.047
1747667657.41,0.086,-0.171,0.033,0.994,-0.133,0.049,-40.052,4.660,22.024
1747667657.42,0.008,-0.062,-0.027,1.010,-0.205,0.031,-39.481,4.544,21.993
1747667657.43,-0.036,0.038,-0.019,1.085,-0.227,0.010,-38.886,4.390,21.951
1747667657.44,-0.039,0.104,0.066,1.155,-0.137,-0.053,-38.249,4.239,21.876
1747667657.45,-0.039,0.121,0.076,1.210,-0.100,-0.143,-37.578,4.093,21.742
1747667657.46,-0.055,0.067,-0.066,1.217,-0.185,-0.193,-36.892,3.905,21.559
1747667657.47,-0.073,-0.043,-0.104,1.142,-0.288,-0.210,-36.225,3.646,21.357
1747667657.48,-0.053,-0.168,-0.057,1.072,-0.320,-0.125,-35.601,3.369,21.186
1747667657.49,0.041,-0.272,-0.041,0.981,-0.260,0.015,-35.018,3.152,21.106
1747667657.50,0.120,-0.301,0.010,0.966,-0.110,0.116,-34.464,3.052,21.119
1747667657.51,0.160,-0.213,0.021,0.952,0.052,0.119,-33.914,3.065,21.168
1747667657.52,0.137,-0.046,0.047,1.009,0.051,0.097,-33.354,3.121,21.204
1747667657.53,0.062,0.101,0.058,1.073,-0.062,0.113,-32.756,3.137,21.235
1747667657.54,0.005,0.178,0.107,1.120,-0.166,0.124,-32.127,3.092,21.275
1747667657.55,-0.035,0.183,0.087,1.162,-0.250,0.090,-31.472,2.989,21.308
1747667657.56,-0.063,0.120,0.008,1.179,-0.332,0.039,-30.801,2.825,21.311
1747667657.57,-0.074,0.006,-0.071,1.132,-0.359,0.025,-30.138,2.616,21.295
1747667657.58,-0.054,-0.119,-0.090,1.060,-0.306,0.032,-29.515,2.417,21.281
1747667657.59,-0.019,-0.204,-0.018,1.050,-0.205,0.067,-28.912,2.270,21.283
1747667657.60,0.011,-0.201,0.027,1.034,-0.076,0.094,-28.317,2.203,21.311
1747667657.61,0.014,-0.099,0.040,1.026,0.002,0.101,-27.727,2.202,21.350
1747667657.62,0.012,0.041,0.047,1.047,-0.001,0.111,-27.133,2.228,21.391
1747667657.63,0.021,0.159,0.059,1.064,-0.093,0.147,-26.526,2.226,21.445
1747667657.64,0.040,0.220,0.053,1.077,-0.215,0.193,-25.912,2.177,21.528
1747667657.65,0.045,0.216,0.016,1.137,-0.362,0.195,-25.277,2.052,21.626
1747667657.66,0.029,0.144,0.015,1.172,-0.360,0.168,-24.612,1.877,21.717
1747667657.67,0.008,0.032,0.005,1.137,-0.260,0.110,-23.950,1.727,21.782
1747667657.68,-0.051,-0.087,-0.015,1.133,-0.237,0.077,-23.302,1.601,21.817
1747667657.69,-0.098,-0.171,-0.021,1.108,-0.170,0.147,-22.658,1.501,21.865
1747667657.70,-0.045,-0.191,-0.014,1.075,-0.113,0.213,-22.034,1.459,21.961
1747667657.71,0.047,-0.135,0.001,1.070,-0.067,0.228,-21.419,1.452,22.081
1747667657.72,0.112,-0.023,0.031,1.070,-0.055,0.244,-20.806,1.465,22.209
1747667657.73,0.135,0.077,0.038,1.111,-0.112,0.272,-20.181,1.468,22.349
1747667657.74,0.112,0.132,0.051,1.160,-0.151,0.291,-19.528,1.442,22.504
1747667657.75,0.086,0.133,0.052,1.192,-0.169,0.287,-18.853,1.403,22.663
1747667657.76,0.061,0.084,0.017,1.222,-0.186,0.264,-18.160,1.348,22.811
1747667657.77,-0.004,0.006,0.016,1.245,-0.170,0.263,-17.450,1.289,22.951
1747667657.78,-0.057,-0.060,-0.018,1.201,-0.149,0.289,-16.747,1.240,23.099
1747667657.79,-0.046,-0.098,-0.015,1.193,-0.081,0.314,-16.061,1.220,23.264
1747667657.80,-0.006,-0.089,0.015,1.174,-0.019,0.323,-15.379,1.237,23.439
1747667657.81,0.026,-0.033,0.014,1.176,0.049,0.326,-14.706,1.292,23.616
1747667657.82,0.022,0.038,0.044,1.224,0.081,0.333,-14.018,1.375,23.793
1747667657.83,-0.018,0.104,0.053,1.288,0.070,0.326,-13.296,1.459,23.970
1747667657.84,-0.038,0.149,0.048,1.318,0.062,0.284,-12.546,1.531,24.129
1747667657.85,-0.035,0.156,0.031,1.326,0.069,0.247,-11.787,1.596,24.263
1747667657.86,-0.040,0.109,0.031,1.360,0.098,0.195,-11.016,1.664,24.370
1747667657.87,-0.080,0.040,0.018,1.366,0.174,0.159,-10.234,1.755,24.447
1747667657.88,-0.085,-0.038,-0.012,1.386,0.240,0.149,-9.445,1.884,24.510
1747667657.89,-0.072,-0.077,-0.020,1.310,0.300,0.117,-8.669,2.045,24.562
1747667657.90,-0.085,0.002,0.019,1.262,0.316,0.054,-7.938,2.228,24.584
1747667657.91,-0.131,0.140,0.034,1.336,0.264,0.048,-7.197,2.393,25.106
1747667657.92,-0.152,0.230,-0.008,1.334,0.201,0.091,-6.430,2.527,25.115
1747667657.93,-0.111,0.250,-0.058,1.300,0.146,0.048,-5.677,2.626,25.630
1747667657.94,-0.014,0.193,-0.081,1.299,0.053,-0.055,-4.936,2.682,25.593
1747667657.95,0.059,0.060,-0.095,1.283,-0.096,-0.116,-4.201,2.663,26.014
1747667657.96,0.067,-0.102,-0.118,1.230,-0.261,-0.130,-3.485,2.553,25.910
1747667657.97,0.035,-0.228,-0.105,1.191,-0.303,-0.122,-2.800,2.379,26.321
1747667657.98,0.014,-0.253,-0.015,1.208,-0.155,-0.124,-2.120,2.238,26.223
1747667657.99,-0.007,-0.147,0.042,1.235,0.085,-0.116,-1.425,2.214,26.621
1747667658.00,-0.028,0.009,0.023,1.191,0.214,-0.090,-0.734,2.304,26.535
1747667658.01,-0.060,0.098,-0.021,1.208,0.271,-0.024,-0.053,2.443,26.949
1747667658.02,-0.030,0.096,-0.035,1.183,0.288,0.078,0.633,2.603,26.935
1747667658.03,0.084,0.055,-0.057,1.112,0.253,0.097,1.289,2.760,27.433
1747667658.04,0.219,-0.010,-0.098,1.079,0.094,0.074,1.915,2.863,27.451
1747667658.05,0.303,-0.093,-0.140,1.038,-0.141,0.065,2.522,2.848,27.933
1747667658.06,0.289,-0.159,-0.120,0.966,-0.331,0.063,3.095,2.709,27.942
1747667658.07,0.200,-0.151,-0.065,0.921,-0.436,0.082,3.634,2.485,28.429
1747667658.08,0.075,-0.063,0.000,0.949,-0.326,0.135,4.168,2.254,28.469
1747667658.09,-0.050,0.055,0.101,0.971,-0.069,0.172,4.721,2.134,28.981
1747667658.10,-0.152,0.136,0.072,0.975,0.145,0.212,5.280,2.152,29.069
1747667658.11,-0.200,0.116,-0.017,0.942,0.257,0.262,5.834,2.259,29.611
1747667658.12,-0.155,0.003,-0.066,0.912,0.299,0.302,6.367,2.403,29.751
1747667658.13,-0.001,-0.138,-0.050,0.898,0.306,0.330,6.893,2.560,30.330
1747667658.14,0.166,-0.221,-0.035,0.827,0.168,0.337,7.395,2.680,30.499
1747667658.15,0.259,-0.233,-0.122,0.742,-0.106,0.359,7.852,2.677,31.102
1747667658.16,0.250,-0.187,-0.162,0.690,-0.347,0.420,8.268,2.513,31.306
1747667658.17,0.150,-0.064,-0.127,0.688,-0.431,0.518,8.670,2.248,31.964
1747667658.18,0.014,0.108,-0.084,0.717,-0.421,0.636,9.082,1.952,32.282
1747667658.19,-0.160,0.242,-0.074,0.766,-0.318,0.746,9.519,1.675,33.075
1747667658.20,-0.313,0.227,-0.067,0.809,-0.077,0.729,9.980,1.486,33.495
1747667658.21,-0.348,0.084,-0.025,0.793,0.197,0.631,10.450,1.456,34.283
1747667658.22,-0.271,-0.062,-0.017,0.744,0.317,0.525,10.898,1.547,34.608
1747667658.23,-0.147,-0.143,-0.030,0.672,0.297,0.450,11.310,1.676,35.080
1747667658.24,-0.006,-0.141,-0.064,0.611,0.141,0.417,11.683,1.757,35.321
1747667658.25,0.073,-0.053,-0.102,0.587,-0.090,0.379,12.029,1.727,35.543
1747667658.26,0.046,0.045,-0.110,0.609,-0.302,0.348,12.376,1.568,35.744
1747667658.27,-0.023,0.115,-0.090,0.645,-0.346,0.324,12.739,1.336,35.932
