Time,AccX,AccY,AccZ,GyroX,GyroY,GyroZ,Pitch,Roll,Yaw
1747667765.29,-0.002,0.016,-0.036,0.049,-0.098,-0.018,-87.101,-2.084,-14.066
1747667765.30,-0.025,0.026,-0.016,0.045,-0.075,0.007,-87.072,-2.200,-14.133
1747667765.30,-0.028,0.021,0.005,0.032,-0.045,0.003,-87.047,-2.164,-14.060
1747667765.31,-0.024,0.003,0.006,0.008,-0.005,-0.009,-87.031,-2.215,-14.098
1747667765.32,-0.006,-0.027,0.019,-0.022,0.017,-0.008,-87.034,-2.237,-14.124
1747667765.33,0.014,-0.040,0.019,-0.031,0.011,-0.008,-87.050,-2.122,-14.018
1747667765.34,0.030,-0.027,0.003,-0.017,-0.004,-0.003,-87.061,-1.933,-13.832
1747667765.35,0.036,-0.002,-0.010,-0.009,-0.029,0.014,-87.061,-1.770,-13.659
1747667765.36,0.037,0.019,-0.009,-0.008,-0.041,0.011,-87.059,-1.655,-13.524
1747667765.37,0.028,0.027,0.007,0.014,-0.046,0.006,-87.054,-1.687,-13.532
1747667765.38,0.010,0.021,0.008,0.028,-0.067,-0.006,-87.042,-1.846,-13.659
1747667765.39,-0.014,0.008,-0.001,0.037,-0.078,-0.027,-87.023,-2.176,-13.947
1747667765.40,-0.029,-0.002,-0.004,0.048,-0.064,-0.028,-87.002,-2.536,-14.266
1747667765.41,-0.033,-0.005,-0.004,0.043,-0.020,-0.029,-86.978,-2.786,-14.494
1747667765.42,-0.035,-0.005,0.013,0.032,0.014,-0.031,-86.957,-2.966,-14.674
1747667765.43,-0.034,-0.002,0.022,0.024,0.013,-0.029,-86.939,-3.099,-14.816
1747667765.44,-0.028,-0.005,0.022,0.011,0.015,-0.031,-86.926,-3.253,-14.978
1747667765.45,-0.013,-0.013,0.026,0.002,0.020,-0.017,-86.925,-3.378,-15.113
1747667765.46,0.007,-0.020,0.025,-0.006,0.023,-0.005,-86.928,-3.446,-15.194
1747667765.47,0.014,-0.013,0.023,0.008,0.015,0.006,-86.928,-3.493,-15.252
1747667765.48,0.010,0.001,0.020,0.020,-0.006,0.020,-86.920,-3.470,-15.232
1747667765.49,0.004,0.011,0.014,0.042,-0.032,0.019,-86.902,-3.389,-15.138
1747667765.50,0.004,0.013,0.002,0.065,-0.029,0.017,-86.874,-3.346,-15.076
1747667765.51,0.001,0.012,-0.003,0.059,0.008,0.010,-86.846,-3.380,-15.103
1747667765.52,-0.004,0.009,0.009,0.065,0.018,0.004,-86.820,-3.464,-15.195
1747667765.53,-0.020,0.000,0.017,0.074,-0.021,0.006,-86.790,-3.487,-15.218
1747667765.54,-0.039,-0.003,0.005,0.057,-0.055,0.016,-86.763,-3.299,-15.006
1747667765.55,-0.049,0.004,0.010,0.041,-0.063,0.011,-86.745,-3.077,-14.751
1747667765.56,-0.053,0.018,0.031,0.045,-0.053,0.006,-86.729,-2.959,-14.598
1747667765.57,-0.047,0.022,0.043,0.051,0.007,0.016,-86.708,-2.832,-14.456
1747667765.58,-0.033,0.010,0.060,0.054,0.075,0.033,-86.681,-2.525,-14.173
1747667765.59,-0.023,-0.007,0.075,0.070,0.087,0.046,-86.647,-2.053,-13.747
1747667765.60,-0.029,-0.020,0.047,0.080,0.099,0.062,-86.609,-1.493,-13.238
1747667765.61,-0.028,-0.031,0.023,0.063,0.117,0.096,-86.575,-0.783,-12.588
1747667765.62,-0.014,-0.039,0.035,0.061,0.120,0.117,-86.545,0.086,-11.785
1747667765.63,-0.002,-0.032,0.030,0.110,0.065,0.120,-86.501,0.954,-10.970
1747667765.64,-0.003,-0.034,-0.019,0.171,0.016,0.115,-86.429,1.780,-10.163
1747667765.65,-0.003,-0.036,-0.073,0.200,0.000,0.111,-86.327,2.663,-9.282
1747667765.66,0.019,-0.022,-0.089,0.223,-0.019,0.090,-86.208,3.403,-8.533
1747667765.67,0.039,-0.000,-0.086,0.255,0.011,0.070,-86.073,3.925,-8.005
1747667765.68,0.053,0.019,-0.074,0.282,0.062,0.043,-85.920,4.234,-7.717
1747667765.69,0.040,0.036,-0.061,0.315,0.065,0.032,-85.750,4.374,-7.616
1747667765.70,0.005,0.039,-0.044,0.376,0.032,0.027,-85.556,4.392,-7.628
1747667765.71,-0.028,0.037,-0.035,0.427,-0.010,0.077,-85.324,4.506,-7.520
1747667765.72,-0.030,0.024,-0.051,0.390,-0.017,0.175,-85.084,5.099,-6.916
1747667765.73,0.012,-0.015,-0.038,0.354,-0.005,0.248,-84.859,6.235,-5.770
1747667765.74,0.068,-0.047,-0.028,0.328,0.012,0.270,-84.644,7.601,-4.400
1747667765.75,0.110,-0.048,0.001,0.292,-0.035,0.264,-84.447,8.918,-3.074
1747667765.76,0.112,-0.038,0.064,0.284,-0.148,0.261,-84.260,10.088,-1.847
1747667765.77,0.088,-0.038,0.075,0.295,-0.234,0.249,-84.072,11.083,-0.736
1747667765.78,0.079,-0.030,0.058,0.307,-0.311,0.225,-83.876,11.857,0.199
1747667765.79,0.075,0.005,0.054,0.331,-0.385,0.181,-83.675,12.348,0.894
1747667765.80,0.059,0.044,0.055,0.380,-0.453,0.145,-83.457,12.521,1.310
1747667765.81,0.032,0.060,0.048,0.440,-0.499,0.129,-83.213,12.469,1.533
1747667765.82,0.000,0.044,0.027,0.529,-0.510,0.099,-82.927,12.217,1.570
1747667765.83,-0.040,0.026,-0.010,0.538,-0.495,0.049,-82.618,11.752,1.392
1747667765.84,-0.090,0.022,-0.009,0.568,-0.413,0.040,-82.307,11.192,1.090
1747667765.85,-0.132,0.012,0.007,0.607,-0.264,0.060,-81.971,10.740,0.830
1747667765.86,-0.163,0.006,0.006,0.611,-0.142,0.085,-81.621,10.466,0.669
1747667765.87,-0.194,0.008,0.015,0.616,0.004,0.120,-81.266,10.377,0.621
1747667765.88,-0.198,0.005,0.027,0.597,0.152,0.171,-80.909,10.539,0.738
1747667765.89,-0.171,-0.006,0.054,0.618,0.237,0.200,-80.551,10.901,0.990
1747667765.90,-0.147,-0.016,0.032,0.658,0.277,0.223,-80.169,11.326,1.272
1747667765.91,-0.097,-0.021,-0.018,0.643,0.320,0.298,-79.773,11.889,1.671
1747667765.92,0.019,-0.023,0.014,0.597,0.300,0.359,-79.388,12.676,2.286
1747667765.93,0.139,-0.005,0.082,0.634,0.137,0.312,-79.005,13.385,2.877
1747667765.94,0.193,0.028,0.103,0.746,-0.037,0.262,-78.585,13.741,3.213
1747667765.95,0.206,0.049,0.090,0.842,-0.145,0.242,-78.109,13.832,3.361
1747667765.96,0.181,0.050,0.083,0.889,-0.239,0.232,-77.595,13.789,3.428
1747667765.97,0.103,0.043,0.079,0.901,-0.377,0.196,-77.069,13.608,3.424
1747667765.98,-0.024,0.039,0.073,0.915,-0.395,0.134,-76.542,13.259,3.300
1747667765.99,-0.131,0.040,0.074,0.897,-0.269,0.057,-76.023,12.810,3.033
1747667766.00,-0.187,0.046,0.122,0.878,-0.198,-0.022,-75.526,12.277,2.616
1747667766.01,-0.233,0.050,0.138,0.876,-0.160,-0.048,-75.042,11.703,2.235
1747667766.02,-0.266,0.054,0.138,0.881,-0.108,-0.087,-74.557,11.120,1.712
1747667766.03,-0.304,0.062,0.112,0.867,0.033,-0.087,-74.077,10.577,1.279
1747667766.04,-0.299,0.044,0.099,0.855,0.286,-0.041,-73.601,10.234,0.828
1747667766.05,-0.220,0.005,0.121,0.877,0.438,0.016,-73.117,10.134,0.597
1747667766.06,-0.149,-0.012,0.090,0.926,0.468,0.037,-72.608,10.154,0.344
1747667766.07,-0.106,-0.009,0.025,0.981,0.394,0.040,-72.068,10.167,0.214
1747667766.08,-0.057,-0.004,-0.032,0.978,0.320,0.058,-71.508,10.151,-0.014
1747667766.09,0.025,-0.007,-0.075,0.941,0.359,0.062,-70.965,10.160,-0.101
1747667766.10,0.127,-0.021,-0.025,0.983,0.412,0.021,-70.423,10.174,-0.323
1747667766.11,0.156,-0.038,0.001,1.048,0.335,-0.020,-69.851,10.111,-0.508
1747667766.12,0.116,-0.065,-0.037,1.083,0.182,-0.005,-69.254,9.941,-0.846
1747667766.13,0.090,-0.093,-0.071,1.082,0.140,0.021,-68.642,9.765,-1.000
1747667766.14,0.075,-0.099,-0.068,1.037,0.136,0.025,-68.044,9.629,-1.233
1747667766.15,0.052,-0.076,-0.033,1.082,0.065,-0.006,-67.451,9.458,-1.363
1747667766.16,0.016,-0.044,-0.030,1.176,0.025,-0.021,-66.814,9.215,-1.653
1747667766.17,0.009,-0.012,-0.044,1.162,-0.029,-0.055,-66.154,8.930,-1.849
1747667766.18,0.022,0.003,-0.013,1.137,-0.036,-0.123,-65.516,8.569,-2.219
1747667766.19,0.014,-0.007,-0.037,1.144,0.116,-0.073,-64.881,8.248,-2.459
1747667766.20,0.010,-0.040,-0.011,1.117,0.156,-0.008,-64.243,8.105,-2.712
1747667766.21,-0.005,-0.064,0.027,1.093,0.141,-0.001,-63.619,7.996,-2.793
1747667766.22,-0.012,-0.073,0.039,1.097,0.179,0.064,-62.998,7.959,-2.939
1747667766.23,0.002,-0.079,0.071,1.112,0.126,0.000,-62.370,7.918,-3.030
1747667766.24,0.004,-0.053,0.019,1.124,0.059,-0.017,-61.738,7.790,-3.237
1747667766.25,0.019,-0.019,-0.022,1.114,-0.011,0.025,-61.103,7.655,-3.403
1747667766.26,0.061,0.005,-0.028,1.109,-0.083,-0.001,-60.474,7.489,-3.563
1747667766.27,0.139,0.027,-0.031,1.213,-0.107,-0.010,-59.821,7.276,-3.741
1747667766.28,0.200,0.032,-0.031,1.280,-0.028,0.006,-59.108,7.080,-3.921
1747667766.29,0.225,0.037,0.030,1.189,-0.026,0.036,-58.405,6.947,-4.065
1747667766.30,0.185,0.029,0.047,1.134,-0.166,0.072,-57.744,6.818,-4.161
1747667766.31,0.106,0.001,-0.054,1.059,-0.303,0.170,-57.111,6.666,-4.177
1747667766.32,0.064,-0.043,-0.031,0.998,-0.292,0.320,-56.513,6.602,-4.045
1747667766.33,0.111,-0.084,0.023,0.965,-0.248,0.409,-55.932,6.668,-3.782
1747667766.34,0.187,-0.095,0.025,0.979,-0.219,0.442,-55.353,6.796,-3.467
1747667766.35,0.202,-0.080,0.048,1.003,-0.297,0.434,-54.761,6.914,-3.148
1747667766.36,0.136,-0.047,0.024,1.008,-0.404,0.396,-54.161,6.947,-2.860
1747667766.37,0.034,-0.003,-0.009,1.036,-0.399,0.341,-53.558,6.904,-2.624
1747667766.38,-0.038,0.035,0.023,1.076,-0.352,0.253,-52.939,6.822,-2.461
1747667766.39,-0.087,0.066,0.041,1.086,-0.381,0.127,-52.311,6.662,-2.404
1747667766.40,-0.132,0.089,0.010,1.095,-0.400,0.031,-51.690,6.399,-2.448
1747667766.41,-0.149,0.082,-0.018,1.109,-0.383,-0.023,-51.061,6.094,-2.557
1747667766.42,-0.145,0.050,-0.041,1.049,-0.408,-0.042,-50.447,5.763,-2.691
1747667766.43,-0.133,0.003,-0.060,0.997,-0.364,-0.018,-49.870,5.450,-2.809
1747667766.44,-0.089,-0.041,-0.021,0.983,-0.306,0.020,-49.306,5.198,-2.888
1747667766.45,-0.043,-0.053,0.020,0.951,-0.186,0.045,-48.755,5.019,-2.934
1747667766.46,-0.001,-0.034,0.025,0.970,-0.055,0.047,-48.208,4.931,-2.964
1747667766.47,0.019,-0.010,0.053,0.989,-0.041,0.033,-47.648,4.877,-3.004
1747667766.48,-0.018,0.013,0.025,0.977,-0.043,0.058,-47.086,4.829,-3.037
1747667766.49,-0.038,0.014,-0.014,0.956,-0.061,0.095,-46.532,4.797,-3.041
1747667766.50,-0.028,0.001,-0.005,0.954,-0.119,0.116,-45.984,4.762,-3.018
1747667766.51,0.007,-0.007,0.016,0.959,-0.106,0.113,-45.434,4.713,-2.991
1747667766.52,0.051,-0.006,0.043,0.984,-0.067,0.055,-44.876,4.671,-2.984
1747667766.53,0.055,0.005,0.052,0.995,-0.125,-0.018,-44.312,4.582,-3.034
1747667766.54,0.004,0.029,0.003,0.978,-0.264,-0.081,-43.753,4.400,-3.137
1747667766.55,-0.036,0.054,-0.014,0.964,-0.328,-0.128,-43.205,4.130,-3.276
1747667766.56,-0.044,0.075,0.011,0.976,-0.306,-0.163,-42.659,3.833,-3.444
1747667766.57,-0.023,0.080,0.047,0.990,-0.288,-0.154,-42.104,3.550,-3.617
1747667766.58,0.010,0.069,0.058,0.997,-0.307,-0.105,-41.543,3.282,-3.763
1747667766.59,0.038,0.040,0.020,1.007,-0.330,-0.035,-40.975,3.038,-3.857
1747667766.60,0.052,-0.001,0.010,1.014,-0.290,0.031,-40.399,2.833,-3.896
1747667766.61,0.059,-0.033,0.017,0.990,-0.181,0.079,-39.825,2.701,-3.891
1747667766.62,0.059,-0.051,0.013,0.974,-0.116,0.105,-39.263,2.643,-3.856
1747667766.63,0.041,-0.057,-0.018,0.977,-0.105,0.107,-38.705,2.609,-3.810
1747667766.64,0.020,-0.044,-0.028,0.990,-0.063,0.078,-38.142,2.582,-3.774
1747667766.65,0.017,-0.022,0.040,1.039,0.038,0.034,-37.564,2.579,-3.766
1747667766.66,0.023,-0.013,0.090,1.111,0.037,-0.012,-36.950,2.588,-3.793
1747667766.67,-0.002,-0.017,0.063,1.118,-0.038,-0.055,-36.311,2.552,-3.853
1747667766.68,-0.043,-0.025,0.022,1.075,-0.128,-0.090,-35.688,2.454,-3.939
1747667766.69,-0.044,-0.044,0.005,1.078,-0.238,-0.085,-35.077,2.298,-4.033
1747667766.70,0.005,-0.063,0.001,1.078,-0.316,-0.057,-34.464,2.090,-4.113
1747667766.71,0.052,-0.059,0.038,1.080,-0.265,-0.045,-33.848,1.885,-4.172
1747667766.72,0.078,-0.034,0.060,1.078,-0.184,-0.045,-33.233,1.729,-4.227
1747667766.73,0.064,-0.010,0.040,1.078,-0.180,-0.037,-32.618,1.601,-4.276
1747667766.74,0.017,0.016,-0.008,1.062,-0.201,-0.004,-32.007,1.471,-4.310
1747667766.75,-0.023,0.035,-0.014,1.082,-0.151,0.059,-31.395,1.367,-4.311
1747667766.76,0.002,0.037,0.048,1.122,-0.070,0.095,-30.765,1.323,-4.274
1747667766.77,0.043,0.035,0.083,1.163,-0.049,0.084,-30.112,1.313,-4.232
1747667766.78,0.051,0.032,0.051,1.176,-0.091,0.093,-29.439,1.294,-4.193
1747667766.79,0.072,0.009,0.010,1.120,-0.122,0.125,-28.782,1.258,-4.138
1747667766.80,0.117,-0.029,-0.019,1.102,-0.167,0.161,-28.149,1.213,-4.061
1747667766.81,0.150,-0.063,0.002,1.103,-0.101,0.193,-27.517,1.177,-3.960
1747667766.82,0.135,-0.080,0.034,1.108,-0.026,0.183,-26.883,1.196,-3.853
1747667766.83,0.072,-0.065,0.055,1.132,0.007,0.181,-26.243,1.236,-3.753
1747667766.84,-0.010,-0.011,0.063,1.166,0.054,0.161,-25.586,1.294,-3.660
1747667766.85,-0.043,0.072,0.072,1.233,0.075,0.132,-24.900,1.364,-3.585
1747667766.86,-0.070,0.133,0.057,1.268,0.082,0.084,-24.183,1.434,-3.537
1747667766.87,-0.111,0.134,0.044,1.248,-0.031,0.059,-23.462,1.458,-3.513
1747667766.88,-0.129,0.090,-0.001,1.224,-0.129,0.062,-22.756,1.419,-3.496
1747667766.89,-0.091,0.029,-0.007,1.229,-0.099,0.079,-22.056,1.357,-3.470
1747667766.90,0.006,-0.019,0.014,1.232,0.003,0.046,-21.353,1.340,-3.445
1747667766.91,0.098,-0.058,0.020,1.261,0.022,-0.004,-20.642,1.349,-3.451
1747667766.92,0.081,-0.109,0.038,1.293,0.039,0.020,-19.912,1.359,-3.469
1747667766.93,0.043,-0.128,0.025,1.339,0.107,0.050,-19.163,1.401,-3.466
1747667766.94,0.021,-0.098,0.002,1.397,0.149,0.068,-18.378,1.480,-3.452
1747667766.95,-0.030,-0.048,0.048,1.386,0.241,0.097,-17.581,1.598,-3.425
1747667766.96,-0.063,0.021,0.095,1.358,0.295,0.116,-16.796,1.773,-3.384
1747667766.97,-0.071,0.083,0.057,1.367,0.213,0.141,-16.017,1.934,-3.336
1747667766.98,-0.088,0.103,0.002,1.329,0.144,0.184,-15.240,2.062,-3.272
1747667766.99,-0.045,0.064,-0.044,1.275,0.119,0.256,-14.495,2.164,-3.168
1747667767.00,0.081,0.001,-0.069,1.267,0.139,0.236,-13.767,2.267,-3.049
1747667767.01,0.125,-0.055,-0.104,1.361,0.146,0.193,-13.014,2.370,-2.954
1747667767.02,0.088,-0.085,-0.095,1.429,0.176,0.187,-12.212,2.476,-2.878
1747667767.03,0.058,-0.050,-0.029,1.449,0.290,0.191,-11.381,2.623,-2.807
1747667767.04,0.060,0.037,0.065,1.377,0.398,0.207,-10.567,2.837,-2.731
1747667767.05,0.042,0.141,0.106,1.301,0.265,0.233,-9.800,3.047,-2.645
1747667767.06,-0.035,0.179,-0.001,1.257,0.149,0.297,-9.061,3.184,-2.532
1747667767.07,-0.120,0.137,-0.118,1.189,0.067,0.329,-8.356,3.262,-2.389
1747667767.08,-0.110,0.089,-0.133,1.150,0.115,0.268,-7.680,3.330,-2.252
1747667767.09,-0.065,0.045,-0.111,1.116,0.156,0.157,-7.027,3.418,-2.169
1747667767.10,-0.067,0.008,-0.085,1.071,0.149,0.082,-6.399,3.510,-2.140
1747667767.11,-0.089,-0.031,-0.080,1.005,0.080,0.058,-5.804,3.576,-2.137
1747667767.12,-0.108,-0.036,-0.052,1.030,0.050,0.068,-5.229,3.610,-2.138
1747667767.13,-0.075,0.049,0.052,1.135,0.064,0.075,-4.606,3.642,-2.134
1747667767.14,-0.003,0.218,0.153,1.212,0.055,0.033,-3.938,3.676,-2.144
1747667767.15,0.029,0.331,0.093,1.263,0.072,-0.050,-3.226,3.707,-2.194
1747667767.16,-0.027,0.285,0.006,1.209,0.038,-0.138,-2.526,3.734,-2.295
1747667767.17,-0.104,0.124,-0.089,1.206,0.045,-0.190,-1.842,3.753,-2.435
1747667767.18,-0.173,-0.048,-0.140,1.172,0.124,-0.297,-1.166,3.812,-2.619
1747667767.19,-0.196,-0.158,-0.124,1.105,0.204,-0.321,-0.537,3.907,-2.837
1747667767.20,-0.122,-0.182,-0.090,1.109,0.198,-0.393,0.081,4.023,-3.084
1747667767.21,-0.072,-0.108,-0.083,1.114,0.194,-0.445,0.696,4.134,-3.368
1747667767.22,0.005,-0.015,-0.012,1.127,-0.004,-0.469,1.313,4.192,-3.677
1747667767.23,0.029,0.098,0.063,1.190,-0.064,-0.455,1.955,4.176,-3.986
1747667767.24,-0.001,0.146,0.099,1.205,-0.063,-0.444,2.618,4.154,-4.295
1747667767.25,-0.003,0.130,0.129,1.328,0.141,-0.530,3.308,4.163,-4.607
1747667767.26,0.009,0.115,0.048,1.169,-0.096,-0.437,4.001,4.169,-4.508
1747667767.27,0.057,0.059,-0.052,1.198,-0.171,-0.324,4.659,4.111,-4.768
1747667767.28,0.099,-0.017,-0.161,1.137,-0.191,-0.372,5.313,4.024,-4.119
1747667767.29,0.073,-0.084,-0.169,1.100,-0.161,-0.385,5.934,3.948,-4.385
1747667767.30,0.087,-0.137,-0.117,1.031,-0.158,-0.340,6.528,3.887,-3.765
1747667767.31,0.111,-0.124,-0.097,0.975,-0.244,-0.257,7.086,3.798,-3.977
1747667767.32,0.138,-0.055,-0.084,0.989,-0.316,-0.144,7.637,3.654,-3.258
1747667767.33,0.163,0.029,-0.011,0.995,-0.285,-0.081,8.199,3.493,-3.357
1747667767.34,0.182,0.101,0.043,1.001,-0.258,-0.039,8.766,3.350,-2.567
1747667767.35,0.187,0.078,0.007,0.984,-0.207,0.018,9.333,3.221,-1.761
1747667767.36,0.140,-0.008,-0.013,1.006,-0.113,0.215,9.916,3.064,-1.721
1747667767.37,0.131,-0.133,-0.062,0.906,0.035,0.073,10.449,3.039,-0.829
1747667767.38,0.044,-0.064,0.051,0.899,0.120,0.119,10.970,3.081,-0.806
1747667767.39,0.095,-0.071,-0.075,0.822,0.137,0.162,11.464,3.144,0.089
1747667767.40,0.123,-0.111,-0.060,0.742,0.127,0.201,11.916,3.205,0.169
1747667767.41,0.108,-0.079,-0.082,0.689,0.076,0.265,12.330,3.238,1.090
1747667767.42,0.083,-0.018,-0.085,0.686,0.085,0.327,12.731,3.251,1.241
1747667767.43,0.039,0.049,-0.048,0.666,0.121,0.333,13.126,3.273,2.204
1747667767.44,-0.016,0.079,-0.029,0.669,0.132,0.316,13.517,3.306,2.370
1747667767.45,-0.058,0.050,-0.062,0.645,0.161,0.322,13.903,3.351,3.314
1747667767.46,-0.024,-0.004,-0.039,0.608,0.153,0.316,14.272,3.404,3.481
1747667767.47,0.029,-0.064,-0.066,0.572,0.106,0.309,14.618,3.437,4.399
1747667767.48,0.034,-0.093,-0.101,0.521,0.067,0.299,14.941,3.446,4.559
1747667767.49,0.039,-0.091,-0.112,0.473,0.046,0.305,15.234,3.437,5.465
1747667767.50,0.043,-0.077,-0.116,0.417,0.038,0.322,15.498,3.416,5.634
1747667767.51,0.048,-0.034,-0.091,0.410,0.049,0.334,15.742,3.392,6.550
1747667767.52,0.022,0.014,-0.066,0.369,0.087,0.348,15.977,3.379,6.739
1747667767.53,0.001,0.048,-0.043,0.350,0.079,0.357,16.194,3.373,7.656
1747667767.54,0.006,0.036,-0.071,0.324,0.102,0.360,16.398,3.365,7.857
1747667767.55,0.012,0.006,-0.063,0.292,0.134,0.362,16.586,3.376,8.781
1747667767.56,0.018,-0.013,-0.049,0.290,0.117,0.372,16.763,3.388,8.990
1747667767.57,0.002,-0.027,-0.057,0.449,0.003,0.598,16.965,3.359,9.930
1747667767.58,0.047,-0.103,-0.129,0.133,0.064,0.461,17.135,3.288,10.248
1747667767.59,0.044,-0.038,0.015,0.237,0.031,0.394,17.256,3.243,11.153
1747667767.60,0.053,0.116,-0.111,0.186,0.017,0.455,17.391,3.185,11.401
1747667767.61,0.045,0.063,-0.097,0.188,0.017,0.506,17.513,3.106,12.363
1747667767.62,-0.035,0.050,-0.094,0.169,0.057,0.568,17.632,3.032,12.679
1747667767.63,-0.066,0.034,-0.076,0.172,0.120,0.566,17.744,2.980,13.667
1747667767.64,-0.068,0.019,-0.062,0.150,0.175,0.553,17.853,2.965,13.997
1747667767.65,-0.017,-0.014,-0.033,0.171,-0.086,0.655,17.951,2.922,14.980
1747667767.66,0.046,-0.080,-0.071,0.017,0.076,0.724,18.045,2.796,15.428
1747667767.67,0.064,-0.150,-0.035,0.064,0.027,0.439,18.079,2.718,15.772
1747667767.68,-0.014,0.079,-0.038,0.018,0.024,0.494,18.118,2.653,16.045
1747667767.69,0.044,0.060,-0.090,-0.002,-0.022,0.545,18.135,2.551,16.360
1747667767.70,-0.007,0.028,-0.084,-0.027,0.036,0.549,18.139,2.452,16.688
1747667767.71,-0.033,0.024,-0.081,-0.010,-0.076,0.588,18.137,2.357,17.338
1747667767.72,-0.026,-0.011,-0.092,-0.086,0.164,0.625,18.138,2.271,17.736
1747667767.73,0.007,-0.078,-0.024,-0.059,0.164,0.329,18.103,2.283,18.640
1747667767.74,-0.038,0.057,-0.010,-0.126,0.157,0.267,18.065,2.322,18.803
1747667767.75,0.037,-0.019,-0.063,-0.153,0.074,0.331,17.989,2.331,19.588
1747667767.76,0.032,-0.075,-0.076,-0.202,0.057,0.338,17.896,2.305,19.794
1747667767.77,0.020,-0.069,-0.084,-0.230,0.072,0.374,17.779,2.274,20.608
1747667767.78,0.073,-0.054,-0.075,-0.281,0.129,0.457,17.645,2.252,20.862
1747667767.79,0.121,-0.022,-0.071,-0.356,0.173,0.541,17.475,2.250,21.744
1747667767.79,0.136,-0.001,-0.074,-0.409,0.195,0.757,17.284,2.202,22.151
1747667767.81,0.144,-0.066,-0.088,-0.469,0.215,0.700,17.041,2.189,23.164
1747667767.82,0.068,0.002,-0.035,-0.471,0.226,0.707,16.790,2.190,23.589
1747667767.82,0.040,0.011,-0.119,-0.519,0.221,0.766,16.524,2.190,24.039
1747667767.84,0.011,-0.045,-0.103,-0.505,0.198,0.860,16.245,2.165,24.523
1747667767.85,-0.028,-0.105,-0.091,-0.579,0.278,0.746,15.950,2.172,25.020
1747667767.85,-0.049,-0.074,0.014,-0.600,0.313,0.625,15.631,2.226,25.432
1747667767.86,-0.055,0.030,-0.038,-0.625,0.319,0.546,15.293,2.310,25.793
1747667767.87,-0.029,0.043,-0.052,-0.620,0.315,0.426,14.949,2.411,26.099
1747667767.88,-0.019,0.055,-0.037,-0.635,0.296,0.312,14.601,2.529,26.330
1747667767.89,0.004,0.050,-0.072,-0.673,0.209,0.289,14.235,2.628,26.523
1747667767.90,-0.001,-0.006,-0.118,-0.712,0.155,0.252,13.846,2.685,26.968
1747667767.91,-0.014,-0.056,-0.088,-0.768,0.145,0.219,13.431,2.735,27.126
1747667767.92,0.015,-0.059,-0.065,-0.805,0.086,0.183,12.986,2.768,27.790
1747667767.93,0.017,-0.038,-0.065,-0.810,0.058,0.111,12.530,2.782,27.900
1747667767.94,0.006,-0.003,-0.008,-0.819,0.025,0.003,12.069,2.796,28.467
1747667767.95,0.015,0.034,-0.002,-0.839,-0.057,0.009,11.594,2.782,28.489
1747667767.96,0.029,0.022,-0.053,-0.860,-0.137,0.090,11.112,2.713,29.047
1747667767.97,0.045,-0.035,-0.065,-0.865,-0.158,0.113,10.621,2.611,29.134
1747667767.98,0.060,-0.076,-0.043,-0.863,-0.122,0.110,10.131,2.515,29.699
1747667767.99,0.080,-0.059,-0.014,-0.862,-0.110,0.113,9.643,2.436,29.785
1747667768.00,0.071,-0.007,-0.011,-0.863,-0.147,0.116,9.153,2.349,30.344
1747667768.01,0.013,0.024,-0.027,-0.856,-0.137,0.138,8.666,2.252,30.435
1747667768.02,-0.022,0.007,-0.004,-0.899,-0.065,0.222,8.170,2.174,31.015
1747667768.03,0.010,-0.047,0.034,-0.922,0.002,0.374,7.654,2.133,31.205
1747667768.04,0.107,-0.091,-0.011,-0.913,-0.010,0.464,7.138,2.097,31.918
1747667768.05,0.155,-0.083,-0.059,-0.895,-0.004,0.442,6.631,2.059,32.199
1747667768.06,0.110,-0.007,-0.022,-0.864,-0.036,0.394,6.138,2.021,32.901
1747667768.07,0.019,0.066,-0.023,-0.861,-0.063,0.366,5.653,1.966,33.135
1747667768.08,-0.085,0.087,-0.013,-0.853,0.015,0.361,5.169,1.927,33.800
1747667768.09,-0.152,0.039,0.026,-0.869,0.168,0.357,4.687,1.960,34.022
1747667768.10,-0.154,-0.035,0.052,-0.875,0.267,0.355,4.196,2.071,34.669
1747667768.11,-0.119,-0.053,0.004,-0.894,0.290,0.367,3.699,2.218,34.894
1747667768.12,-0.071,-0.000,-0.094,-0.877,0.252,0.352,3.201,2.359,35.550
1747667768.13,-0.067,0.093,-0.160,-0.849,0.205,0.296,2.717,2.479,35.757
1747667768.14,-0.125,0.157,-0.132,-0.805,0.149,0.220,2.252,2.571,36.336
1747667768.15,-0.173,0.138,-0.086,-0.832,0.189,0.142,1.793,2.659,36.461
1747667768.16,-0.156,0.059,-0.032,-0.894,0.267,0.074,1.303,2.790,36.954
1747667768.17,-0.088,-0.015,-0.014,-0.945,0.261,0.038,0.780,2.941,37.010
1747667768.18,-0.027,-0.058,-0.051,-0.974,0.238,0.060,0.234,3.085,37.472
1747667768.19,0.011,-0.065,-0.094,-0.991,0.172,0.092,-0.325,3.203,37.937
1747667768.20,0.000,-0.026,-0.170,-1.007,0.158,0.093,-0.891,3.294,38.023
1747667768.21,-0.042,0.025,-0.148,-1.008,0.177,0.069,-1.464,3.392,38.464
1747667768.22,-0.063,0.054,-0.101,-1.013,0.195,0.016,-2.038,3.500,38.524
1747667768.23,-0.077,0.066,-0.053,-1.038,0.244,-0.021,-2.623,3.626,38.920
1747667768.24,-0.034,0.039,-0.005,-1.074,0.264,-0.018,-3.225,3.775,38.946
1747667768.25,0.043,-0.011,-0.003,-1.122,0.244,0.039,-3.850,3.922,39.358
1747667768.26,0.120,-0.057,-0.052,-1.173,0.203,0.123,-4.500,4.056,39.449
1747667768.27,0.161,-0.084,-0.062,-1.193,0.176,0.205,-5.168,4.175,39.937
1747667768.28,0.152,-0.087,-0.060,-1.226,0.173,0.254,-5.847,4.292,40.121
1747667768.29,0.120,-0.067,-0.069,-1.257,0.172,0.262,-6.545,4.411,40.650
1747667768.30,0.067,-0.030,-0.055,-1.242,0.188,0.217,-7.247,4.536,40.845
1747667768.31,0.005,0.015,-0.040,-1.237,0.178,0.153,-7.945,4.665,41.321
1747667768.32,-0.051,0.032,0.016,-1.233,0.156,0.132,-8.640,4.778,41.459
1747667768.33,-0.065,-0.001,0.023,-1.287,0.201,0.176,-9.348,4.902,41.910
1747667768.34,0.003,-0.055,0.003,-1.323,0.228,0.243,-10.083,5.059,42.097
1747667768.35,0.074,-0.087,-0.020,-1.319,0.225,0.275,-10.822,5.228,42.618
1747667768.36,0.097,-0.074,-0.042,-1.333,0.159,0.296,-11.560,5.387,42.856
1747667768.37,0.077,-0.035,-0.072,-1.311,0.090,0.307,-12.297,5.506,43.246
1747667768.38,0.017,0.010,-0.087,-1.279,0.142,0.302,-13.013,5.623,43.497
1747667768.39,-0.027,0.054,-0.059,-1.292,0.212,0.236,-13.730,5.782,43.731
1747667768.40,-0.091,0.092,-0.017,-1.253,0.216,0.111,-14.444,5.949,43.909
1747667768.41,-0.199,0.117,0.044,-1.198,0.276,0.014,-15.136,6.115,44.020
1747667768.42,-0.237,0.099,0.091,-1.189,0.311,-0.033,-15.814,6.305,44.090
1747667768.43,-0.199,0.050,0.045,-1.178,0.283,-0.043,-16.489,6.487,44.144
1747667768.44,-0.137,0.004,-0.008,-1.200,0.377,-0.020,-17.163,6.690,44.206
1747667768.45,-0.026,-0.027,0.005,-1.237,0.465,-0.004,-17.856,6.958,44.287
1747667768.46,0.061,-0.024,-0.005,-1.215,0.420,-0.029,-18.555,7.240,44.370
1747667768.47,0.050,0.001,-0.030,-1.131,0.351,-0.089,-19.224,7.477,44.425
1747667768.48,-0.007,0.020,-0.044,-1.118,0.332,-0.140,-19.869,7.676,44.444
1747667768.49,-0.048,-0.003,-0.059,-1.107,0.372,-0.154,-20.511,7.877,44.447
1747667768.50,-0.071,-0.067,-0.006,-1.125,0.459,-0.150,-21.153,8.113,44.449
1747667768.51,-0.074,-0.120,0.022,-1.178,0.534,-0.147,-21.814,8.404,44.460
1747667768.52,-0.058,-0.130,-0.012,-1.220,0.499,-0.163,-22.510,8.707,44.477
1747667768.53,-0.090,-0.111,-0.041,-1.159,0.443,-0.177,-23.195,8.977,44.486
1747667768.54,-0.140,-0.074,-0.051,-1.196,0.400,-0.198,-23.875,9.219,44.487
1747667768.55,-0.162,-0.026,-0.079,-1.182,0.359,-0.214,-24.568,9.431,44.480
1747667768.56,-0.159,0.001,-0.066,-1.148,0.415,-0.229,-25.244,9.642,44.463
1747667768.57,-0.106,0.018,-0.001,-1.134,0.470,-0.257,-25.909,9.885,44.435
1747667768.58,-0.055,0.028,0.017,-1.149,0.449,-0.289,-26.578,10.129,44.390
1747667768.59,-0.039,0.021,0.001,-1.136,0.449,-0.295,-27.250,10.358,44.335
1747667768.60,-0.019,-0.000,0.001,-1.122,0.460,-0.283,-27.914,10.594,44.283
1747667768.61,-0.002,-0.021,-0.013,-1.120,0.460,-0.257,-28.572,10.839,44.246
1747667768.62,-0.011,-0.034,-0.024,-1.136,0.450,-0.234,-29.230,11.091,44.230
1747667768.63,-0.039,-0.042,-0.029,-1.157,0.474,-0.235,-29.898,11.352,44.226
1747667768.64,-0.054,-0.045,-0.031,-1.170,0.466,-0.252,-30.579,11.620,44.222
1747667768.65,-0.054,-0.043,-0.019,-1.157,0.446,-0.259,-31.260,11.875,44.214
1747667768.66,-0.043,-0.031,-0.012,-1.163,0.438,-0.259,-31.937,12.123,44.206
1747667768.67,-0.012,-0.019,-0.015,-1.174,0.422,-0.269,-32.622,12.366,44.200
1747667768.68,0.017,-0.017,-0.020,-1.147,0.379,-0.265,-33.302,12.589,44.191
1747667768.69,0.047,-0.024,-0.034,-1.134,0.369,-0.245,-33.968,12.802,44.192
1747667768.70,0.077,-0.033,-0.027,-1.149,0.349,-0.235,-34.635,13.017,44.207
1747667768.71,0.078,-0.034,-0.010,-1.161,0.298,-0.243,-35.308,13.214,44.228
1747667768.72,0.053,-0.028,-0.025,-1.194,0.230,-0.268,-35.995,13.376,44.244
1747667768.73,0.020,-0.017,-0.008,-1.238,0.167,-0.305,-36.709,13.490,44.244
1747667768.74,-0.023,-0.005,0.045,-1.249,0.138,-0.292,-37.441,13.576,44.244
1747667768.75,-0.043,0.009,0.053,-1.249,0.120,-0.259,-38.172,13.661,44.262
1747667768.76,-0.040,0.021,-0.005,-1.266,0.096,-0.215,-38.901,13.754,44.312
1747667768.77,-0.020,0.028,-0.033,-1.292,0.080,-0.200,-39.639,13.854,44.391
1747667768.78,0.015,0.033,-0.028,-1.301,0.062,-0.211,-40.385,13.950,44.475
1747667768.79,0.046,0.035,-0.012,-1.324,0.000,-0.243,-41.144,14.017,44.548
1747667768.80,0.049,0.034,-0.001,-1.339,-0.060,-0.273,-41.919,14.034,44.604
1747667768.81,0.035,0.024,-0.009,-1.334,-0.070,-0.299,-42.699,14.018,44.638
1747667768.82,0.030,-0.002,-0.003,-1.326,-0.089,-0.288,-43.477,13.992,44.665
1747667768.83,0.018,-0.039,-0.003,-1.290,-0.111,-0.262,-44.241,13.962,44.703
1747667768.84,0.006,-0.076,-0.010,-1.263,-0.112,-0.230,-44.981,13.934,44.757
1747667768.85,0.005,-0.097,0.000,-1.251,-0.060,-0.207,-45.707,13.937,44.831
1747667768.86,-0.002,-0.102,0.013,-1.257,-0.055,-0.196,-46.429,13.972,44.920
1747667768.87,-0.020,-0.095,-0.001,-1.243,-0.109,-0.195,-47.149,13.993,45.013
1747667768.88,-0.045,-0.078,-0.044,-1.224,-0.094,-0.187,-47.859,14.001,45.107
1747667768.89,-0.039,-0.067,-0.039,-1.213,-0.030,-0.183,-48.561,14.041,45.208
1747667768.90,-0.020,-0.065,-0.016,-1.185,0.005,-0.194,-49.251,14.108,45.303
1747667768.91,-0.017,-0.062,-0.011,-1.165,-0.000,-0.189,-49.928,14.176,45.390
1747667768.92,-0.003,-0.058,-0.008,-1.195,0.053,-0.165,-50.606,14.271,45.496
1747667768.93,0.033,-0.057,0.030,-1.222,0.069,-0.162,-51.299,14.411,45.626
1747667768.94,0.052,-0.047,0.049,-1.258,-0.014,-0.123,-52.006,14.552,45.782
1747667768.95,0.042,-0.021,0.017,-1.260,-0.043,-0.090,-52.718,14.692,45.985
1747667768.96,0.033,0.010,0.005,-1.223,-0.029,-0.097,-53.418,14.848,46.202
1747667768.97,0.018,0.036,-0.004,-1.194,-0.055,-0.144,-54.102,14.974,46.387
1747667768.98,-0.015,0.051,-0.019,-1.148,-0.055,-0.163,-54.771,15.066,46.542
1747667768.99,-0.037,0.050,-0.017,-1.135,0.021,-0.201,-55.427,15.154,46.664
1747667769.00,-0.056,0.031,-0.001,-1.121,0.090,-0.268,-56.085,15.246,46.734
1747667769.01,-0.090,0.012,0.015,-1.103,0.109,-0.342,-56.743,15.303,46.735
1747667769.02,-0.118,-0.001,0.000,-1.116,0.138,-0.339,-57.407,15.338,46.693
1747667769.03,-0.111,-0.011,-0.008,-1.117,0.174,-0.320,-58.073,15.410,46.673
1747667769.04,-0.096,-0.011,-0.013,-1.121,0.212,-0.321,-58.735,15.512,46.663
1747667769.05,-0.072,-0.015,-0.039,-1.143,0.226,-0.323,-59.409,15.632,46.656
1747667769.06,-0.046,-0.018,-0.015,-1.104,0.212,-0.315,-60.079,15.754,46.652
1747667769.07,-0.025,-0.017,-0.008,-1.076,0.177,-0.315,-60.726,15.860,46.647
1747667769.08,-0.022,-0.007,-0.018,-1.063,0.190,-0.367,-61.367,15.932,46.611
1747667769.09,-0.031,-0.008,0.016,-1.061,0.248,-0.381,-62.009,15.982,46.527
1747667769.10,-0.028,-0.021,0.010,-1.063,0.308,-0.407,-62.653,16.048,46.422
1747667769.11,-0.037,-0.029,-0.021,-1.100,0.334,-0.433,-63.312,16.112,46.288
1747667769.12,-0.050,-0.038,-0.022,-1.141,0.389,-0.427,-63.996,16.198,46.156
1747667769.13,-0.033,-0.047,-0.002,-1.158,0.470,-0.413,-64.695,16.349,46.050
1747667769.14,-0.002,-0.047,0.031,-1.143,0.473,-0.425,-65.393,16.527,45.814
1747667769.15,0.027,-0.042,0.031,-1.169,0.420,-0.367,-66.090,16.716,45.742
1747667769.16,0.069,-0.024,0.044,-1.156,0.413,-0.318,-66.785,16.967,45.499
1747667769.17,0.106,-0.001,0.063,-1.099,0.342,-0.308,-67.453,17.235,45.550
1747667769.18,0.113,0.020,0.003,-1.093,0.239,-0.328,-68.101,17.434,45.300
1747667769.19,0.108,0.028,-0.049,-1.105,0.175,-0.330,-68.758,17.575,45.330
1747667769.20,0.122,0.013,-0.047,-1.082,0.225,-0.352,-69.413,17.699,45.058
1747667769.21,0.129,-0.020,-0.028,-1.031,0.255,-0.390,-70.053,17.788,45.005
1747667769.22,0.120,-0.050,-0.024,-1.022,0.228,-0.397,-70.679,17.823,44.599
1747667769.23,0.090,-0.059,-0.002,-1.052,0.205,-0.374,-71.312,17.862,44.511
1747667769.24,0.063,-0.056,0.036,-1.066,0.212,-0.328,-71.950,17.964,44.196
1747667769.25,0.038,-0.052,0.006,-1.129,0.243,-0.311,-72.601,18.159,44.268
1747667769.26,0.011,-0.050,-0.005,-1.110,0.293,-0.314,-73.269,18.425,44.068
1747667769.27,-0.008,-0.043,0.017,-1.041,0.246,-0.314,-73.906,18.666,44.156
1747667769.28,-0.028,-0.025,-0.019,-1.058,0.246,-0.293,-74.527,18.894,43.932
1747667769.29,-0.042,-0.008,0.001,-1.082,0.365,-0.288,-75.162,19.236,44.106
1747667769.30,-0.029,-0.006,0.031,-1.032,0.391,-0.284,-75.787,19.642,43.966
1747667769.31,-0.033,-0.012,-0.019,-0.993,0.296,-0.305,-76.386,19.992,44.124
1747667769.32,-0.051,-0.006,-0.067,-0.975,0.278,-0.312,-76.975,20.266,43.899
1747667769.33,-0.037,0.008,-0.052,-0.932,0.378,-0.332,-77.550,20.532,43.982
1747667769.34,0.004,0.023,-0.010,-0.875,0.455,-0.347,-78.102,20.771,43.626
1747667769.35,0.038,0.036,0.018,-0.798,0.387,-0.366,-78.620,20.922,43.530
1747667769.36,0.047,0.042,0.013,-0.776,0.317,-0.395,-79.114,20.892,42.942
1747667769.37,0.038,0.030,0.013,-0.841,0.332,-0.388,-79.623,20.827,42.687
1747667769.38,0.038,0.000,0.097,-0.942,0.265,-0.370,-80.178,20.881,42.204
1747667769.39,0.003,-0.031,0.122,-0.941,0.235,-0.350,-80.757,21.025,42.212
1747667769.40,-0.034,-0.058,0.042,-0.858,0.305,-0.346,-81.311,21.181,41.843
1747667769.41,-0.040,-0.077,0.011,-0.745,0.409,-0.325,-81.806,21.287,41.746
1747667769.42,-0.030,-0.083,-0.013,-0.728,0.562,-0.291,-82.258,21.488,41.671
1747667769.43,-0.023,-0.057,-0.002,-0.745,0.663,-0.296,-82.710,21.848,41.678
1747667769.44,-0.043,-0.007,0.000,-0.773,0.737,-0.315,-83.177,22.253,41.685
1747667769.45,-0.058,0.043,-0.018,-0.802,0.792,-0.318,-83.663,22.735,41.726
1747667769.46,-0.044,0.062,0.028,-0.816,0.790,-0.280,-84.156,23.403,41.945
1747667769.47,-0.029,0.059,0.076,-0.779,0.722,-0.247,-84.636,24.335,42.447
1747667769.48,-0.011,0.033,0.091,-0.710,0.639,-0.245,-85.081,25.300,43.024
1747667769.49,0.015,-0.007,0.043,-0.676,0.529,-0.241,-85.496,26.187,43.580
1747667769.50,0.056,-0.049,0.014,-0.727,0.427,-0.222,-85.911,27.275,44.397
1747667769.51,0.091,-0.078,0.025,-0.808,0.329,-0.226,-86.359,28.930,45.832
1747667769.52,0.083,-0.084,0.047,-0.761,0.258,-0.252,-86.819,30.882,47.626
1747667769.53,0.065,-0.098,0.043,-0.724,0.245,-0.265,-87.254,32.915,49.516
1747667769.54,0.052,-0.090,0.062,-0.722,0.168,-0.285,-87.684,35.321,51.804
1747667769.55,0.028,-0.049,0.008,-0.701,0.089,-0.292,-88.111,38.495,54.913
1747667769.56,0.025,0.003,-0.060,-0.633,0.057,-0.299,-88.511,42.552,58.930
1747667769.57,0.046,0.029,-0.079,-0.565,0.034,-0.276,-88.870,48.162,64.516
1747667769.58,0.070,0.046,-0.072,-0.510,0.073,-0.216,-89.168,57.378,73.706
1747667769.59,0.084,0.051,-0.067,-0.488,0.136,-0.160,-89.383,74.630,90.898
1747667769.60,0.069,0.039,-0.057,-0.466,0.111,-0.132,-89.476,102.008,118.203
1747667769.61,0.015,-0.003,-0.049,-0.448,0.083,-0.096,-89.420,129.747,145.887
1747667769.62,-0.041,-0.035,-0.027,-0.410,0.088,-0.076,-89.265,147.194,163.290
1747667769.63,-0.075,-0.053,-0.052,-0.347,0.225,-0.104,-89.097,157.468,173.481
1747667769.64,-0.102,-0.049,-0.057,-0.297,0.362,-0.146,-88.946,165.045,-179.112
1747667769.65,-0.121,-0.026,-0.063,-0.261,0.454,-0.176,-88.809,171.614,-172.777
1747667769.66,-0.108,0.004,-0.071,-0.236,0.570,-0.170,-88.678,177.038,-167.642
1747667769.67,-0.056,0.034,-0.058,-0.239,0.643,-0.143,-88.544,-178.841,-163.870
1747667769.68,-0.010,0.074,-0.020,-0.230,0.609,-0.120,-88.406,-175.923,-161.314
1747667769.69,0.011,0.063,0.013,-0.220,0.493,-0.107,-88.273,-173.791,-159.498
1747667769.70,0.020,0.026,0.012,-0.208,0.424,-0.099,-88.144,-172.158,-158.124
1747667769.71,0.059,-0.030,-0.009,-0.186,0.372,-0.090,-88.023,-170.801,-156.993
1747667769.72,0.108,-0.071,-0.013,-0.101,0.310,-0.057,-87.932,-169.794,-156.180
1747667769.73,0.135,-0.075,-0.023,0.036,0.259,-0.015,-87.912,-169.175,-155.720
1747667769.74,0.133,-0.055,-0.052,0.127,0.248,0.021,-87.960,-168.784,-155.473
1747667769.75,0.097,0.058,-0.034,0.165,0.154,0.045,-88.048,-168.777,-155.585
1747667769.76,0.005,0.100,-0.030,0.167,0.071,0.033,-88.147,-168.840,-155.708
1747667769.77,-0.095,0.053,-0.037,0.144,0.114,0.009,-88.238,-168.617,-155.534
1747667769.78,-0.135,-0.005,-0.013,0.082,0.188,-0.011,-88.303,-168.051,-155.054
1747667769.79,-0.116,-0.049,0.009,0.026,0.273,-0.003,-88.331,-167.557,-154.691
1747667769.80,-0.035,-0.062,0.021,0.003,0.323,0.022,-88.339,-167.544,-154.852
1747667769.81,0.058,-0.046,0.033,0.004,0.252,0.019,-88.342,-167.785,-155.263
1747667769.82,0.105,-0.029,0.042,0.059,0.070,0.006,-88.360,-167.858,-155.431
1747667769.83,0.112,-0.021,0.009,0.144,-0.129,-0.010,-88.417,-167.394,-154.949
1747667769.84,0.095,-0.008,-0.043,0.216,-0.251,-0.026,-88.515,-166.234,-153.676
1747667769.85,0.057,0.006,-0.059,0.262,-0.260,-0.024,-88.644,-164.424,-151.716
1747667769.86,0.019,0.015,-0.048,0.264,-0.252,-0.036,-88.785,-161.875,-149.021
1747667769.87,-0.031,0.037,-0.029,0.247,-0.245,-0.058,-88.913,-158.255,-145.257
1747667769.88,-0.075,0.048,-0.027,0.227,-0.172,-0.066,-89.021,-153.423,-140.302
1747667769.89,-0.086,0.029,-0.002,0.224,-0.033,-0.052,-89.117,-147.780,-134.598
1747667769.90,-0.083,-0.011,0.036,0.223,0.111,-0.034,-89.208,-141.585,-128.427
1747667769.91,-0.080,-0.035,0.051,0.205,0.200,-0.020,-89.291,-134.567,-121.500
1747667769.92,-0.073,-0.027,0.043,0.154,0.219,0.008,-89.360,-127.637,-114.691
1747667769.93,-0.062,0.001,0.039,0.074,0.249,0.036,-89.409,-123.378,-110.564
1747667769.94,-0.046,0.021,0.090,0.064,0.277,0.045,-89.448,-121.413,-108.751
1747667769.95,-0.034,0.022,0.134,0.097,0.225,0.029,-89.489,-118.023,-105.506
1747667769.96,-0.029,0.012,0.109,0.107,0.136,0.018,-89.526,-112.305,-99.891
1747667769.97,-0.020,0.002,0.078,0.116,0.052,0.014,-89.555,-105.106,-92.746
1747667769.98,-0.006,-0.007,0.077,0.158,-0.065,-0.014,-89.562,-95.503,-83.139
1747667769.99,-0.009,-0.010,0.043,0.216,-0.080,-0.062,-89.532,-82.829,-70.417
1747667770.00,-0.018,-0.002,0.005,0.296,-0.009,-0.100,-89.450,-68.244,-55.807
1747667770.01,-0.024,0.003,-0.003,0.342,0.005,-0.111,-89.308,-55.795,-43.359
1747667770.02,-0.054,0.000,-0.011,0.307,-0.071,-0.068,-89.149,-47.261,-34.809
1747667770.03,-0.089,-0.008,0.006,0.257,-0.167,-0.031,-89.015,-41.552,-29.029
1747667770.04,-0.110,-0.029,-0.013,0.241,-0.161,-0.018,-88.907,-37.861,-25.240
1747667770.05,-0.080,-0.054,-0.036,0.263,-0.083,0.006,-88.794,-34.231,-21.538
1747667770.06,0.001,-0.064,-0.028,0.304,-0.003,0.055,-88.672,-29.935,-17.217
1747667770.07,0.096,-0.056,-0.017,0.370,-0.006,0.097,-88.522,-24.734,-12.017
1747667770.08,0.153,-0.014,-0.025,0.447,-0.152,0.105,-88.328,-19.551,-6.790
1747667770.09,0.133,0.063,-0.057,0.506,-0.329,0.084,-88.084,-15.398,-2.496
1747667770.10,0.057,0.119,-0.059,0.544,-0.352,0.071,-87.803,-12.411,0.696
1747667770.11,0.000,0.100,-0.007,0.578,-0.228,0.065,-87.496,-10.111,3.166
1747667770.12,-0.027,0.016,0.050,0.588,-0.097,0.047,-87.170,-8.371,5.000
1747667770.13,-0.045,-0.072,0.035,0.549,-0.015,0.059,-86.852,-7.029,6.373
1747667770.14,-0.037,-0.134,0.008,0.542,0.022,0.106,-86.549,-5.638,7.765
1747667770.15,-0.006,-0.155,-0.006,0.579,0.037,0.163,-86.237,-3.970,9.417
1747667770.16,0.014,-0.121,-0.007,0.605,-0.028,0.200,-85.905,-2.176,11.209
1747667770.17,0.012,-0.035,-0.023,0.631,-0.214,0.208,-85.554,-0.559,12.655
1747667770.18,-0.012,0.066,-0.066,0.662,-0.318,0.200,-85.185,0.695,14.074
1747667770.19,-0.035,0.115,-0.074,0.724,-0.139,0.224,-84.789,1.828,14.881
1747667770.20,0.001,0.079,0.016,0.799,0.090,0.247,-84.348,3.055,16.123
1747667770.21,0.032,0.009,0.122,0.828,0.089,0.257,-83.873,4.230,16.778
1747667770.22,0.006,-0.043,0.124,0.830,-0.063,0.272,-83.390,5.239,17.785
1747667770.23,-0.040,-0.064,0.043,0.832,-0.184,0.309,-82.901,6.144,18.320
1747667770.24,-0.059,-0.061,0.042,0.848,-0.211,0.361,-82.404,7.081,19.382
1747667770.25,-0.045,-0.034,0.085,0.892,-0.107,0.373,-81.884,8.028,20.003
1747667770.26,-0.034,0.012,0.128,0.918,0.093,0.352,-81.340,8.903,20.892
1747667770.27,-0.038,0.047,0.177,0.912,0.108,0.284,-80.796,9.590,21.107
1747667770.28,-0.077,0.066,0.173,0.917,-0.157,0.206,-80.257,9.874,21.406
1747667770.29,-0.126,0.073,0.043,0.893,-0.333,0.174,-79.729,9.826,21.093
1747667770.30,-0.117,0.055,-0.007,0.884,-0.340,0.144,-79.217,9.663,21.125
1747667770.31,-0.063,0.022,0.048,0.984,-0.351,0.080,-78.684,9.343,20.599
1747667770.32,-0.040,0.015,0.034,1.145,-0.334,0.037,-78.078,8.834,20.282
1747667770.33,-0.012,0.030,-0.005,1.222,-0.216,0.036,-77.402,8.294,19.503
1747667770.34,0.012,0.044,-0.012,1.122,-0.032,0.068,-76.730,7.936,19.209
1747667770.35,-0.027,0.048,0.067,0.973,0.049,0.086,-76.134,7.794,18.693
1747667770.36,-0.112,0.030,0.133,0.906,-0.004,0.131,-75.598,7.755,18.639
1747667770.37,-0.192,-0.005,0.079,0.901,0.059,0.234,-75.074,7.883,18.426
1747667770.38,-0.194,-0.047,0.049,0.876,0.252,0.331,-74.547,8.303,18.770
1747667770.39,-0.095,-0.077,0.084,0.854,0.397,0.353,-74.032,8.928,18.905
1747667770.40,0.040,-0.086,0.082,0.911,0.337,0.300,-73.508,9.509,19.283
1747667770.41,0.156,-0.063,-0.005,1.059,0.114,0.212,-72.931,9.809,19.163
1747667770.42,0.208,-0.017,-0.095,1.185,-0.047,0.147,-72.278,9.789,19.125
1747667770.43,0.219,0.026,-0.063,1.166,-0.070,0.091,-71.601,9.612,18.674
1747667770.44,0.163,0.060,0.038,1.077,-0.109,-0.012,-70.964,9.318,18.413
1747667770.45,-0.024,0.093,0.049,0.923,-0.128,-0.019,-70.401,8.941,17.799
1747667770.46,-0.199,0.071,-0.008,0.761,-0.025,0.116,-69.925,8.757,17.653
1747667770.47,-0.230,-0.002,0.039,0.706,0.136,0.296,-69.496,8.930,17.523
1747667770.48,-0.155,-0.063,0.043,0.706,0.261,0.428,-69.067,9.423,17.927
1747667770.49,0.018,-0.089,0.024,0.805,0.265,0.454,-68.603,10.051,18.177
1747667770.50,0.193,-0.068,0.019,1.047,0.054,0.345,-68.043,10.487,18.541
1747667770.51,0.295,-0.013,-0.057,1.263,-0.250,0.154,-67.367,10.481,18.378
1747667770.52,0.317,0.032,-0.127,1.352,-0.438,0.013,-66.615,10.066,18.150
1747667770.53,0.246,0.040,-0.138,1.230,-0.466,-0.082,-65.888,9.473,17.572
1747667770.54,0.061,0.016,-0.066,1.098,-0.425,-0.082,-65.241,8.870,17.195
1747667770.55,-0.154,-0.034,-0.076,0.989,-0.202,0.029,-64.655,8.452,16.731
1747667770.56,-0.269,-0.101,-0.047,0.884,0.153,0.187,-64.117,8.401,16.689
1747667770.57,-0.270,-0.158,0.047,0.812,0.300,0.365,-63.618,8.712,16.880
1747667770.58,-0.164,-0.186,0.051,0.832,0.238,0.553,-63.117,9.243,17.297
1747667770.59,0.029,-0.170,-0.007,0.930,0.039,0.641,-62.565,9.837,17.870
1747667770.60,0.221,-0.108,-0.033,1.027,-0.266,0.469,-61.957,10.200,18.351
1747667770.61,0.315,-0.023,-0.092,1.113,-0.558,0.192,-61.322,10.103,18.513
1747667770.62,0.312,0.034,-0.139,1.182,-0.616,-0.006,-60.667,9.643,18.381
1747667770.63,0.209,0.049,-0.072,1.175,-0.499,-0.113,-60.006,9.066,18.087
1747667770.64,0.022,0.054,0.010,1.061,-0.309,-0.147,-59.384,8.532,17.739
1747667770.65,-0.170,0.044,0.075,0.929,-0.052,-0.055,-58.833,8.190,17.462
1747667770.66,-0.268,0.001,0.108,0.856,0.110,0.093,-58.327,8.111,17.342
1747667770.67,-0.276,-0.030,0.036,0.774,0.117,0.266,-57.854,8.233,17.407
1747667770.68,-0.202,-0.030,0.019,0.763,0.117,0.449,-57.392,8.524,17.670
1747667770.69,-0.028,-0.007,0.054,0.845,-0.002,0.524,-56.900,8.888,18.058
1747667770.70,0.118,0.046,0.043,1.012,-0.199,0.386,-56.335,9.111,18.392
1747667770.71,0.177,0.101,-0.025,1.134,-0.374,0.149,-55.704,9.023,18.486
1747667770.72,0.163,0.135,-0.045,1.242,-0.425,-0.059,-55.029,8.673,18.342
1747667770.73,0.067,0.130,0.040,1.274,-0.376,-0.160,-54.323,8.196,18.044
1747667770.74,-0.056,0.091,0.118,1.144,-0.102,-0.155,-53.649,7.795,17.723
1747667770.75,-0.157,0.021,0.151,0.993,0.081,-0.101,-53.057,7.591,17.464
1747667770.76,-0.230,-0.059,0.039,0.886,0.054,0.017,-52.529,7.504,17.301
1747667770.77,-0.222,-0.118,-0.041,0.811,0.125,0.223,-52.041,7.552,17.306
1747667770.78,-0.079,-0.143,0.041,0.795,0.220,0.415,-51.566,7.810,17.503
1747667770.79,0.096,-0.111,0.099,0.868,0.139,0.477,-51.061,8.162,17.816
1747667770.80,0.179,-0.018,0.061,1.002,-0.094,0.287,-50.502,8.354,18.040
1747667770.81,0.180,0.107,-0.005,1.111,-0.340,0.095,-49.888,8.249,18.072
1747667770.82,0.128,0.200,-0.015,1.205,-0.413,-0.095,-49.232,7.915,17.926
1747667770.83,0.059,0.242,0.067,1.269,-0.257,-0.238,-48.545,7.498,17.635
1747667770.84,-0.007,0.225,0.147,1.254,-0.108,-0.281,-47.843,7.125,17.270
1747667770.85,-0.099,0.172,0.094,1.124,-0.044,-0.233,-47.187,6.834,16.928
1747667770.86,-0.181,0.083,0.025,1.009,-0.058,-0.095,-46.596,6.628,16.684
1747667770.87,-0.164,-0.016,-0.028,0.949,-0.049,0.074,-46.043,6.522,16.583
1747667770.88,-0.042,-0.091,0.001,0.938,0.022,0.183,-45.501,6.529,16.605
1747667770.89,0.072,-0.123,0.059,0.986,0.023,0.181,-44.944,6.592,16.667
1747667770.90,0.097,-0.099,0.036,1.018,-0.139,0.123,-44.365,6.584,16.697
1747667770.91,0.050,-0.027,-0.030,1.053,-0.245,0.046,-43.772,6.448,16.671
1747667770.92,0.022,0.051,-0.017,1.092,-0.155,-0.043,-43.164,6.266,16.579
1747667770.93,0.041,0.105,0.060,1.178,0.030,-0.103,-42.526,6.125,16.424
1747667770.94,0.051,0.120,0.059,1.266,0.103,-0.096,-41.835,6.052,16.246
1747667770.94,0.018,0.102,0.007,1.219,-0.029,-0.044,-41.130,5.974,16.090
1747667770.96,-0.033,0.063,-0.047,1.120,-0.118,0.063,-40.466,5.870,16.004
1747667770.97,-0.006,-0.002,-0.023,1.106,-0.060,0.199,-39.830,5.825,16.016
1747667770.98,0.084,-0.084,0.060,1.125,0.025,0.310,-39.180,5.885,16.122
1747667770.99,0.159,-0.148,0.073,1.112,-0.038,0.325,-38.525,5.981,16.273
1747667771.00,0.165,-0.144,0.044,1.129,-0.143,0.289,-37.872,6.013,16.410
1747667771.01,0.107,-0.080,0.029,1.163,-0.183,0.250,-37.203,5.981,16.516
1747667771.02,0.063,0.001,0.033,1.145,-0.148,0.194,-36.534,5.928,16.588
1747667771.02,0.037,0.063,0.050,1.113,-0.097,0.155,-35.881,5.882,16.627
1747667771.04,0.032,0.088,0.029,1.064,-0.082,0.175,-35.254,5.852,16.662
1747667771.04,0.046,0.079,0.015,1.006,-0.131,0.243,-34.654,5.834,16.732
1747667771.05,0.047,0.048,0.018,0.976,-0.198,0.310,-34.076,5.809,16.854
1747667771.06,0.030,0.019,0.032,0.954,-0.252,0.332,-33.510,5.767,17.010
1747667771.08,0.027,0.020,0.029,0.948,-0.315,0.293,-32.953,5.689,17.160
1747667771.08,0.020,0.041,0.019,0.982,-0.391,0.213,-32.392,5.546,17.269
1747667771.10,0.005,0.069,0.015,1.046,-0.413,0.126,-31.807,5.337,17.317
1747667771.10,0.001,0.084,0.015,1.102,-0.346,0.057,-31.190,5.117,17.312
1747667771.11,-0.014,0.064,0.036,1.090,-0.332,0.011,-30.562,4.906,17.270
1747667771.12,-0.062,0.002,0.004,1.045,-0.383,0.036,-29.952,4.677,17.222
1747667771.13,-0.099,-0.083,0.000,0.990,-0.321,0.157,-29.369,4.473,17.229
1747667771.14,-0.058,-0.143,0.044,0.973,-0.104,0.262,-28.803,4.395,17.321
1747667771.15,0.072,-0.139,0.038,1.006,-0.011,0.230,-28.230,4.424,17.435
1747667771.16,0.119,-0.055,0.039,1.066,-0.070,0.176,-27.631,4.442,17.514
1747667771.17,0.065,0.052,0.038,1.120,-0.217,0.150,-27.002,4.383,17.564
1747667771.18,0.003,0.128,0.036,1.194,-0.313,0.134,-26.337,4.245,17.599
1747667771.19,-0.040,0.156,0.041,1.268,-0.345,0.081,-25.631,4.060,17.611
1747667771.20,-0.053,0.134,0.053,1.310,-0.314,0.024,-24.894,3.860,17.587
1747667771.21,-0.045,0.069,0.075,1.332,-0.249,0.008,-24.140,3.678,17.541
1747667771.22,-0.022,-0.019,0.065,1.301,-0.125,0.048,-23.385,3.556,17.506
1747667771.23,0.011,-0.093,-0.003,1.229,-0.038,0.101,-22.662,3.512,17.504
1747667771.24,-0.004,-0.124,-0.018,1.204,-0.008,0.169,-21.965,3.514,17.540
1747667771.25,-0.062,-0.110,-0.011,1.162,-0.009,0.241,-21.283,3.540,17.621
1747667771.26,-0.101,-0.049,-0.003,1.152,-0.009,0.248,-20.617,3.574,17.731
1747667771.27,-0.105,0.035,0.014,1.205,0.021,0.153,-19.940,3.603,17.811
1747667771.28,-0.075,0.091,0.055,1.301,0.057,-0.000,-19.223,3.627,17.810
1747667771.29,-0.025,0.099,0.092,1.381,0.014,-0.126,-18.460,3.619,17.718
1747667771.30,0.016,0.058,0.097,1.394,-0.097,-0.183,-17.673,3.550,17.570
1747667771.31,0.024,-0.011,0.091,1.387,-0.189,-0.163,-16.888,3.418,17.412
1747667771.32,0.026,-0.080,0.021,1.419,-0.240,-0.085,-16.091,3.261,17.290
1747667771.33,0.051,-0.113,-0.021,1.392,-0.196,0.018,-15.289,3.112,17.223
1747667771.34,0.069,-0.092,-0.005,1.389,-0.019,0.095,-14.497,3.047,17.216
1747667771.35,0.076,-0.008,0.016,1.412,0.114,0.123,-13.694,3.084,17.238
1747667771.36,-0.004,0.091,-0.021,1.405,0.121,0.142,-12.884,3.161,17.270
1747667771.37,-0.092,0.146,-0.033,1.373,0.163,0.147,-12.088,3.247,17.310
1747667771.38,-0.099,0.136,0.013,1.372,0.208,0.095,-11.296,3.375,17.331
1747667771.39,-0.068,0.072,0.025,1.384,0.120,0.051,-10.509,3.470,17.326
1747667771.40,-0.028,-0.019,-0.017,1.387,0.005,-0.019,-9.718,3.498,17.286
1747667771.41,-0.012,-0.108,-0.028,1.326,-0.033,-0.092,-8.946,3.473,17.205
1747667771.42,0.007,-0.185,-0.044,1.292,-0.072,-0.135,-8.204,3.429,17.091
1747667771.43,0.033,-0.219,-0.092,1.295,-0.087,-0.113,-7.472,3.362,16.974
1747667771.44,0.016,-0.140,-0.024,1.387,0.080,-0.091,-6.713,3.343,16.872
1747667771.45,0.001,0.073,0.044,1.462,0.287,-0.115,-5.902,3.440,16.766
1747667771.46,-0.015,0.218,-0.002,1.401,0.327,-0.124,-5.084,3.614,16.645
1747667771.47,-0.068,0.228,-0.055,1.309,0.268,-0.076,-4.321,3.771,16.537
1747667771.48,-0.059,0.147,-0.092,1.270,0.202,-0.063,-3.587,3.906,16.449
1747667771.49,-0.017,0.010,-0.110,1.204,0.101,-0.074,-2.885,3.987,16.361
1747667771.50,0.032,-0.083,-0.101,1.150,0.004,-0.090,-2.219,4.011,16.267
1747667771.51,0.070,-0.106,-0.110,1.113,-0.016,-0.094,-1.578,4.001,16.170
1747667771.52,0.085,-0.114,-0.065,1.075,0.028,-0.109,-0.960,4.000,16.069
1747667771.53,0.055,-0.084,0.008,1.061,0.089,-0.109,-0.357,4.033,15.962
1747667771.54,-0.002,0.009,0.045,1.039,0.097,-0.059,0.240,4.089,15.870
1747667771.55,-0.040,0.092,0.026,0.979,0.082,0.019,0.813,4.142,15.817
1747667771.56,-0.013,0.138,0.005,0.989,0.084,0.075,1.370,4.188,15.805
1747667771.57,0.070,0.157,0.002,1.034,0.102,0.085,1.954,4.242,16.075
1747667771.58,0.153,0.108,-0.061,0.964,-0.006,0.051,2.530,4.276,16.072
1747667771.59,0.211,-0.016,-0.167,0.920,-0.128,0.037,3.064,4.233,16.582
1747667771.60,0.216,-0.140,-0.182,0.956,-0.076,0.063,3.601,4.170,16.572
1747667771.61,0.158,-0.183,-0.068,0.915,0.019,0.048,4.137,4.158,17.082
1747667771.62,0.053,-0.126,-0.003,0.891,0.021,0.046,4.651,4.171,17.070
1747667771.63,-0.031,-0.021,-0.029,0.899,0.061,0.088,5.163,4.191,17.589
1747667771.64,-0.073,0.062,0.003,0.858,0.129,0.121,5.670,4.243,17.613
1747667771.65,-0.093,0.117,0.010,0.828,0.133,0.127,6.153,4.317,18.160
1747667771.66,-0.106,0.144,-0.044,0.829,0.090,0.136,6.631,4.378,18.200
1747667771.67,-0.089,0.105,-0.076,0.790,0.032,0.109,7.099,4.409,18.728
1747667771.68,-0.032,0.022,-0.093,0.760,-0.035,0.042,7.542,4.408,19.236
1747667771.69,0.036,-0.055,-0.094,0.738,-0.158,-0.029,7.970,4.360,19.205
1747667771.70,0.050,-0.126,-0.103,0.741,-0.233,-0.051,8.386,4.252,19.642
1747667771.71,0.013,-0.122,-0.113,0.752,-0.178,-0.049,8.814,4.142,19.582
1747667771.72,-0.019,-0.046,-0.068,0.697,-0.142,-0.060,9.225,4.063,19.996
1747667771.73,-0.029,0.057,-0.074,0.693,-0.177,-0.036,9.617,3.982,19.940
1747667771.74,-0.060,0.128,-0.085,0.698,-0.152,-0.005,10.015,3.891,20.360
1747667771.75,-0.103,0.127,-0.068,0.669,-0.065,-0.010,10.403,3.834,20.330
1747667771.76,-0.118,0.075,-0.063,0.653,-0.018,-0.046,10.779,3.819,20.741
1747667771.77,-0.089,0.007,-0.067,0.614,-0.004,-0.073,11.139,3.824,20.680
1747667771.78,-0.014,-0.070,-0.051,0.562,-0.032,-0.099,11.469,3.831,21.055
1747667771.79,0.073,-0.124,-0.056,0.513,-0.119,-0.110,11.772,3.806,20.972
1747667771.80,0.123,-0.163,-0.099,0.455,-0.217,-0.098,12.045,3.727,21.334
1747667771.81,0.140,-0.148,-0.125,0.417,-0.312,-0.063,12.290,3.587,21.270
1747667771.82,0.145,-0.089,-0.127,0.447,-0.336,-0.018,12.531,3.406,21.672
1747667771.83,0.121,0.015,-0.073,0.482,-0.243,0.026,12.799,3.238,21.659
1747667771.84,0.043,0.095,0.048,0.451,-0.076,0.056,13.067,3.144,22.108
1747667771.85,-0.019,0.066,0.095,0.458,0.053,0.122,13.328,3.131,22.143
1747667771.86,-0.032,-0.015,0.086,0.449,0.126,0.208,13.594,3.165,22.655
1747667771.87,0.007,-0.061,0.079,0.420,0.123,0.246,13.849,3.211,22.775
1747667771.88,0.086,-0.055,0.035,0.412,0.037,0.259,14.094,3.225,23.332
1747667771.89,0.151,-0.020,-0.026,0.385,-0.041,0.284,14.332,3.188,23.477
1747667771.90,0.166,-0.017,-0.060,0.337,-0.087,0.340,14.548,3.107,24.065
1747667771.91,0.146,-0.021,-0.085,0.294,-0.105,0.432,14.741,2.998,24.280
1747667771.92,0.118,0.003,-0.092,0.226,-0.108,0.593,14.904,2.860,24.977
1747667771.93,0.079,0.003,-0.081,0.195,-0.039,0.773,15.041,2.711,25.375
1747667771.94,0.044,-0.031,-0.073,0.173,0.053,0.932,15.167,2.587,26.265
1747667771.95,0.047,-0.059,-0.049,0.142,0.170,0.985,15.284,2.505,26.832
1747667771.96,0.031,-0.069,-0.061,0.108,0.215,0.991,15.380,2.463,27.797
1747667771.97,-0.002,-0.046,-0.073,0.066,0.281,0.979,15.454,2.451,28.378
1747667771.98,-0.011,-0.092,-0.046,0.017,0.267,0.997,15.503,2.460,29.342
1747667771.99,0.006,-0.134,-0.034,-0.089,0.309,0.959,15.506,2.473,29.927
1747667772.00,0.046,-0.131,-0.008,-0.112,0.231,0.783,15.469,2.491,30.807
1747667772.01,0.082,-0.044,-0.046,-0.118,0.130,0.813,15.421,2.468,31.284
1747667772.02,0.081,0.007,-0.088,-0.138,0.076,0.794,15.370,2.397,32.134
1747667772.03,-0.001,0.043,-0.099,-0.194,0.057,0.754,15.294,2.310,32.596
1747667772.04,-0.047,0.024,-0.109,-0.245,0.061,0.740,15.184,2.233,33.412
1747667772.05,-0.024,-0.067,-0.085,-0.370,0.183,0.756,15.035,2.181,33.875
1747667772.06,0.036,-0.169,-0.029,-0.406,0.210,0.619,14.822,2.189,34.646
1747667772.07,0.039,-0.075,-0.006,-0.412,0.198,0.582,14.604,2.218,35.003
1747667772.08,0.080,-0.021,-0.081,-0.449,0.107,0.599,14.370,2.216,35.364
1747667772.09,0.075,0.018,-0.126,-0.480,0.056,0.609,14.117,2.172,35.729
1747667772.10,0.069,0.029,-0.140,-0.491,0.030,0.653,13.854,2.104,36.297
1747667772.11,0.061,0.007,-0.104,-0.533,0.025,0.690,13.577,2.024,36.703
1747667772.12,0.048,-0.006,-0.071,-0.581,0.034,0.715,13.272,1.943,37.476
1747667772.13,0.070,-0.034,-0.046,-0.614,0.096,0.788,12.946,1.881,37.924
1747667772.14,0.098,-0.037,-0.012,-0.616,0.099,0.781,12.609,1.831,38.742
1747667772.15,0.049,0.010,-0.026,-0.633,0.133,0.680,12.266,1.799,39.182
1747667772.16,-0.008,0.060,-0.054,-0.618,0.194,0.734,11.928,1.785,39.937
1747667772.17,-0.033,0.008,-0.085,-0.646,0.191,0.566,11.576,1.816,40.330
1747667772.18,-0.117,0.048,-0.061,-0.663,0.245,0.498,11.212,1.877,40.954
1747667772.19,-0.061,0.017,-0.064,-0.713,0.220,0.488,10.830,1.957,41.254
1747667772.20,0.016,-0.046,-0.022,-0.746,0.128,0.483,10.421,2.001,41.856
1747667772.21,0.059,-0.031,-0.030,-0.744,0.004,0.493,10.005,1.989,42.155
1747667772.22,0.096,0.034,-0.051,-0.725,-0.104,0.463,9.595,1.907,42.753
1747667772.23,0.081,0.116,-0.067,-0.712,-0.158,0.417,9.193,1.789,43.022
1747667772.24,0.037,0.144,-0.075,-0.701,-0.178,0.330,8.796,1.655,43.542
1747667772.25,-0.055,0.073,-0.054,-0.692,-0.096,0.246,8.406,1.545,43.718
1747667772.26,-0.121,-0.046,0.002,-0.741,0.036,0.213,8.000,1.510,44.151
1747667772.27,-0.125,-0.097,0.027,-0.769,0.107,0.208,7.571,1.537,44.284
1747667772.28,-0.110,-0.065,-0.016,-0.752,0.099,0.201,7.138,1.581,44.696
1747667772.29,-0.102,0.018,-0.043,-0.716,0.098,0.120,6.723,1.626,44.802
1747667772.30,-0.095,0.130,-0.033,-0.702,0.069,0.057,6.321,1.667,45.138
1747667772.31,-0.086,0.191,-0.074,-0.674,-0.012,0.077,5.928,1.680,45.186
1747667772.32,-0.092,0.199,-0.112,-0.669,-0.102,0.091,5.549,1.642,45.522
1747667772.33,-0.101,0.155,-0.123,-0.695,-0.150,0.073,5.161,1.563,45.578
1747667772.34,-0.086,0.021,-0.107,-0.706,-0.156,0.062,4.762,1.472,45.889
1747667772.35,-0.061,-0.134,-0.041,-0.718,-0.115,0.075,4.359,1.388,45.939
1747667772.36,-0.032,-0.213,0.034,-0.745,-0.062,0.063,3.940,1.336,46.250
1747667772.37,-0.015,-0.178,0.048,-0.722,-0.059,0.020,3.521,1.298,46.284
1747667772.38,-0.054,-0.047,-0.001,-0.681,-0.039,0.028,3.120,1.271,46.562
1747667772.39,-0.131,0.090,-0.056,-0.665,-0.014,0.089,2.739,1.253,46.602
1747667772.40,-0.213,0.163,-0.091,-0.688,0.061,0.168,2.354,1.262,46.939
1747667772.41,-0.207,0.136,-0.130,-0.723,0.174,0.198,1.954,1.324,47.055
1747667772.42,-0.136,0.008,-0.097,-0.774,0.294,0.194,1.530,1.453,47.433
1747667772.43,-0.036,-0.119,-0.026,-0.837,0.343,0.180,1.072,1.636,47.555
1747667772.44,0.061,-0.173,0.017,-0.871,0.230,0.146,0.586,1.804,47.914
1747667772.45,0.092,-0.141,-0.032,-0.891,0.080,0.154,0.084,1.890,48.015
1747667772.46,0.087,-0.065,-0.062,-0.853,-0.023,0.168,-0.412,1.903,48.379
1747667772.47,0.045,0.028,-0.044,-0.881,-0.008,0.157,-0.901,1.893,48.488
1747667772.48,-0.011,0.111,-0.046,-0.857,0.005,0.124,-1.395,1.895,48.825
1747667772.49,-0.062,0.134,-0.102,-0.876,0.017,0.125,-1.887,1.901,48.911
1747667772.50,-0.084,0.097,-0.101,-0.909,0.147,0.169,-2.392,1.948,49.251
1747667772.51,-0.033,0.031,-0.045,-0.976,0.273,0.239,-2.924,2.076,49.609
1747667772.52,0.044,-0.016,-0.024,-1.060,0.336,0.315,-3.502,2.264,49.790
1747667772.53,0.102,-0.039,-0.035,-0.997,0.302,0.364,-4.084,2.462,50.237
1747667772.54,0.101,-0.035,-0.040,-1.015,0.263,0.358,-4.644,2.642,50.472
1747667772.55,0.077,-0.009,-0.031,-1.030,0.188,0.292,-5.221,2.791,50.895
1747667772.56,0.046,0.008,-0.062,-1.043,0.113,0.216,-5.805,2.893,51.068
1747667772.57,0.004,0.010,-0.085,-1.055,0.091,0.164,-6.398,2.964,51.407
1747667772.58,-0.034,-0.006,-0.067,-1.039,0.161,0.151,-6.993,3.047,51.527
1747667772.59,-0.076,-0.034,-0.035,-1.023,0.249,0.176,-7.573,3.180,51.849
1747667772.60,-0.097,-0.053,-0.046,-1.117,0.357,0.213,-8.176,3.375,51.996
1747667772.61,-0.076,-0.051,-0.062,-1.131,0.378,0.238,-8.810,3.612,52.356
1747667772.62,-0.045,-0.039,-0.063,-1.165,0.399,0.226,-9.453,3.861,52.536
1747667772.63,-0.013,-0.006,-0.025,-1.201,0.384,0.165,-10.121,4.116,52.884
1747667772.64,0.005,0.039,-0.031,-1.210,0.313,0.095,-10.805,4.336,53.010
1747667772.65,-0.007,0.071,-0.058,-1.146,0.292,0.067,-11.473,4.525,53.297
1747667772.66,-0.003,0.084,-0.027,-1.123,0.291,0.042,-12.114,4.710,53.382
1747667772.67,-0.003,0.103,-0.072,-1.099,0.289,0.000,-12.746,4.888,53.626
1747667772.68,-0.044,0.119,-0.052,-1.072,0.312,-0.007,-13.364,5.070,53.678
1747667772.69,-0.092,0.114,-0.020,-1.076,0.321,-0.016,-13.973,5.263,53.817
1747667772.70,-0.139,0.095,-0.058,-1.121,0.378,-0.041,-14.599,5.472,53.862
1747667772.71,-0.151,0.068,-0.026,-1.143,0.470,-0.063,-15.246,5.721,54.039
1747667772.72,-0.103,0.035,0.007,-1.169,0.513,-0.047,-15.905,6.018,54.074
1747667772.73,-0.014,0.009,-0.034,-1.157,0.429,-0.015,-16.573,6.303,54.131
1747667772.74,0.034,0.006,-0.055,-1.125,0.322,-0.023,-17.220,6.532,54.195
1747667772.75,0.046,0.018,-0.072,-1.111,0.277,-0.060,-17.857,6.721,54.249
1747667772.76,0.048,0.026,-0.046,-1.088,0.195,-0.134,-18.488,6.862,54.269
1747667772.77,-0.031,0.027,-0.010,-1.055,0.207,-0.190,-19.105,6.967,54.248
1747667772.78,-0.099,0.004,0.030,-1.069,0.300,-0.207,-19.720,7.095,54.206
1747667772.79,-0.124,-0.031,0.023,-1.121,0.434,-0.195,-20.354,7.293,54.166
1747667772.80,-0.128,-0.060,-0.020,-1.157,0.528,-0.178,-21.015,7.563,54.142
1747667772.81,-0.135,-0.071,-0.031,-1.161,0.567,-0.139,-21.684,7.875,54.141
1747667772.82,-0.125,-0.060,-0.015,-1.156,0.590,-0.093,-22.347,8.216,54.171
1747667772.83,-0.064,-0.028,0.005,-1.137,0.562,-0.084,-23.001,8.568,54.222
1747667772.84,0.010,0.013,0.001,-1.120,0.468,-0.120,-23.648,8.882,54.267
1747667772.85,0.067,0.048,0.010,-1.074,0.378,-0.163,-24.280,9.131,54.287
1747667772.86,0.129,0.054,0.054,-1.051,0.307,-0.182,-24.894,9.326,54.285
1747667772.87,0.163,0.041,0.059,-1.056,0.233,-0.188,-25.503,9.479,54.279
1747667772.88,0.134,0.018,-0.014,-1.060,0.116,-0.182,-26.118,9.576,54.274
1747667772.89,0.041,-0.017,-0.068,-1.045,0.157,-0.154,-26.726,9.648,54.279
1747667772.90,-0.054,-0.061,-0.061,-1.062,0.291,-0.140,-27.332,9.789,54.302
1747667772.91,-0.098,-0.097,-0.046,-1.088,0.339,-0.155,-27.952,9.982,54.328
1747667772.92,-0.137,-0.125,-0.063,-1.119,0.410,-0.160,-28.587,10.205,54.351
1747667772.93,-0.099,-0.152,-0.013,-1.158,0.432,-0.139,-29.242,10.467,54.387
1747667772.94,-0.016,-0.156,0.012,-1.169,0.388,-0.117,-29.911,10.731,54.445
1747667772.95,0.024,-0.132,-0.006,-1.143,0.347,-0.104,-30.572,10.977,54.518
1747667772.96,0.045,-0.093,-0.018,-1.085,0.266,-0.113,-31.209,11.192,54.592
1747667772.97,0.016,-0.050,-0.040,-1.045,0.185,-0.134,-31.818,11.348,54.650
1747667772.98,-0.049,-0.024,-0.039,-1.040,0.244,-0.161,-32.415,11.489,54.693
1747667772.99,-0.078,-0.031,-0.015,-1.045,0.322,-0.213,-33.020,11.664,54.711
1747667773.00,-0.080,-0.062,-0.004,-1.047,0.356,-0.254,-33.632,11.848,54.698
1747667773.01,-0.076,-0.090,0.004,-1.083,0.508,-0.247,-34.256,12.080,54.679
1747667773.02,-0.034,-0.106,0.048,-1.128,0.621,-0.193,-34.900,12.414,54.693
1747667773.03,0.016,-0.101,0.038,-1.146,0.615,-0.117,-35.556,12.810,54.761
1747667773.04,0.029,-0.067,-0.006,-1.144,0.527,-0.042,-36.203,13.213,54.889
1747667773.05,0.032,-0.012,0.007,-1.116,0.433,-0.017,-36.834,13.586,55.058
1747667773.06,0.037,0.057,0.030,-1.082,0.350,-0.069,-37.449,13.909,55.218
1747667773.07,0.032,0.121,0.017,-1.037,0.195,-0.166,-38.054,14.130,55.322
1747667773.08,0.008,0.144,-0.041,-0.991,0.093,-0.229,-38.641,14.232,55.361
1747667773.09,-0.002,0.101,-0.036,-1.013,0.147,-0.273,-39.230,14.296,55.362
1747667773.10,0.010,0.024,0.006,-1.025,0.264,-0.304,-39.835,14.400,55.341
1747667773.11,0.025,-0.046,-0.025,-1.069,0.321,-0.300,-40.454,14.553,55.315
1747667773.12,0.001,-0.085,-0.039,-1.125,0.307,-0.296,-41.106,14.728,55.309
1747667773.13,-0.035,-0.091,-0.003,-1.112,0.350,-0.250,-41.765,14.923,55.325
1747667773.14,-0.046,-0.076,0.036,-1.141,0.401,-0.184,-42.415,15.185,55.390
1747667773.15,-0.027,-0.039,0.018,-1.176,0.353,-0.161,-43.081,15.477,55.500
1747667773.16,-0.019,0.000,-0.028,-1.176,0.301,-0.152,-43.751,15.752,55.631
1747667773.17,0.006,0.024,-0.008,-1.201,0.287,-0.170,-44.429,16.016,55.768
1747667773.18,0.069,0.036,0.009,-1.219,0.193,-0.208,-45.123,16.246,55.894
1747667773.19,0.106,0.029,-0.020,-1.239,0.068,-0.257,-45.834,16.389,55.991
1747667773.20,0.105,0.014,-0.022,-1.217,-0.029,-0.265,-46.550,16.457,56.071
1747667773.21,0.106,-0.013,-0.033,-1.196,-0.074,-0.257,-47.253,16.481,56.148
1747667773.22,0.077,-0.042,-0.061,-1.139,-0.092,-0.258,-47.935,16.486,56.219
1747667773.23,0.023,-0.068,-0.058,-1.140,-0.045,-0.252,-48.598,16.494,56.285
1747667773.24,-0.019,-0.079,-0.022,-1.186,-0.008,-0.240,-49.275,16.542,56.367
1747667773.25,-0.036,-0.083,0.000,-1.196,0.014,-0.234,-49.967,16.620,56.467
1747667773.26,-0.041,-0.080,0.008,-1.191,0.045,-0.232,-50.658,16.719,56.573
1747667773.27,-0.020,-0.060,0.026,-1.207,0.036,-0.226,-51.352,16.831,56.689
1747667773.28,-0.027,-0.025,-0.000,-1.223,0.063,-0.205,-52.051,16.964,56.823
1747667773.29,-0.033,-0.001,-0.021,-1.227,0.122,-0.211,-52.755,17.139,56.977
1747667773.30,-0.044,0.010,-0.015,-1.225,0.131,-0.267,-53.465,17.315,57.104
1747667773.31,-0.079,0.017,0.003,-1.229,0.143,-0.266,-54.179,17.478,57.209
1747667773.32,-0.088,0.019,0.011,-1.219,0.156,-0.265,-54.891,17.659,57.325
1747667773.33,-0.069,0.020,0.003,-1.219,0.125,-0.273,-55.601,17.836,57.441
1747667773.34,-0.059,0.023,-0.024,-1.194,0.094,-0.300,-56.308,17.980,57.541
1747667773.35,-0.042,0.014,-0.042,-1.159,0.119,-0.308,-57.000,18.102,57.618
1747667773.36,-0.019,-0.005,-0.041,-1.143,0.123,-0.342,-57.682,18.220,57.672
1747667773.37,-0.009,-0.019,-0.042,-1.132,0.057,-0.393,-58.366,18.275,57.674
1747667773.38,-0.013,-0.033,-0.046,-1.103,0.078,-0.394,-59.043,18.287,57.649
1747667773.39,-0.007,-0.051,-0.022,-1.088,0.127,-0.413,-59.709,18.309,57.604
1747667773.40,-0.002,-0.064,-0.003,-1.082,0.106,-0.418,-60.373,18.324,57.543
1747667773.41,-0.019,-0.064,-0.002,-1.092,0.115,-0.392,-61.034,18.336,57.486
1747667773.42,-0.025,-0.052,0.020,-1.145,0.204,-0.348,-61.707,18.425,57.487
1747667773.43,-0.019,-0.029,0.070,-1.144,0.258,-0.324,-62.389,18.613,57.546
1747667773.44,-0.022,0.011,0.065,-1.105,0.201,-0.341,-63.059,18.798,57.447
1747667773.45,-0.047,0.060,0.012,-1.089,0.189,-0.362,-63.716,18.926,57.469
1747667773.46,-0.050,0.078,0.019,-1.068,0.257,-0.359,-64.368,19.066,57.293
1747667773.47,-0.035,0.059,0.037,-0.986,0.331,-0.353,-64.989,19.238,57.296
1747667773.48,-0.037,0.019,-0.021,-0.955,0.332,-0.361,-65.575,19.406,57.068
1747667773.49,-0.047,-0.022,-0.071,-1.003,0.319,-0.375,-66.172,19.566,57.040
1747667773.50,-0.033,-0.053,-0.056,-1.027,0.382,-0.398,-66.793,19.736,56.604
1747667773.51,0.000,-0.059,-0.007,-1.025,0.425,-0.448,-67.427,19.902,56.533
1747667773.52,0.012,-0.046,0.051,-1.017,0.448,-0.480,-68.065,20.021,55.991
1747667773.53,0.032,-0.023,0.107,-1.008,0.396,-0.464,-68.702,20.125,55.841
1747667773.54,0.041,0.013,0.084,-1.007,0.345,-0.445,-69.331,20.214,55.295
1747667773.55,0.020,0.035,0.037,-0.995,0.307,-0.413,-69.953,20.315,55.204
1747667773.56,0.011,0.037,0.024,-0.978,0.268,-0.388,-70.560,20.429,54.734
1747667773.57,0.004,0.021,-0.006,-0.979,0.274,-0.368,-71.158,20.564,54.714
1747667773.58,0.000,-0.006,-0.006,-0.946,0.276,-0.366,-71.747,20.716,54.279
1747667773.59,-0.005,-0.021,-0.017,-0.844,0.259,-0.399,-72.305,20.801,54.209
1747667773.60,-0.005,-0.015,-0.045,-0.758,0.382,-0.438,-72.814,20.775,53.565
1747667773.61,0.014,-0.008,0.007,-0.822,0.604,-0.468,-73.323,20.785,53.278
1747667773.62,0.027,-0.000,0.127,-0.948,0.642,-0.484,-73.893,20.897,52.592
1747667773.63,-0.010,0.011,0.113,-1.004,0.509,-0.468,-74.515,21.038,52.393
1747667773.64,-0.047,0.019,0.011,-1.011,0.351,-0.426,-75.146,21.165,51.834
1747667773.65,-0.050,0.015,-0.032,-0.981,0.346,-0.390,-75.762,21.318,51.796
1747667773.66,-0.009,-0.008,-0.009,-0.910,0.457,-0.356,-76.343,21.549,51.332
1747667773.67,0.048,-0.027,0.038,-0.829,0.478,-0.331,-76.876,21.825,51.340
1747667773.68,0.064,-0.015,0.013,-0.783,0.493,-0.347,-77.372,22.076,50.849
1747667773.69,0.028,0.003,0.001,-0.755,0.525,-0.365,-77.858,22.262,50.743
1747667773.70,-0.005,0.005,0.009,-0.723,0.584,-0.356,-78.325,22.430,50.108
1747667773.71,-0.015,-0.009,-0.004,-0.728,0.619,-0.347,-78.783,22.641,49.972
1747667773.72,-0.001,-0.020,-0.001,-0.767,0.641,-0.361,-79.254,22.890,49.372
1747667773.73,0.018,-0.023,0.040,-0.837,0.590,-0.385,-79.759,23.151,49.277
1747667773.74,0.031,-0.023,0.078,-0.856,0.563,-0.393,-80.294,23.402,48.723
1747667773.75,0.066,-0.030,0.065,-0.858,0.603,-0.363,-80.829,23.705,48.691
1747667773.76,0.145,-0.056,0.065,-0.898,0.557,-0.266,-81.364,24.300,48.464
1747667773.77,0.188,-0.064,0.054,-0.838,0.305,-0.198,-81.872,25.167,49.085
1747667773.78,0.140,-0.063,-0.024,-0.808,0.046,-0.164,-82.336,26.055,49.380
1747667773.79,0.057,-0.031,-0.107,-0.788,-0.049,-0.191,-82.792,26.951,50.292
1747667773.80,-0.017,0.004,-0.090,-0.647,0.035,-0.268,-83.219,27.526,50.629
1747667773.81,-0.069,0.045,-0.039,-0.511,0.219,-0.330,-83.589,27.598,50.630
1747667773.82,-0.075,0.077,-0.027,-0.420,0.409,-0.396,-83.920,27.220,50.067
1747667773.83,-0.070,0.069,-0.039,-0.351,0.522,-0.443,-84.222,26.356,48.928
1747667773.84,-0.077,0.032,-0.041,-0.417,0.642,-0.401,-84.522,25.412,47.648
1747667773.85,-0.074,-0.016,0.035,-0.533,0.711,-0.314,-84.856,25.050,46.889
1747667773.86,-0.080,-0.066,0.126,-0.610,0.590,-0.203,-85.216,25.498,46.963
1747667773.87,-0.109,-0.092,0.078,-0.636,0.589,-0.146,-85.579,26.679,47.817
1747667773.88,-0.103,-0.100,0.016,-0.683,0.686,-0.143,-85.949,28.413,49.193
1747667773.89,-0.045,-0.097,0.015,-0.716,0.759,-0.151,-86.341,30.696,51.062
1747667773.90,0.018,-0.076,0.010,-0.644,0.752,-0.158,-86.720,33.307,53.243
1747667773.91,0.074,-0.047,-0.007,-0.516,0.638,-0.149,-87.044,35.845,55.381
1747667773.92,0.118,0.001,-0.049,-0.373,0.581,-0.168,-87.300,37.787,56.983
1747667773.93,0.149,0.045,-0.118,-0.296,0.686,-0.194,-87.513,38.922,57.759
1747667773.94,0.179,0.063,-0.095,-0.277,0.711,-0.194,-87.709,39.684,58.113
1747667773.95,0.166,0.051,-0.030,-0.253,0.483,-0.156,-87.892,40.583,58.665
1747667773.96,0.093,0.034,-0.036,-0.173,0.174,-0.130,-88.036,41.278,59.174
1747667773.97,0.018,-0.001,-0.099,-0.183,0.045,-0.142,-88.160,41.544,59.388
1747667773.98,-0.021,-0.045,-0.088,-0.231,0.100,-0.149,-88.306,42.153,59.957
1747667773.99,-0.008,-0.091,-0.030,-0.188,0.182,-0.114,-88.446,43.135,60.862
1747667774.00,0.027,-0.120,-0.053,-0.195,0.364,-0.070,-88.559,44.654,62.229
1747667774.01,0.084,-0.113,-0.051,-0.266,0.535,-0.048,-88.674,47.887,65.203
1747667774.02,0.151,-0.072,-0.026,-0.283,0.535,-0.038,-88.794,53.090,70.093
1747667774.03,0.165,-0.026,-0.045,-0.257,0.336,-0.039,-88.898,59.086,75.836
1747667774.04,0.105,0.010,-0.055,-0.261,0.044,-0.031,-88.984,65.763,82.405
1747667774.05,0.018,0.018,-0.058,-0.241,-0.141,-0.053,-89.054,73.197,89.876
1747667774.06,-0.042,0.012,-0.105,-0.171,-0.134,-0.091,-89.123,79.804,96.567
1747667774.07,-0.037,-0.006,-0.108,-0.077,-0.081,-0.082,-89.184,83.974,100.798
1747667774.08,0.020,0.001,-0.083,0.010,-0.070,-0.047,-89.222,85.002,101.868
1747667774.09,0.048,0.044,-0.088,0.076,-0.068,-0.044,-89.245,82.838,99.744
1747667774.10,0.024,0.089,-0.102,0.150,-0.095,-0.052,-89.261,77.612,94.562
1747667774.10,-0.029,0.075,-0.079,0.217,-0.184,-0.037,-89.255,69.067,86.096
1747667774.12,-0.084,0.018,-0.093,0.218,-0.167,-0.036,-89.218,59.724,76.859
1747667774.13,-0.105,-0.034,-0.124,0.159,-0.001,-0.061,-89.180,52.026,69.211
1747667774.13,-0.091,-0.059,-0.110,0.081,0.197,-0.072,-89.167,46.728,63.855
1747667774.15,-0.066,-0.049,-0.060,0.053,0.320,-0.061,-89.168,43.223,60.196
1747667774.15,-0.034,-0.010,-0.010,0.057,0.331,-0.046,-89.165,40.344,57.127
1747667774.17,-0.000,0.025,0.041,0.042,0.282,-0.039,-89.158,37.950,54.556
1747667774.17,0.025,0.037,0.098,0.032,0.250,-0.046,-89.155,35.985,52.441
1747667774.18,0.035,0.033,0.116,0.031,0.184,-0.058,-89.155,33.506,49.835
1747667774.20,0.029,0.032,0.090,0.021,0.087,-0.071,-89.159,30.462,46.713
1747667774.20,0.016,0.041,0.047,-0.025,0.066,-0.080,-89.176,27.350,43.559
1747667774.22,0.016,0.041,0.067,-0.089,0.110,-0.092,-89.224,24.834,40.995
1747667774.22,0.013,0.031,0.137,-0.109,0.168,-0.105,-89.299,22.297,38.377
1747667774.23,-0.018,0.016,0.176,-0.112,0.158,-0.088,-89.378,19.704,35.688
1747667774.24,-0.069,-0.066,0.173,-0.157,0.080,-0.111,-89.466,16.867,32.782
1747667774.25,-0.115,-0.147,0.124,-0.253,0.041,-0.076,-89.599,14.118,29.999
1747667774.26,-0.102,-0.032,0.074,-0.267,-0.012,-0.051,-89.756,15.876,31.747
1747667774.27,-0.074,0.022,0.023,-0.249,-0.039,-0.084,-89.911,20.769,36.657
1747667774.28,-0.054,0.020,-0.015,-0.209,-0.046,-0.111,-89.941,-154.815,-138.903
1747667774.29,-0.004,0.028,-0.018,-0.152,-0.081,-0.114,-89.819,-151.203,-135.256
1747667774.30,0.041,0.031,-0.027,-0.097,-0.133,-0.104,-89.717,-148.352,-132.346
1747667774.31,0.065,0.030,-0.038,-0.033,-0.232,-0.085,-89.643,-145.211,-129.100
1747667774.32,0.066,0.015,-0.057,0.007,-0.274,-0.061,-89.600,-141.436,-125.177
1747667774.33,0.050,-0.005,-0.068,0.024,-0.268,-0.049,-89.575,-137.377,-120.964
1747667774.34,0.028,-0.024,-0.056,0.072,-0.282,-0.042,-89.568,-132.492,-115.921
1747667774.35,-0.002,-0.035,-0.056,0.139,-0.292,-0.025,-89.587,-124.417,-107.681
1747667774.36,-0.029,-0.041,-0.063,0.194,-0.267,-0.005,-89.622,-111.220,-94.323
1747667774.37,-0.048,-0.043,-0.054,0.210,-0.188,0.025,-89.655,-93.284,-76.254
1747667774.38,-0.060,-0.035,-0.027,0.222,-0.086,0.044,-89.661,-72.268,-55.160
1747667774.39,-0.074,-0.020,-0.011,0.264,0.000,0.033,-89.617,-50.450,-33.317
1747667774.40,-0.089,0.004,-0.030,0.281,0.098,0.015,-89.510,-35.070,-17.965
1747667774.41,-0.086,0.023,-0.009,0.306,0.168,0.022,-89.372,-25.524,-8.495
1747667774.42,-0.076,0.033,0.026,0.341,0.239,0.027,-89.204,-18.711,-1.798
1747667774.43,-0.080,0.040,0.044,0.351,0.299,0.025,-89.017,-13.994,2.765
1747667774.44,-0.099,0.031,0.066,0.338,0.339,0.025,-88.827,-10.834,5.742
1747667774.45,-0.102,0.012,0.057,0.315,0.364,0.028,-88.646,-8.569,7.806
1747667774.46,-0.073,-0.010,0.034,0.322,0.365,0.027,-88.470,-6.770,9.396
1747667774.47,-0.034,-0.025,0.026,0.360,0.339,0.023,-88.278,-5.350,10.616
1747667774.48,0.008,-0.028,0.014,0.396,0.272,0.029,-88.064,-4.176,11.612
1747667774.49,0.052,-0.024,0.031,0.438,0.105,0.048,-87.830,-3.053,12.627
1747667774.50,0.070,-0.019,0.042,0.512,-0.100,0.071,-87.560,-1.933,13.745
1747667774.51,0.072,-0.002,0.018,0.588,-0.272,0.072,-87.248,-0.959,14.829
1747667774.52,0.054,0.027,-0.011,0.646,-0.331,0.074,-86.894,-0.264,15.703
1747667774.53,0.019,0.030,-0.003,0.659,-0.232,0.068,-86.520,0.272,16.405
1747667774.54,-0.021,0.004,0.041,0.656,-0.143,0.028,-86.145,0.562,16.800
1747667774.55,-0.079,-0.032,0.057,0.698,-0.185,0.001,-85.760,0.519,16.845
1747667774.56,-0.125,-0.062,0.016,0.757,-0.296,0.024,-85.344,0.415,16.879
1747667774.57,-0.117,-0.067,-0.019,0.780,-0.334,0.084,-84.903,0.533,17.181
1747667774.58,-0.074,-0.048,0.022,0.762,-0.323,0.153,-84.461,1.018,17.857
1747667774.59,-0.015,-0.024,0.059,0.738,-0.295,0.180,-84.030,1.708,18.729
1747667774.60,0.019,-0.003,0.064,0.748,-0.297,0.178,-83.604,2.348,19.540
1747667774.61,0.037,0.005,0.073,0.791,-0.350,0.189,-83.161,2.885,20.267
1747667774.62,0.059,0.003,0.044,0.843,-0.323,0.217,-82.689,3.417,21.001
1747667774.63,0.084,-0.008,0.029,0.872,-0.211,0.246,-82.191,4.027,21.773
1747667774.64,0.105,-0.008,0.053,0.859,-0.107,0.261,-81.685,4.694,22.534
1747667774.65,0.086,0.008,0.095,0.813,-0.128,0.249,-81.196,5.325,23.235
1747667774.66,0.005,0.022,0.090,0.822,-0.192,0.227,-80.721,5.802,23.812
1747667774.67,-0.073,0.018,0.053,0.861,-0.221,0.236,-80.228,6.161,24.298
1747667774.68,-0.112,0.010,0.035,0.884,-0.182,0.267,-79.716,6.535,24.797
1747667774.69,-0.116,0.008,0.025,0.920,-0.121,0.303,-79.186,6.995,25.352
1747667774.70,-0.079,0.007,0.025,1.000,-0.071,0.313,-78.623,7.486,25.381
1747667774.71,-0.029,0.014,0.019,1.090,0.098,0.296,-78.006,7.939,25.841
1747667774.72,0.031,0.021,0.032,1.096,0.285,0.248,-77.362,8.357,25.650
1747667774.73,0.069,0.024,0.098,1.078,0.219,0.202,-76.731,8.659,25.802
1747667774.74,0.029,0.019,0.094,1.100,-0.005,0.214,-76.098,8.803,25.378
1747667774.75,-0.034,0.006,0.025,1.069,-0.181,0.268,-75.463,8.907,25.544
1747667774.76,-0.078,-0.011,0.018,1.048,-0.208,0.329,-74.841,9.072,25.361
1747667774.77,-0.083,-0.019,0.003,1.008,-0.084,0.360,-74.227,9.355,25.743
1747667774.78,-0.048,-0.025,0.027,0.980,-0.023,0.325,-73.638,9.685,25.674
1747667774.79,-0.021,-0.025,0.062,1.078,-0.051,0.281,-73.033,9.897,25.916
1747667774.80,0.003,-0.024,0.037,1.166,-0.129,0.269,-72.372,9.987,25.637
1747667774.81,0.041,-0.014,0.031,1.159,-0.172,0.245,-71.688,9.988,25.731
1747667774.82,0.050,0.003,0.025,1.094,-0.138,0.216,-71.032,9.952,25.362
1747667774.83,0.009,0.005,0.061,1.104,-0.145,0.219,-70.396,9.909,25.401
1747667774.84,-0.066,0.000,0.045,1.120,-0.159,0.254,-69.744,9.882,25.075
1747667774.85,-0.127,-0.002,0.014,1.074,-0.098,0.312,-69.099,9.945,25.224
1747667774.86,-0.131,-0.006,0.046,1.082,0.019,0.346,-68.462,10.128,25.069
1747667774.87,-0.089,-0.005,0.053,1.174,0.090,0.331,-67.797,10.358,25.278
1747667774.88,-0.024,0.001,0.057,1.268,0.055,0.283,-67.075,10.515,25.054
1747667774.89,0.037,0.017,0.006,1.274,0.024,0.201,-66.336,10.543,25.063
1747667774.90,0.071,0.036,-0.005,1.250,0.096,0.175,-65.605,10.513,24.652
1747667774.91,0.063,0.041,0.021,1.113,0.028,0.162,-64.922,10.493,24.582
1747667774.92,-0.021,0.041,0.010,1.009,-0.060,0.215,-64.311,10.465,24.240
1747667774.93,-0.100,0.026,-0.036,0.958,-0.068,0.315,-63.733,10.525,24.346
1747667774.94,-0.068,-0.006,-0.006,0.952,-0.134,0.362,-63.162,10.651,24.259
1747667774.95,0.006,-0.024,0.006,0.983,-0.216,0.370,-62.580,10.753,24.486
1747667774.96,0.090,-0.038,-0.000,1.027,-0.299,0.334,-61.980,10.782,24.684
1747667774.97,0.143,-0.047,0.011,1.118,-0.406,0.256,-61.346,10.679,24.796
1747667774.98,0.141,-0.042,-0.035,1.217,-0.461,0.176,-60.669,10.428,24.797
1747667774.99,0.102,-0.023,-0.062,1.268,-0.365,0.090,-59.951,10.098,24.693
1747667775.00,0.045,0.004,-0.023,1.169,-0.202,0.005,-59.258,9.774,24.505
1747667775.01,-0.028,0.020,0.068,1.116,-0.060,-0.021,-58.619,9.508,24.279
1747667775.02,-0.119,0.023,0.085,1.096,0.036,0.055,-57.995,9.341,24.091
1747667775.03,-0.177,0.010,0.061,1.048,0.119,0.258,-57.377,9.364,24.063
1747667775.04,-0.150,-0.015,0.052,1.008,0.069,0.420,-56.766,9.577,24.249
1747667775.05,-0.103,-0.026,-0.029,0.987,-0.069,0.425,-56.164,9.798,24.512
1747667775.06,-0.044,-0.027,-0.095,0.991,-0.174,0.372,-55.570,9.914,24.741
1747667775.07,0.044,-0.042,-0.088,1.054,-0.215,0.288,-54.965,9.928,24.893
1747667775.08,0.127,-0.058,-0.049,1.115,-0.257,0.174,-54.330,9.826,24.934
1747667775.09,0.134,-0.051,-0.021,1.101,-0.259,0.076,-53.692,9.622,24.867
1747667775.10,0.074,-0.029,0.042,1.089,-0.128,0.032,-53.073,9.405,24.741
1747667775.11,0.018,-0.016,0.136,1.119,0.015,0.059,-52.445,9.272,24.612
1747667775.12,-0.003,-0.006,0.126,1.088,0.065,0.135,-51.813,9.234,24.531
1747667775.13,0.020,-0.008,0.014,1.058,0.062,0.259,-51.192,9.286,24.547
1747667775.14,0.070,-0.025,-0.034,1.056,-0.009,0.339,-50.569,9.396,24.668
1747667775.15,0.096,-0.040,0.004,1.061,-0.142,0.348,-49.939,9.468,24.817
1747667775.16,0.107,-0.036,0.006,1.076,-0.268,0.331,-49.308,9.460,24.962
1747667775.17,0.095,-0.019,0.016,1.135,-0.386,0.254,-48.657,9.346,25.058
1747667775.18,0.041,0.021,-0.013,1.166,-0.507,0.134,-47.989,9.095,25.065
1747667775.19,-0.027,0.073,-0.055,1.157,-0.505,0.011,-47.328,8.732,24.971
1747667775.20,-0.076,0.108,-0.039,1.158,-0.434,-0.062,-46.677,8.341,24.803
1747667775.21,-0.111,0.108,0.012,1.171,-0.328,-0.087,-46.025,7.978,24.603
1747667775.22,-0.137,0.075,0.000,1.144,-0.237,-0.075,-45.376,7.680,24.408
1747667775.23,-0.143,0.021,0.013,1.107,-0.174,-0.028,-44.744,7.446,24.244
1747667775.24,-0.129,-0.045,0.056,1.096,-0.110,0.053,-44.118,7.293,24.140
1747667775.25,-0.086,-0.099,0.055,1.062,-0.081,0.143,-43.500,7.222,24.115
1747667775.26,-0.046,-0.118,0.015,1.061,-0.060,0.063,-42.893,7.169,24.093
1747667775.27,0.003,-0.096,0.010,1.094,-0.086,0.002,-42.282,7.073,24.013
1747667775.28,0.054,-0.046,0.024,1.134,-0.032,-0.025,-41.649,6.960,23.899
1747667775.29,0.098,0.017,0.051,1.134,0.004,-0.055,-41.008,6.866,23.764
1747667775.30,0.098,0.078,0.063,1.139,-0.049,-0.073,-40.369,6.756,23.614
1747667775.31,0.049,0.117,0.082,1.133,-0.154,-0.040,-39.727,6.609,23.471
1747667775.32,0.011,0.124,0.102,1.104,-0.175,0.030,-39.093,6.447,23.373
1747667775.33,0.040,0.112,0.047,1.109,-0.143,0.067,-38.464,6.328,23.323
1747667775.34,0.083,0.091,0.030,1.150,-0.215,0.054,-37.818,6.199,23.277
1747667775.35,0.059,0.066,-0.030,1.153,-0.267,0.066,-37.161,6.031,23.230
1747667775.36,0.049,0.032,-0.049,1.166,-0.288,0.078,-36.499,5.849,23.196
1747667775.37,0.047,0.002,-0.043,1.199,-0.170,0.056,-35.824,5.694,23.161
1747667775.38,0.029,-0.008,0.031,1.233,-0.088,-0.005,-35.131,5.586,23.095
1747667775.39,-0.017,0.001,0.052,1.219,-0.108,-0.037,-34.432,5.473,22.995
1747667775.40,-0.064,0.016,0.033,1.162,-0.099,-0.012,-33.757,5.358,22.897
1747667775.41,-0.048,0.027,0.062,1.139,-0.075,0.024,-33.104,5.271,22.829
1747667775.42,0.014,0.046,0.081,1.158,-0.103,0.038,-32.450,5.195,22.780
1747667775.43,0.061,0.073,0.093,1.152,-0.180,0.074,-31.789,5.097,22.746
1747667775.44,0.096,0.094,0.060,1.097,-0.342,0.143,-31.143,4.954,22.750
1747667775.45,0.132,0.095,-0.013,1.045,-0.434,0.245,-30.527,4.759,22.818
1747667775.46,0.177,0.073,-0.047,1.045,-0.446,0.318,-29.921,4.573,22.950
1747667775.47,0.210,0.053,-0.030,1.066,-0.385,0.348,-29.306,4.416,23.115
1747667775.48,0.203,0.050,0.004,1.081,-0.309,0.350,-28.679,4.302,23.290
1747667775.49,0.141,0.064,0.038,1.087,-0.260,0.327,-28.049,4.221,23.457
1747667775.50,0.034,0.084,0.067,1.132,-0.239,0.312,-27.405,4.149,23.609
1747667775.51,-0.043,0.094,0.107,1.193,-0.193,0.319,-26.729,4.092,23.757
1747667775.52,-0.046,0.085,0.120,1.218,-0.151,0.286,-26.028,4.056,23.897
1747667775.53,-0.019,0.065,0.100,1.247,-0.153,0.212,-25.316,4.015,23.999
1747667775.54,-0.026,0.023,0.054,1.262,-0.185,0.163,-24.593,3.945,24.060
1747667775.55,-0.063,-0.042,-0.002,1.236,-0.209,0.132,-23.874,3.848,24.098
1747667775.56,-0.097,-0.100,-0.044,1.183,-0.213,0.120,-23.179,3.737,24.125
1747667775.57,-0.117,-0.111,-0.017,1.137,-0.172,0.150,-22.514,3.638,24.161
1747667775.58,-0.093,-0.061,0.014,1.128,-0.167,0.171,-21.863,3.566,24.218
1747667775.59,-0.058,0.033,0.004,1.147,-0.204,0.163,-21.210,3.481,24.279
1747667775.60,-0.038,0.118,0.015,1.199,-0.183,0.124,-20.537,3.387,24.326
1747667775.61,-0.013,0.150,0.067,1.280,-0.209,0.023,-19.829,3.279,24.328
1747667775.62,-0.030,0.123,0.052,1.372,-0.235,-0.088,-19.075,3.128,24.262
1747667775.63,-0.049,0.046,0.046,1.498,-0.147,-0.135,-18.261,2.977,24.147
1747667775.64,-0.035,-0.061,0.083,1.585,-0.049,-0.149,-17.381,2.884,24.014
1747667775.65,-0.022,-0.170,0.029,1.542,0.020,-0.166,-16.491,2.835,23.871
1747667775.66,-0.039,-0.248,-0.060,1.460,0.093,-0.120,-15.639,2.828,23.739
1747667775.67,-0.073,-0.258,-0.105,1.391,0.217,-0.018,-14.827,2.895,23.656
1747667775.68,-0.077,-0.202,-0.061,1.302,0.255,0.075,-14.058,3.028,23.632
1747667775.69,-0.055,-0.063,0.002,1.256,0.251,0.138,-13.329,3.180,23.656
1747667775.70,0.003,0.108,0.049,1.302,0.157,0.080,-12.603,3.304,23.686
1747667775.71,0.073,0.213,0.058,1.303,-0.045,0.045,-11.862,3.330,23.678
1747667775.72,0.152,0.202,0.037,1.361,-0.213,-0.001,-11.102,3.251,23.648
1747667775.73,0.183,0.107,0.039,1.385,-0.333,-0.058,-10.318,3.080,23.586
1747667775.74,0.116,-0.021,0.069,1.417,-0.346,-0.131,-9.520,2.866,23.487
1747667775.75,-0.010,-0.171,0.074,1.397,-0.222,-0.138,-8.720,2.679,23.367
1747667775.76,-0.116,-0.308,0.005,1.355,0.025,-0.099,-7.937,2.605,23.261
1747667775.77,-0.164,-0.347,-0.053,1.281,0.258,-0.049,-7.187,2.676,23.183
1747667775.78,-0.162,-0.230,-0.082,1.296,0.438,0.001,-6.459,2.874,23.135
1747667775.79,-0.091,-0.006,-0.079,1.373,0.485,0.033,-5.694,3.140,23.106
1747667775.80,-0.068,0.198,-0.061,1.334,0.430,0.031,-4.917,3.404,23.081
1747667775.81,-0.050,0.298,-0.029,1.288,0.238,0.005,-4.171,3.595,23.046
1747667775.82,-0.018,0.266,-0.018,1.264,0.070,-0.042,-3.444,3.676,22.990
1747667775.83,0.039,0.145,-0.025,1.277,-0.058,-0.126,-2.725,3.675,22.897
1747667775.84,0.093,0.011,-0.047,1.262,-0.190,-0.222,-2.005,3.595,22.749
1747667775.85,0.064,-0.148,-0.073,1.234,-0.238,-0.277,-1.301,3.463,22.561
1747667775.86,-0.005,-0.233,-0.040,1.166,-0.158,-0.298,-0.629,3.342,22.773
1747667775.87,-0.060,-0.186,-0.031,1.190,-0.030,-0.266,0.028,3.289,22.573
1747667775.88,-0.087,0.012,-0.018,1.252,0.087,-0.185,0.721,3.305,22.817
1747667775.89,-0.139,0.210,-0.002,1.185,0.152,-0.111,1.412,3.380,22.694
1747667775.90,-0.157,0.223,-0.016,1.164,0.153,-0.082,2.076,3.470,23.001
1747667775.91,-0.115,0.113,-0.063,1.155,0.151,-0.106,2.737,3.561,22.909
1747667775.92,0.016,-0.020,-0.060,1.105,0.048,-0.145,3.376,3.629,23.206
1747667775.93,0.171,-0.117,-0.064,1.103,-0.179,-0.310,4.024,3.672,23.015
1747667775.94,0.214,-0.210,-0.123,0.981,-0.345,-0.132,4.593,3.533,23.262
1747667775.95,0.279,-0.185,-0.050,1.001,-0.360,-0.079,5.159,3.336,23.171
1747667775.96,0.183,-0.101,-0.083,0.984,-0.306,-0.032,5.722,3.151,23.498
1747667775.97,0.100,0.014,-0.034,0.987,-0.225,0.045,6.285,2.999,23.472
1747667775.98,0.014,0.125,0.002,0.998,-0.057,0.118,6.853,2.914,23.873
1747667775.99,-0.072,0.190,0.038,0.985,0.116,0.193,7.424,2.925,23.932
1747667776.00,-0.116,0.149,0.011,0.950,0.246,0.285,7.981,3.015,24.436
1747667776.01,-0.078,0.079,-0.047,0.938,0.322,0.316,8.530,3.161,24.583
1747667776.02,0.036,0.032,-0.078,0.836,0.222,0.273,9.049,3.303,25.120
1747667776.03,0.149,-0.027,-0.155,0.738,0.033,0.279,9.505,3.355,25.251
1747667776.04,0.215,-0.118,-0.239,0.649,-0.138,0.314,9.912,3.296,25.786
1747667776.05,0.193,-0.173,-0.209,0.580,-0.172,0.308,10.268,3.176,25.947
1747667776.06,0.095,-0.124,-0.141,0.582,-0.103,0.282,10.609,3.066,26.473
1747667776.07,-0.023,-0.010,-0.061,0.539,-0.017,0.255,10.936,3.009,26.612
1747667776.08,-0.096,0.054,-0.032,0.533,0.044,0.232,11.248,2.993,27.105
1747667776.09,-0.129,0.048,-0.025,0.507,0.114,0.223,11.552,3.015,27.222
1747667776.10,-0.108,0.006,-0.023,0.463,0.123,0.211,11.836,3.062,27.700
1747667776.11,-0.041,-0.029,-0.083,0.420,0.075,0.199,12.094,3.099,27.807
1747667776.12,0.037,-0.029,-0.155,0.379,-0.027,0.179,12.327,3.094,28.263
1747667776.13,0.072,-0.035,-0.173,0.328,-0.091,0.179,12.534,3.038,28.354
1747667776.14,0.048,-0.046,-0.136,0.284,-0.061,0.203,12.713,2.970,28.811
1747667776.15,0.020,0.003,-0.141,0.265,-0.045,0.201,12.875,2.917,28.923
1747667776.16,-0.014,0.070,-0.107,0.240,0.002,0.196,13.027,2.878,29.367
1747667776.17,-0.040,0.045,-0.051,0.198,0.029,0.189,13.156,2.865,29.473
1747667776.18,-0.023,-0.042,-0.042,0.166,0.002,0.199,13.264,2.849,29.908
1747667776.19,-0.016,-0.067,-0.063,0.160,0.013,0.198,13.364,2.826,30.020
1747667776.20,-0.014,-0.025,-0.054,0.110,0.043,0.198,13.447,2.817,30.471
1747667776.21,0.001,0.008,-0.047,0.067,0.040,0.239,13.503,2.814,30.595
1747667776.22,0.016,-0.020,-0.064,0.009,0.052,0.292,13.534,2.801,31.076
1747667776.23,0.048,-0.079,-0.065,-0.081,0.099,0.362,13.522,2.800,31.269
1747667776.24,0.120,-0.139,-0.062,-0.132,0.075,0.436,13.471,2.796,31.839
1747667776.25,0.184,-0.151,-0.071,-0.172,0.017,0.471,13.398,2.760,32.110
1747667776.26,0.225,-0.075,-0.086,-0.227,-0.050,0.494,13.296,2.685,32.717
1747667776.27,0.218,-0.007,-0.088,-0.223,-0.120,0.553,13.179,2.561,33.028
1747667776.28,0.138,0.007,-0.070,-0.222,-0.086,0.626,13.069,2.420,33.684
1747667776.29,0.029,0.010,-0.054,-0.264,-0.001,0.683,12.946,2.307,34.075
1747667776.30,-0.062,-0.016,-0.068,-0.301,0.137,0.722,12.802,2.251,34.794
1747667776.31,-0.099,-0.065,-0.015,-0.341,0.278,0.764,12.634,2.273,35.235
1747667776.32,-0.067,-0.078,0.034,-0.393,0.349,0.792,12.443,2.357,35.988
1747667776.33,-0.015,-0.027,-0.007,-0.402,0.333,0.815,12.232,2.451,36.468
1747667776.34,0.000,0.019,-0.059,-0.400,0.359,0.807,12.029,2.542,37.244
1747667776.35,-0.011,0.035,-0.077,-0.459,0.363,0.717,11.803,2.659,37.698
1747667776.36,-0.013,0.054,-0.127,-0.501,0.263,0.677,11.546,2.754,38.392
1747667776.37,-0.002,-0.033,-0.175,-0.514,0.210,0.667,11.275,2.804,38.798
1747667776.38,0.012,-0.112,-0.112,-0.566,0.214,0.648,10.986,2.849,39.463
1747667776.39,0.017,-0.095,-0.049,-0.624,0.193,0.598,10.663,2.894,39.843
1747667776.40,0.006,-0.027,-0.024,-0.642,0.161,0.578,10.317,2.930,40.466
1747667776.41,-0.004,0.021,0.002,-0.655,0.169,0.562,9.966,2.960,40.816
1747667776.42,0.027,0.038,-0.027,-0.697,0.184,0.536,9.595,3.007,41.397
1747667776.43,0.047,0.054,-0.087,-0.690,0.160,0.494,9.214,3.051,41.718
1747667776.44,0.003,0.065,-0.098,-0.703,0.146,0.414,8.833,3.095,42.242
1747667776.45,-0.004,0.021,-0.110,-0.747,0.134,0.387,8.433,3.138,42.494
1747667776.46,-0.002,-0.043,-0.087,-0.785,0.103,0.367,8.007,3.171,42.977
1747667776.47,-0.023,-0.045,-0.060,-0.811,0.075,0.354,7.564,3.189,43.210
1747667776.48,-0.027,0.002,-0.076,-0.827,0.047,0.339,7.106,3.195,43.666
1747667776.49,-0.045,0.045,-0.064,-0.814,0.018,0.288,6.649,3.188,43.875
1747667776.50,-0.077,0.074,-0.059,-0.816,-0.010,0.214,6.192,3.172,44.283
1747667776.51,-0.065,0.065,-0.083,-0.821,-0.048,0.178,5.730,3.141,44.420
1747667776.52,-0.048,0.007,-0.060,-0.851,-0.028,0.172,5.260,3.104,44.775
1747667776.53,-0.037,-0.046,-0.033,-0.888,0.011,0.171,4.769,3.090,44.900
1747667776.54,-0.014,-0.069,-0.069,-0.914,0.055,0.193,4.261,3.095,45.249
1747667776.55,-0.020,-0.080,-0.057,-0.908,0.129,0.256,3.748,3.138,45.405
1747667776.56,-0.022,-0.062,-0.004,-0.943,0.160,0.321,3.230,3.210,45.817
1747667776.57,-0.019,-0.021,-0.058,-0.967,0.184,0.359,2.697,3.295,46.043
1747667776.58,-0.003,0.009,-0.072,-1.000,0.207,0.388,2.147,3.397,46.502
1747667776.59,0.034,0.014,-0.007,-1.014,0.184,0.423,1.589,3.500,46.768
1747667776.60,0.093,-0.018,-0.013,-1.069,0.136,0.451,1.011,3.585,47.256
1747667776.61,0.146,-0.064,-0.001,-1.083,0.132,0.495,0.413,3.655,47.566
1747667776.62,0.186,-0.077,0.008,-1.155,0.100,0.537,-0.203,3.724,48.095
1747667776.63,0.195,-0.047,-0.049,-1.201,0.010,0.557,-0.860,3.758,48.452
1747667776.64,0.131,-0.002,-0.076,-1.088,-0.033,0.517,-1.496,3.757,48.984
1747667776.65,0.030,0.031,-0.052,-1.042,-0.088,0.436,-2.078,3.730,49.291
1747667776.66,-0.105,0.040,-0.059,-1.068,-0.036,0.419,-2.665,3.703,49.754
1747667776.67,-0.189,-0.025,0.007,-1.058,0.116,0.390,-3.257,3.738,50.025
1747667776.68,-0.209,-0.097,0.025,-1.053,0.287,0.342,-3.844,3.868,50.439
1747667776.69,-0.209,-0.115,-0.038,-1.085,0.352,0.292,-4.440,4.073,50.662
1747667776.70,-0.234,-0.074,-0.094,-1.104,0.333,0.259,-5.052,4.284,51.045
1747667776.71,-0.249,-0.005,-0.110,-1.123,0.328,0.233,-5.676,4.492,51.412
1747667776.72,-0.185,0.062,-0.115,-1.134,0.301,0.180,-6.310,4.692,51.584
1747667776.73,-0.097,0.115,-0.080,-1.140,0.238,0.098,-6.948,4.862,51.883
1747667776.74,-0.036,0.139,-0.052,-1.158,0.160,0.030,-7.599,4.987,51.975
1747667776.75,0.007,0.114,-0.038,-1.165,0.053,0.002,-8.260,5.057,52.193
1747667776.76,0.028,0.062,-0.069,-1.166,0.004,0.008,-8.922,5.079,52.255
1747667776.77,0.010,0.015,-0.091,-1.159,0.061,-0.007,-9.583,5.104,52.482
1747667776.78,-0.043,-0.019,-0.069,-1.126,0.173,-0.034,-10.234,5.179,52.531
1747667776.79,-0.115,-0.037,-0.024,-1.091,0.257,-0.065,-10.866,5.310,52.711
1747667776.80,-0.173,-0.034,-0.015,-1.098,0.315,-0.092,-11.492,5.475,52.724
1747667776.81,-0.184,-0.032,-0.012,-1.115,0.432,-0.049,-12.126,5.689,52.883
1747667776.82,-0.107,-0.048,0.009,-1.153,0.545,0.035,-12.769,5.984,52.946
1747667776.83,0.020,-0.052,-0.004,-1.218,0.507,0.079,-13.440,6.316,53.130
1747667776.84,0.093,-0.027,-0.060,-1.218,0.355,0.065,-14.130,6.594,53.255
1747667776.85,0.071,0.007,-0.031,-1.175,0.261,0.042,-14.805,6.796,53.368
1747667776.86,0.037,0.032,0.037,-1.134,0.175,0.023,-15.456,6.947,53.469
1747667776.87,0.015,0.039,-0.045,-1.125,0.110,-0.039,-16.097,7.047,53.548
1747667776.88,-0.033,0.030,-0.088,-1.076,0.140,-0.120,-16.727,7.124,53.581
1747667776.89,-0.084,-0.001,0.008,-1.059,0.254,-0.156,-17.341,7.235,53.577
1747667776.90,-0.099,-0.045,0.023,-1.088,0.331,-0.143,-17.958,7.401,53.569
1747667776.91,-0.115,-0.079,-0.012,-1.121,0.415,-0.089,-18.594,7.617,53.584
1747667776.92,-0.142,-0.090,-0.016,-1.133,0.577,-0.005,-19.236,7.920,53.649
1747667776.93,-0.148,-0.073,-0.007,-1.173,0.675,0.039,-19.884,8.321,53.760
1747667776.94,-0.147,-0.029,-0.076,-1.216,0.644,0.037,-20.559,8.746,53.893
1747667776.95,-0.151,0.018,-0.124,-1.168,0.577,0.000,-21.231,9.139,54.019
1747667776.96,-0.116,0.049,-0.082,-1.154,0.563,-0.114,-21.887,9.492,54.102
1747667776.97,-0.037,0.067,-0.028,-1.147,0.462,-0.285,-22.557,9.792,54.101
1747667776.98,0.011,0.061,-0.006,-1.069,0.286,-0.405,-23.215,9.964,54.004
1747667776.99,-0.028,0.044,0.021,-1.043,0.250,-0.417,-23.847,10.055,53.862
1747667777.00,-0.036,0.018,0.012,-1.062,0.266,-0.375,-24.478,10.151,53.732
1747667777.01,-0.050,-0.010,-0.051,-1.099,0.288,-0.294,-25.120,10.269,53.644
1747667777.02,-0.098,-0.034,-0.053,-1.105,0.399,-0.198,-25.765,10.452,53.617
1747667777.03,-0.101,-0.058,-0.021,-1.126,0.508,-0.143,-26.406,10.725,53.643
1747667777.04,-0.079,-0.066,0.004,-1.189,0.586,-0.136,-27.071,11.062,53.696
1747667777.05,-0.058,-0.074,0.051,-1.187,0.651,-0.131,-27.754,11.446,53.762
1747667777.06,-0.011,-0.090,0.084,-1.154,0.693,-0.128,-28.423,11.863,53.833
1747667777.07,0.045,-0.103,0.065,-1.158,0.685,-0.154,-29.083,12.294,53.901
1747667777.08,0.088,-0.110,-0.013,-1.187,0.545,-0.192,-29.760,12.674,53.957
1747667777.09,0.091,-0.111,-0.099,-1.148,0.451,-0.204,-30.436,12.975,54.001
1747667777.10,0.059,-0.109,-0.058,-1.157,0.410,-0.206,-31.100,13.241,54.040
1747667777.11,0.031,-0.089,0.002,-1.198,0.393,-0.188,-31.782,13.495,54.093
1747667777.12,0.017,-0.067,0.031,-1.205,0.427,-0.151,-32.470,13.769,54.172
1747667777.13,0.042,-0.040,0.068,-1.251,0.464,-0.096,-33.166,14.092,54.291
1747667777.14,0.086,-0.005,0.056,-1.253,0.387,-0.050,-33.870,14.431,54.456
1747667777.15,0.103,0.024,-0.013,-1.230,0.298,-0.037,-34.563,14.728,54.644
1747667777.16,0.093,0.046,-0.011,-1.198,0.268,-0.048,-35.239,14.996,54.832
1747667777.17,0.113,0.047,0.018,-1.213,0.163,-0.079,-35.911,15.227,55.010
1747667777.18,0.114,0.034,-0.029,-1.227,0.050,-0.117,-36.600,15.380,55.172
1747667777.19,0.071,0.001,-0.010,-1.193,0.076,-0.153,-37.287,15.494,55.310
1747667777.20,0.049,-0.033,0.025,-1.231,0.188,-0.191,-37.978,15.640,55.423
1747667777.21,0.034,-0.050,-0.007,-1.269,0.186,-0.245,-38.701,15.809,55.518
1747667777.22,-0.036,-0.051,-0.056,-1.260,0.159,-0.253,-39.436,15.951,55.592
1747667777.23,-0.115,-0.046,-0.024,-1.269,0.232,-0.185,-40.165,16.126,55.694
1747667777.24,-0.106,-0.029,0.027,-1.277,0.257,-0.146,-40.889,16.368,55.844
1747667777.25,-0.070,0.007,0.005,-1.261,0.175,-0.140,-41.607,16.606,56.016
1747667777.26,-0.035,0.048,-0.001,-1.219,0.111,-0.153,-42.311,16.798,56.183
1747667777.27,0.036,0.075,0.002,-1.176,0.092,-0.211,-42.994,16.947,56.320
1747667777.28,0.098,0.085,-0.009,-1.235,0.086,-0.310,-43.691,17.052,56.398
1747667777.29,0.112,0.066,-0.035,-1.307,0.058,-0.362,-44.446,17.122,56.438
1747667777.30,0.075,0.005,-0.044,-1.299,0.024,-0.386,-45.221,17.160,56.457
1747667777.30,0.001,-0.053,-0.005,-1.317,0.030,-0.317,-45.994,17.197,56.496
1747667777.32,-0.064,-0.078,0.007,-1.337,0.129,-0.251,-46.765,17.318,56.600
1747667777.32,-0.075,-0.080,-0.006,-1.357,0.120,-0.246,-47.544,17.496,56.742
1747667777.33,-0.089,-0.052,-0.036,-1.295,0.133,-0.259,-48.312,17.669,56.879
1747667777.34,-0.078,-0.018,-0.019,-1.249,0.116,-0.293,-49.050,17.824,56.988
1747667777.35,-0.047,0.016,0.014,-1.227,0.032,-0.315,-49.776,17.930,57.067
1747667777.36,-0.028,0.034,-0.016,-1.242,-0.052,-0.330,-50.503,17.971,57.132
1747667777.37,-0.023,0.032,-0.043,-1.290,-0.055,-0.357,-51.250,17.982,57.190
1747667777.38,-0.019,0.010,0.002,-1.316,-0.010,-0.386,-52.025,18.001,57.236
1747667777.39,-0.010,-0.018,0.010,-1.290,-0.031,-0.397,-52.804,18.013,57.263
1747667777.41,-0.014,-0.031,-0.036,-1.273,-0.021,-0.391,-53.569,18.009,57.281
1747667777.41,-0.012,-0.022,-0.042,-1.248,0.047,-0.387,-54.324,18.034,57.303
1747667777.42,-0.004,-0.014,-0.027,-1.189,0.074,-0.422,-55.055,18.062,57.290
1747667777.43,-0.033,-0.005,-0.011,-1.229,0.047,-0.403,-55.784,18.082,57.271
1747667777.44,-0.064,0.005,0.000,-1.175,0.096,-0.389,-56.511,18.118,57.273
1747667777.45,-0.085,0.003,-0.042,-1.112,0.179,-0.418,-57.199,18.176,57.245
1747667777.46,-0.070,0.008,0.012,-1.159,0.182,-0.440,-57.890,18.230,57.183
1747667777.47,-0.045,0.024,0.041,-1.191,0.134,-0.439,-58.607,18.277,57.131
1747667777.48,-0.009,0.026,-0.018,-1.205,0.064,-0.448,-59.338,18.290,57.079
1747667777.49,0.031,0.018,-0.024,-1.198,0.062,-0.445,-60.069,18.276,57.027
1747667777.50,0.059,0.005,0.026,-1.235,0.114,-0.407,-60.802,18.303,57.001
1747667777.51,0.077,-0.013,0.077,-1.252,0.165,-0.400,-61.552,18.394,57.013
1747667777.52,0.075,-0.038,0.037,-1.267,0.207,-0.372,-62.302,18.531,57.049
1747667777.53,0.086,-0.071,0.003,-1.318,0.221,-0.334,-63.066,18.741,57.145
1747667777.54,0.089,-0.095,-0.001,-1.344,0.169,-0.302,-63.847,19.003,57.312
1747667777.55,0.056,-0.103,-0.008,-1.312,0.108,-0.280,-64.619,19.272,57.329
1747667777.56,0.025,-0.084,-0.028,-1.286,0.095,-0.286,-65.372,19.531,57.555
1747667777.57,0.010,-0.051,-0.014,-1.263,0.154,-0.296,-66.113,19.796,57.382
1747667777.58,0.004,-0.021,0.015,-1.261,0.190,-0.318,-66.850,20.084,57.586
1747667777.59,-0.006,-0.002,0.024,-1.272,0.157,-0.342,-67.594,20.357,57.370
1747667777.60,-0.024,0.008,0.003,-1.288,0.158,-0.345,-68.349,20.623,57.563
1747667777.61,-0.006,0.011,0.016,-1.249,0.209,-0.354,-69.098,20.912,57.343
1747667777.62,0.018,0.014,0.061,-1.215,0.160,-0.392,-69.830,21.164,57.492
1747667777.63,0.010,0.027,0.045,-1.185,0.018,-0.395,-70.552,21.315,57.148
1747667777.64,-0.020,0.036,0.008,-1.101,-0.033,-0.379,-71.241,21.405,57.250
1747667777.65,-0.037,0.024,0.016,-1.034,-0.082,-0.370,-71.885,21.446,56.865
1747667777.66,-0.065,0.006,0.014,-1.035,-0.107,-0.375,-72.512,21.443,56.924
1747667777.67,-0.089,-0.018,-0.012,-1.042,0.052,-0.406,-73.146,21.454,56.525
1747667777.68,-0.076,-0.042,-0.023,-1.082,0.299,-0.456,-73.799,21.529,56.500
1747667777.69,-0.052,-0.051,-0.000,-1.129,0.459,-0.467,-74.484,21.705,56.009
1747667777.70,-0.042,-0.037,0.020,-1.120,0.448,-0.457,-75.181,21.947,55.986
1747667777.71,-0.062,-0.012,0.017,-1.094,0.418,-0.437,-75.864,22.198,55.538
1747667777.72,-0.073,0.013,0.045,-1.044,0.471,-0.401,-76.520,22.491,55.580
1747667777.73,-0.038,0.029,0.074,-1.026,0.488,-0.352,-77.147,22.888,55.229
1747667777.74,-0.002,0.034,0.085,-0.999,0.482,-0.306,-77.753,23.413,55.484
1747667777.75,0.025,0.017,0.069,-0.962,0.567,-0.282,-78.331,24.049,55.353
1747667777.76,0.055,-0.006,0.050,-1.017,0.590,-0.260,-78.907,24.844,55.822
1747667777.77,0.057,-0.014,0.025,-1.078,0.523,-0.268,-79.513,25.799,55.978
1747667777.78,0.017,-0.024,-0.044,-1.100,0.433,-0.307,-80.144,26.795,56.714
1747667777.79,-0.018,-0.051,-0.046,-1.034,0.396,-0.347,-80.776,27.708,56.911
1747667777.80,0.000,-0.076,-0.028,-0.920,0.432,-0.371,-81.365,28.463,57.440
1747667777.81,0.049,-0.079,-0.025,-0.886,0.592,-0.395,-81.916,29.115,57.291
1747667777.82,0.089,-0.063,0.037,-0.999,0.586,-0.397,-82.495,29.951,57.782
1747667777.83,0.083,-0.036,0.098,-0.994,0.310,-0.367,-83.104,31.038,58.116
1747667777.84,0.029,-0.007,0.013,-0.877,0.080,-0.323,-83.661,32.102,59.082
1747667777.85,-0.011,0.011,-0.086,-0.837,0.082,-0.308,-84.168,33.195,59.650
1747667777.86,-0.012,0.013,-0.036,-0.819,0.291,-0.295,-84.657,34.519,60.876
1747667777.87,0.015,-0.007,0.055,-0.804,0.464,-0.271,-85.128,36.266,62.166
1747667777.88,0.017,-0.024,0.063,-0.791,0.425,-0.263,-85.582,38.446,64.093
1747667777.89,-0.028,-0.034,0.006,-0.778,0.372,-0.268,-86.025,40.983,66.414
1747667777.90,-0.075,-0.046,-0.020,-0.774,0.402,-0.274,-86.455,44.003,69.220
1747667777.91,-0.081,-0.052,-0.005,-0.785,0.445,-0.276,-86.877,47.875,72.855
1747667777.92,-0.062,-0.041,-0.019,-0.743,0.493,-0.309,-87.285,52.673,77.389
1747667777.93,-0.033,-0.019,-0.036,-0.669,0.535,-0.360,-87.673,58.027,82.455
1747667777.94,-0.007,0.008,-0.054,-0.624,0.626,-0.364,-88.034,64.241,88.344
1747667777.95,0.037,0.023,-0.025,-0.658,0.807,-0.302,-88.345,73.216,96.916
1747667777.96,0.082,0.020,0.055,-0.662,0.918,-0.207,-88.557,86.588,109.790
1747667777.97,0.092,0.005,0.069,-0.637,0.743,-0.133,-88.623,102.494,125.216
1747667777.98,0.029,-0.007,-0.002,-0.627,0.494,-0.159,-88.575,117.780,140.159
1747667777.99,-0.056,-0.018,-0.028,-0.696,0.422,-0.243,-88.452,132.421,154.552
1747667778.00,-0.066,-0.023,0.037,-0.762,0.494,-0.304,-88.236,146.341,168.217
1747667778.01,0.004,-0.052,0.071,-0.698,0.502,-0.275,-87.942,157.085,178.676
1747667778.02,0.085,-0.087,-0.014,-0.552,0.406,-0.176,-87.649,163.589,-175.079
1747667778.03,0.117,-0.084,-0.134,-0.443,0.347,-0.160,-87.398,167.490,-171.389
1747667778.04,0.084,-0.062,-0.154,-0.399,0.241,-0.251,-87.185,171.024,-168.024
1747667778.05,0.036,-0.027,-0.168,-0.274,0.110,-0.252,-87.008,174.457,-164.688
1747667778.06,0.032,0.159,-0.197,-0.095,-0.036,-0.247,-86.913,177.288,-161.873
1747667778.07,0.009,0.123,-0.236,0.030,-0.131,-0.247,-86.901,179.860,-159.246
1747667778.08,-0.004,0.058,-0.248,0.089,-0.179,-0.225,-86.934,-177.700,-156.713
1747667778.09,-0.003,0.008,-0.253,0.114,-0.165,-0.184,-86.985,-175.526,-154.435
1747667778.10,0.016,-0.019,-0.271,0.135,-0.053,-0.151,-87.047,-173.619,-152.462
1747667778.11,0.036,-0.029,-0.241,0.126,0.106,-0.100,-87.113,-172.022,-150.877
1747667778.12,0.045,-0.021,-0.171,0.138,0.306,-0.062,-87.179,-170.780,-149.749
1747667778.13,0.045,0.017,-0.115,0.195,0.489,-0.038,-87.267,-169.653,-148.850
1747667778.14,0.027,0.062,-0.061,0.237,0.576,-0.002,-87.388,-168.579,-148.084
1747667778.15,-0.000,0.061,0.001,0.245,0.553,0.056,-87.527,-167.947,-147.777
1747667778.16,-0.011,0.012,0.057,0.211,0.497,0.092,-87.665,-168.048,-148.179
1747667778.17,-0.008,-0.025,0.089,0.150,0.442,0.081,-87.777,-168.523,-148.921
1747667778.18,-0.008,-0.040,0.097,0.065,0.420,0.051,-87.845,-168.917,-149.560
1747667778.19,0.007,-0.046,0.108,-0.000,0.462,0.035,-87.866,-169.212,-150.106
1747667778.20,0.020,-0.047,0.151,-0.012,0.448,0.019,-87.864,-169.382,-150.540
1747667778.21,0.008,-0.045,0.176,-0.024,0.390,0.002,-87.856,-169.361,-150.756
1747667778.22,-0.018,-0.038,0.150,-0.074,0.319,-0.011,-87.830,-169.197,-150.798
1747667778.23,-0.027,-0.031,0.146,-0.110,0.175,-0.016,-87.775,-169.113,-150.856
1747667778.24,-0.021,-0.013,0.103,-0.110,0.021,-0.042,-87.710,-168.968,-150.766
1747667778.25,-0.006,0.006,0.049,-0.087,-0.113,-0.067,-87.647,-168.506,-150.277
1747667778.26,0.026,0.020,0.026,-0.044,-0.205,-0.078,-87.602,-167.805,-149.482
1747667778.27,0.058,-0.002,0.022,-0.032,-0.288,-0.142,-87.569,-166.564,-148.098
1747667778.28,0.043,-0.122,0.038,-0.080,-0.354,-0.139,-87.519,-165.042,-146.390
1747667778.29,0.031,-0.117,0.061,-0.053,-0.451,-0.099,-87.460,-164.015,-145.131
1747667778.30,0.008,-0.019,0.039,0.054,-0.467,-0.057,-87.446,-163.318,-144.166
1747667778.31,-0.037,0.096,0.003,0.138,-0.411,-0.034,-87.494,-162.629,-143.224
1747667778.32,-0.087,0.084,0.016,0.130,-0.368,-0.034,-87.564,-161.875,-142.248
1747667778.33,-0.134,0.037,0.025,0.096,-0.282,-0.041,-87.618,-161.076,-141.260
1747667778.34,-0.158,0.012,0.037,0.065,-0.133,-0.035,-87.654,-160.334,-140.396
1747667778.35,-0.150,-0.004,0.054,0.076,0.054,-0.010,-87.685,-159.744,-139.781
1747667778.36,-0.126,-0.014,0.087,0.119,0.207,0.012,-87.737,-159.204,-139.316
1747667778.37,-0.110,-0.006,0.093,0.184,0.302,0.022,-87.822,-158.482,-138.741
1747667778.38,-0.105,0.010,0.067,0.226,0.365,0.024,-87.937,-157.400,-137.847
1747667778.39,-0.097,0.015,0.024,0.214,0.477,0.045,-88.061,-156.259,-136.948
1747667778.40,-0.066,0.007,0.035,0.179,0.443,0.058,-88.177,-155.408,-136.367
1747667778.41,-0.052,-0.005,0.032,0.153,0.343,0.053,-88.276,-154.857,-136.038
1747667778.42,-0.049,-0.004,-0.006,0.132,0.326,0.040,-88.361,-154.298,-135.668
1747667778.43,-0.011,0.002,0.001,0.104,0.320,0.040,-88.431,-153.780,-135.337
1747667778.44,0.037,-0.001,0.028,0.103,0.252,0.039,-88.493,-153.399,-135.120
1747667778.45,0.070,-0.001,0.028,0.148,0.151,0.029,-88.564,-152.702,-134.539
1747667778.46,0.087,0.002,0.015,0.207,0.028,0.011,-88.659,-151.135,-133.023
1747667778.47,0.088,0.010,0.007,0.276,-0.094,-0.007,-88.779,-148.054,-129.921
1747667778.48,0.072,0.016,-0.002,0.315,-0.190,-0.005,-88.918,-143.166,-124.951
1747667778.49,0.054,0.013,-0.005,0.314,-0.263,-0.002,-89.054,-136.623,-118.276
1747667778.50,0.023,-0.004,0.011,0.297,-0.344,-0.011,-89.170,-128.366,-109.845
1747667778.51,-0.015,-0.029,0.006,0.281,-0.358,-0.021,-89.253,-118.227,-99.500
1747667778.52,-0.027,-0.050,-0.016,0.294,-0.290,-0.028,-89.301,-105.918,-87.002
1747667778.53,-0.012,-0.056,-0.014,0.339,-0.242,-0.018,-89.315,-91.073,-72.007
1747667778.54,-0.008,-0.036,-0.016,0.390,-0.256,-0.005,-89.281,-74.368,-55.161
1747667778.55,-0.028,-0.001,-0.026,0.443,-0.286,0.000,-89.184,-58.324,-38.960
1747667778.56,-0.051,0.027,-0.038,0.516,-0.262,-0.002,-89.012,-44.797,-25.274
1747667778.57,-0.057,0.029,-0.057,0.565,-0.185,0.007,-88.773,-34.618,-14.963
1747667778.58,-0.047,0.007,-0.068,0.572,-0.066,0.020,-88.498,-27.387,-7.656
1747667778.59,-0.032,-0.023,-0.042,0.588,0.081,0.042,-88.204,-22.013,-2.284
1747667778.60,-0.013,-0.046,-0.007,0.615,0.221,0.090,-87.893,-17.532,2.112
1747667778.61,0.010,-0.055,0.025,0.616,0.272,0.160,-87.571,-13.263,6.237
1747667778.62,0.013,-0.048,0.047,0.575,0.079,0.212,-87.258,-9.341,10.055
1747667778.63,-0.030,-0.021,0.032,0.526,-0.156,0.223,-86.963,-6.106,13.322
1747667778.64,-0.082,0.015,-0.016,0.488,-0.144,0.209,-86.686,-3.560,15.967
1747667778.65,-0.079,0.024,0.027,0.524,0.094,0.200,-86.405,-1.445,18.105
1747667778.66,-0.024,0.004,0.122,0.643,0.277,0.209,-86.075,0.494,19.933
1747667778.67,0.028,-0.013,0.152,0.779,0.166,0.202,-85.666,2.126,21.432
1747667778.68,0.035,0.006,0.062,0.849,-0.121,0.199,-85.192,3.300,22.596
1747667778.69,0.007,0.042,-0.026,0.778,-0.365,0.223,-84.717,4.163,23.606
1747667778.70,0.006,0.064,-0.016,0.691,-0.423,0.243,-84.290,4.984,24.667
1747667778.71,0.038,0.056,0.037,0.696,-0.259,0.205,-83.887,5.682,25.569
1747667778.72,0.042,0.017,0.090,0.764,-0.098,0.158,-83.463,6.117,26.103
1747667778.73,0.017,-0.035,0.105,0.845,-0.118,0.155,-82.997,6.375,26.419
1747667778.74,-0.033,-0.072,0.043,0.939,-0.222,0.176,-82.480,6.563,26.708
1747667778.75,-0.089,-0.079,-0.028,1.013,-0.209,0.179,-81.915,6.713,26.990
1747667778.76,-0.109,-0.060,-0.019,1.033,-0.096,0.181,-81.320,6.849,26.649
1747667778.77,-0.096,-0.018,0.019,1.017,-0.053,0.180,-80.726,7.018,26.859
1747667778.78,-0.076,0.030,0.004,1.012,-0.111,0.160,-80.141,7.120,26.458
1747667778.79,-0.047,0.072,-0.060,1.020,-0.113,0.132,-79.553,7.107,26.517
1747667778.80,-0.012,0.095,-0.076,0.945,0.079,0.115,-78.984,7.092,25.978
1747667778.81,0.005,0.066,0.080,0.865,0.204,0.138,-78.466,7.212,26.011
1747667778.82,-0.015,-0.000,0.177,0.913,0.164,0.187,-77.954,7.446,25.644
1747667778.83,-0.066,-0.058,0.100,0.985,0.055,0.273,-77.398,7.769,25.911
1747667778.84,-0.087,-0.080,-0.017,0.993,0.090,0.341,-76.814,8.224,25.863
1747667778.85,-0.043,-0.084,-0.031,1.050,0.179,0.344,-76.210,8.769,26.340
1747667778.86,0.038,-0.077,-0.019,1.125,0.113,0.255,-75.568,9.144,26.186
1747667778.87,0.097,-0.040,-0.070,1.146,0.167,0.185,-74.906,9.284,26.257
1747667778.88,0.142,0.013,-0.021,1.106,0.318,0.143,-74.255,9.384,25.770
1747667778.89,0.130,0.057,0.091,1.050,0.297,0.072,-73.637,9.429,25.624
1747667778.90,0.001,0.077,0.104,0.970,0.120,0.053,-73.063,9.338,24.963
1747667778.91,-0.146,0.051,0.040,0.918,0.041,0.123,-72.526,9.252,24.831
1747667778.92,-0.193,-0.007,-0.013,0.890,0.051,0.226,-72.000,9.324,24.466
1747667778.93,-0.144,-0.057,-0.014,0.904,0.116,0.291,-71.474,9.564,24.670
1747667778.94,-0.024,-0.080,0.026,1.013,0.172,0.282,-70.908,9.862,24.491
1747667778.95,0.105,-0.067,0.054,1.094,0.057,0.196,-70.288,10.028,24.591
1747667778.96,0.173,-0.016,0.050,1.189,-0.157,0.093,-69.635,9.908,24.118
1747667778.97,0.161,0.047,0.035,1.294,-0.204,0.055,-68.927,9.583,23.887
1747667778.98,0.108,0.100,0.058,1.231,-0.131,0.022,-68.204,9.242,23.252
1747667778.99,0.009,0.135,0.109,1.051,-0.096,0.006,-67.560,8.937,22.992
1747667779.00,-0.111,0.109,0.135,0.959,-0.043,0.101,-66.992,8.751,22.485
1747667779.01,-0.148,0.025,0.066,0.950,-0.082,0.246,-66.439,8.757,22.526
1747667779.02,-0.108,-0.047,-0.007,0.983,-0.167,0.326,-65.869,8.867,22.725
1747667779.03,-0.042,-0.076,-0.011,1.046,-0.207,0.300,-65.269,8.959,22.943
1747667779.04,0.038,-0.069,0.011,1.088,-0.327,0.217,-64.642,8.918,23.064
1747667779.05,0.098,-0.035,-0.029,1.108,-0.458,0.098,-64.009,8.679,23.049
1747667779.06,0.121,0.005,-0.050,1.128,-0.459,0.022,-63.373,8.279,22.902
1747667779.07,0.138,0.041,-0.002,1.101,-0.350,0.065,-62.737,7.912,22.751
1747667779.08,0.107,0.069,0.071,1.044,-0.263,0.139,-62.123,7.689,22.694
1747667779.09,-0.009,0.087,0.108,1.034,-0.182,0.253,-61.523,7.618,22.759
1747667779.10,-0.108,0.065,0.103,1.072,-0.087,0.372,-60.902,7.721,22.963
1747667779.11,-0.125,0.005,0.041,1.105,-0.128,0.419,-60.256,7.916,23.250
1747667779.12,-0.092,-0.053,-0.058,1.144,-0.253,0.392,-59.587,8.054,23.534
1747667779.13,-0.008,-0.100,-0.130,1.159,-0.390,0.321,-58.906,8.054,23.748
1747667779.14,0.107,-0.139,-0.116,1.196,-0.477,0.229,-58.220,7.905,23.869
1747667779.15,0.196,-0.156,-0.046,1.258,-0.447,0.119,-57.509,7.640,23.875
1747667779.16,0.215,-0.131,-0.003,1.190,-0.303,0.021,-56.807,7.340,23.777
1747667779.17,0.153,-0.079,0.052,1.035,-0.077,-0.009,-56.175,7.109,23.631
1747667779.18,0.027,-0.036,0.098,0.898,0.091,0.078,-55.628,7.042,23.538
1747667779.19,-0.111,-0.025,0.085,0.837,0.074,0.252,-55.128,7.138,23.590
1747667779.20,-0.206,-0.029,0.028,0.850,0.006,0.453,-54.626,7.356,23.832
1747667779.21,-0.214,-0.023,-0.006,0.911,-0.026,0.631,-54.088,7.687,24.249
1747667779.22,-0.126,-0.000,-0.007,0.982,-0.057,0.654,-53.501,8.070,24.754
1747667779.23,-0.004,0.024,-0.023,1.047,-0.133,0.497,-52.880,8.347,25.164
1747667779.24,0.097,0.054,-0.028,1.125,-0.268,0.286,-52.236,8.404,25.380
1747667779.25,0.107,0.092,-0.018,1.233,-0.325,0.070,-51.555,8.234,25.383
1747667779.26,0.052,0.142,0.033,1.288,-0.273,-0.079,-50.842,7.926,25.210
1747667779.27,-0.017,0.179,0.148,1.295,-0.174,-0.099,-50.118,7.612,24.967
1747667779.28,-0.087,0.169,0.229,1.292,-0.101,0.008,-49.389,7.385,24.772
1747667779.29,-0.145,0.120,0.162,1.250,-0.077,0.171,-48.659,7.287,24.707
1747667779.30,-0.138,0.051,0.029,1.201,-0.076,0.297,-47.948,7.296,24.778
1747667779.31,-0.080,-0.023,-0.051,1.213,-0.071,0.350,-47.242,7.361,24.924
1747667779.32,-0.007,-0.087,-0.056,1.272,-0.070,0.316,-46.515,7.430,25.072
1747667779.33,0.028,-0.120,-0.017,1.333,-0.116,0.210,-45.756,7.435,25.150
1747667779.34,-0.005,-0.108,-0.019,1.339,-0.200,0.096,-44.986,7.332,25.133
1747667779.35,-0.069,-0.062,-0.023,1.283,-0.143,0.014,-44.238,7.163,25.043
1747667779.36,-0.098,-0.008,0.016,1.204,0.023,-0.028,-43.534,7.039,24.913
1747667779.37,-0.084,0.031,0.069,1.147,0.081,0.007,-42.869,6.987,24.788
1747667779.38,-0.053,0.050,0.062,1.106,0.043,0.140,-42.227,6.988,24.733
1747667779.39,-0.009,0.039,0.042,1.111,-0.003,0.282,-41.586,7.040,24.793
1747667779.40,0.049,0.023,0.030,1.170,-0.058,0.350,-40.918,7.113,24.930
1747667779.41,0.075,0.019,0.022,1.225,-0.137,0.325,-40.215,7.155,25.074
1747667779.42,0.057,0.025,0.017,1.258,-0.269,0.200,-39.490,7.090,25.156
1747667779.43,0.008,0.035,-0.008,1.287,-0.313,0.038,-38.761,6.903,25.129
1747667779.44,-0.021,0.047,0.027,1.315,-0.256,-0.100,-38.024,6.655,24.992
1747667779.45,-0.026,0.043,0.077,1.321,-0.194,-0.168,-37.285,6.400,24.784
1747667779.46,-0.022,0.028,0.069,1.305,-0.163,-0.150,-36.548,6.169,24.565
1747667779.47,-0.006,0.009,0.047,1.230,-0.179,-0.037,-35.833,5.973,24.399
1747667779.48,0.009,-0.005,0.009,1.148,-0.143,0.149,-35.155,5.850,24.351
1747667779.49,0.067,-0.002,-0.006,1.061,-0.112,0.333,-34.514,5.829,24.441
1747667779.50,0.123,0.027,0.005,1.056,-0.087,0.421,-33.894,5.880,24.631
1747667779.51,0.126,0.075,0.033,1.117,-0.124,0.382,-33.254,5.934,24.833
1747667779.52,0.076,0.134,0.048,1.193,-0.213,0.271,-32.577,5.916,24.975
1747667779.53,0.004,0.177,0.029,1.255,-0.305,0.157,-31.869,5.799,25.034
1747667779.54,-0.064,0.175,0.027,1.318,-0.348,0.080,-31.131,5.606,25.024
1747667779.55,-0.092,0.130,0.036,1.341,-0.272,0.047,-30.371,5.404,24.981
1747667779.56,-0.050,0.062,0.050,1.334,-0.213,0.015,-29.606,5.237,24.920
1747667779.57,0.003,0.005,0.043,1.281,-0.153,-0.001,-28.861,5.096,24.845
1747667779.58,0.014,-0.037,0.004,1.213,-0.198,0.035,-28.150,4.972,24.782
1747667779.59,-0.005,-0.066,-0.032,1.152,-0.265,0.117,-27.476,4.828,24.766
1747667779.60,-0.049,-0.073,-0.029,1.164,-0.185,0.169,-26.812,4.710,24.799
1747667779.61,-0.063,-0.045,0.022,1.196,-0.126,0.142,-26.133,4.644,24.839
1747667779.62,-0.062,0.008,0.006,1.210,-0.133,0.062,-25.443,4.572,24.844
1747667779.63,-0.059,0.058,-0.003,1.251,-0.129,-0.015,-24.743,4.476,24.798
1747667779.64,-0.034,0.069,0.055,1.321,-0.137,-0.066,-24.013,4.365,24.709
1747667779.65,0.003,0.044,0.081,1.358,-0.182,-0.101,-23.250,4.229,24.594
1747667779.66,0.034,0.002,0.052,1.368,-0.255,-0.118,-22.479,4.054,24.464
1747667779.67,0.051,-0.040,0.037,1.385,-0.316,-0.110,-21.698,3.842,24.334
1747667779.68,0.044,-0.072,0.057,1.361,-0.320,-0.063,-20.917,3.619,24.225
1747667779.69,0.037,-0.090,0.047,1.355,-0.260,0.002,-20.147,3.426,24.157
1747667779.70,0.053,-0.089,0.019,1.365,-0.145,0.017,-19.370,3.296,24.117
1747667779.71,0.043,-0.072,-0.005,1.367,-0.065,0.027,-18.591,3.225,24.083
1747667779.72,-0.008,-0.087,-0.026,1.395,-0.015,0.061,-17.804,3.197,24.062
1747667779.73,-0.048,-0.128,-0.020,1.460,0.022,0.094,-16.989,3.199,24.062
1747667779.74,-0.055,-0.124,0.036,1.504,0.093,0.057,-16.140,3.229,24.060
1747667779.75,-0.031,-0.067,0.097,1.536,0.126,-0.012,-15.272,3.285,24.022
1747667779.76,0.007,-0.002,0.122,1.518,0.053,-0.045,-14.400,3.320,23.951
1747667779.77,0.038,0.031,0.064,1.478,-0.056,-0.036,-13.543,3.315,23.871
1747667779.78,0.051,0.017,-0.004,1.429,-0.103,0.085,-12.717,3.259,23.836
1747667779.79,0.079,-0.023,0.009,1.404,-0.084,0.182,-11.904,3.212,23.870
1747667779.80,0.098,-0.053,0.001,1.386,-0.058,0.169,-11.103,3.183,23.930
1747667779.81,0.096,-0.057,-0.032,1.394,-0.039,0.117,-10.308,3.164,23.969
1747667779.82,0.083,-0.061,-0.009,1.413,-0.053,0.100,-9.504,3.139,23.985
1747667779.83,0.062,-0.059,-0.007,1.443,-0.030,0.093,-8.688,3.117,23.995
1747667779.84,0.062,-0.066,0.005,1.501,0.019,0.077,-7.845,3.113,23.998
1747667779.85,0.054,-0.043,0.055,1.473,0.073,0.057,-6.991,3.139,23.989
1747667779.86,0.018,0.014,0.055,1.419,0.055,0.067,-6.165,3.177,23.979
1747667779.87,-0.078,0.041,-0.032,1.350,0.077,0.102,-5.375,3.210,23.982
1747667779.88,-0.148,0.021,-0.103,1.352,0.171,0.134,-4.600,3.281,24.005
1747667779.89,-0.134,-0.033,-0.120,1.314,0.255,0.163,-3.835,3.408,24.046
1747667779.90,-0.060,-0.042,-0.111,1.318,0.291,0.163,-3.081,3.567,24.095
1747667779.91,0.017,0.017,-0.095,1.394,0.250,0.151,-2.304,3.729,24.540
1747667779.92,0.051,0.124,-0.011,1.418,0.131,0.101,-1.493,3.837,24.559
1747667779.93,0.043,0.227,0.032,1.373,0.053,0.032,-0.695,3.888,24.939
1747667779.94,0.026,0.213,0.009,1.408,0.042,-0.003,0.096,3.911,24.892
1747667779.95,-0.007,0.105,0.011,1.373,0.094,-0.033,0.892,3.951,25.230
1747667779.96,-0.069,-0.025,0.022,1.292,0.085,-0.099,1.648,4.004,25.139
1747667779.97,-0.125,-0.117,-0.083,1.268,0.075,-0.115,2.372,4.053,25.415
1747667779.98,-0.146,-0.151,-0.156,1.230,0.141,-0.077,3.082,4.115,25.308
1747667779.99,-0.112,-0.103,-0.139,1.185,0.230,-0.059,3.768,4.227,25.617
1747667780.00,-0.042,-0.017,-0.108,1.120,0.193,-0.082,4.422,4.360,25.528
1747667780.01,0.019,0.050,-0.123,1.084,0.057,-0.076,5.044,4.440,25.825
1747667780.02,0.080,0.068,-0.098,1.061,-0.062,-0.024,5.655,4.444,25.748
1747667780.03,0.136,0.058,-0.047,1.006,-0.150,-0.011,6.241,4.389,26.083
1747667780.04,0.160,0.072,-0.035,1.020,-0.215,-0.028,6.814,4.290,26.029
1747667780.05,0.111,0.122,-0.067,1.026,-0.217,-0.042,7.397,4.170,26.344
1747667780.06,0.015,0.143,-0.100,1.013,-0.118,-0.047,7.975,4.080,26.277
1747667780.07,-0.075,0.085,-0.125,1.001,0.073,-0.041,8.548,4.072,26.584
1747667780.08,-0.126,-0.010,-0.102,0.913,0.284,-0.047,9.094,4.188,26.903
1747667780.09,-0.094,-0.116,-0.074,0.816,0.285,-0.033,9.583,4.370,26.841
1747667780.10,-0.003,-0.174,-0.116,0.712,0.140,0.032,10.020,4.499,27.169
1747667780.11,0.114,-0.124,-0.124,0.613,-0.069,0.130,10.398,4.519,27.187
1747667780.12,0.258,-0.043,-0.101,0.540,-0.301,0.190,10.734,4.398,27.623
1747667780.13,0.331,-0.003,-0.126,0.493,-0.439,0.195,11.033,4.166,27.715
1747667780.14,0.335,-0.020,-0.092,0.517,-0.503,0.215,11.327,3.875,28.188
1747667780.15,0.250,-0.016,-0.048,0.498,-0.421,0.238,11.627,3.584,28.301
1747667780.16,0.129,0.009,-0.014,0.481,-0.263,0.249,11.913,3.361,28.784
1747667780.17,0.006,-0.042,0.007,0.471,-0.039,0.307,12.194,3.243,28.928
1747667780.18,-0.091,-0.129,0.031,0.437,0.188,0.382,12.465,3.248,29.461
1747667780.19,-0.111,-0.169,0.021,0.383,0.334,0.456,12.712,3.349,29.693
1747667780.20,-0.068,-0.155,-0.019,0.353,0.389,0.514,12.937,3.500,30.319
1747667780.21,0.013,-0.113,-0.015,0.330,0.311,0.558,13.152,3.636,30.620
1747667780.22,0.080,-0.065,-0.024,0.263,0.152,0.660,13.342,3.692,31.310
1747667780.23,0.144,-0.048,-0.085,0.157,-0.001,0.744,13.487,3.643,31.716
1747667780.24,0.171,-0.046,-0.144,0.125,-0.155,0.841,13.593,3.492,32.507
1747667780.25,0.123,-0.027,-0.164,0.071,-0.195,0.910,13.681,3.263,33.019
1747667780.26,0.039,-0.042,-0.141,0.037,-0.092,0.904,13.739,3.052,33.875
1747667780.27,-0.051,-0.066,-0.070,0.017,0.042,0.933,13.785,2.899,34.411
1747667780.28,-0.125,-0.090,-0.039,-0.017,0.170,0.858,13.805,2.837,35.264
1747667780.29,-0.181,-0.035,-0.023,0.000,0.295,0.747,13.825,2.857,35.734
1747667780.30,-0.162,0.040,-0.047,-0.038,0.311,0.657,13.836,2.938,36.462
1747667780.31,-0.073,0.062,-0.086,-0.097,0.213,0.599,13.816,3.000,36.832
1747667780.32,-0.033,0.035,-0.127,-0.154,0.112,0.565,13.762,3.009,37.482
1747667780.33,-0.014,-0.018,-0.117,-0.229,0.052,0.558,13.670,2.975,37.816
1747667780.34,0.016,-0.048,-0.123,-0.250,-0.042,0.649,13.546,2.895,38.470
1747667780.35,0.053,-0.079,-0.148,-0.336,-0.025,0.549,13.394,2.794,38.838
1747667780.36,0.034,-0.040,-0.058,-0.347,-0.029,0.466,13.212,2.707,39.428
1747667780.37,0.050,0.028,-0.078,-0.357,-0.023,0.509,13.024,2.628,39.722
1747667780.38,0.083,0.024,-0.097,-0.372,0.011,0.570,12.832,2.549,40.334
1747667780.39,0.036,0.061,-0.093,-0.401,0.091,0.610,12.626,2.500,40.692
1747667780.40,-0.029,0.074,-0.072,-0.444,0.182,0.621,12.401,2.498,41.341
1747667780.40,-0.067,0.024,-0.075,-0.509,0.300,0.633,12.143,2.553,41.721
1747667780.42,-0.045,-0.068,-0.030,-0.520,0.361,0.615,11.865,2.669,42.368
1747667780.43,0.000,-0.107,-0.005,-0.540,0.314,0.560,11.580,2.792,42.726
1747667780.44,0.038,-0.073,-0.029,-0.592,0.219,0.491,11.271,2.881,43.302
1747667780.45,0.079,-0.032,-0.038,-0.597,0.108,0.455,10.944,2.919,43.593
1747667780.46,0.102,0.020,-0.066,-0.568,-0.008,0.557,10.621,2.893,44.145
1747667780.47,0.099,0.062,-0.138,-0.669,-0.017,0.558,10.282,2.828,44.493
1747667780.47,0.016,0.107,-0.082,-0.657,0.029,0.493,9.919,2.770,45.069
1747667780.49,-0.080,0.135,-0.103,-0.660,0.159,0.463,9.557,2.772,45.364
1747667780.49,-0.107,0.002,-0.065,-0.659,0.293,0.362,9.191,2.860,45.879
1747667780.50,-0.118,-0.053,0.002,-0.653,0.286,0.242,8.826,3.003,46.070
1747667780.51,-0.069,-0.005,-0.019,-0.681,0.167,0.176,8.452,3.113,46.443
1747667780.52,-0.013,0.046,-0.086,-0.698,0.057,0.147,8.063,3.158,46.558
1747667780.53,-0.010,0.095,-0.125,-0.725,0.010,0.135,7.664,3.161,46.890
1747667780.54,-0.044,0.124,-0.136,-0.779,-0.017,0.154,7.239,3.145,46.998
1747667780.55,-0.083,0.070,-0.132,-0.777,-0.007,0.133,6.797,3.123,47.333
1747667780.56,-0.117,-0.036,-0.098,-0.762,0.057,0.023,6.363,3.129,47.405
1747667780.57,-0.124,-0.086,-0.024,-0.762,0.070,-0.125,5.926,3.168,47.627
1747667780.58,-0.093,-0.062,0.045,-0.770,-0.007,-0.152,5.487,3.194,47.565
1747667780.59,-0.021,-0.032,0.032,-0.809,-0.092,-0.062,5.032,3.168,47.751
1747667780.60,0.073,-0.004,-0.033,-0.821,-0.131,0.031,4.566,3.101,47.768
1747667780.61,0.109,0.045,-0.090,-0.772,-0.102,0.125,4.113,3.028,48.059
1747667780.62,0.070,0.065,-0.076,-0.754,-0.036,0.160,3.684,2.980,48.166
1747667780.63,-0.005,0.035,-0.053,-0.781,0.049,0.139,3.251,2.975,48.479
1747667780.64,-0.064,-0.024,-0.026,-0.809,0.224,0.136,2.803,3.045,48.580
1747667780.65,-0.068,-0.078,0.060,-0.837,0.363,0.173,2.339,3.214,48.896
1747667780.66,-0.032,-0.093,0.074,-0.864,0.333,0.213,1.860,3.410,49.034
1747667780.67,-0.039,-0.042,-0.032,-0.857,0.294,0.265,1.375,3.583,49.397
1747667780.68,-0.026,0.032,-0.071,-0.859,0.261,0.310,0.897,3.740,49.593
1747667780.69,0.020,0.099,-0.069,-0.842,0.160,0.321,0.424,3.859,50.011
1747667780.70,0.061,0.100,-0.079,-0.827,0.089,0.301,-0.040,3.925,50.222
1747667780.71,0.096,0.022,0.007,-0.816,0.112,0.266,-0.495,3.982,50.608
1747667780.72,0.114,-0.063,0.061,-0.873,0.125,0.230,-0.965,4.053,50.783
1747667780.73,0.097,-0.096,-0.007,-0.868,0.109,0.197,-1.456,4.122,51.121
1747667780.74,-0.016,-0.059,-0.053,-0.821,0.104,0.155,-1.928,4.186,51.257
1747667780.75,-0.179,0.015,-0.085,-0.823,0.125,0.118,-2.391,4.254,51.550
1747667780.76,-0.298,0.075,-0.091,-0.813,0.211,0.110,-2.852,4.352,51.650
1747667780.77,-0.300,0.088,-0.041,-0.794,0.310,0.088,-3.305,4.507,51.911
1747667780.78,-0.184,0.060,0.016,-0.753,0.405,0.046,-3.741,4.717,51.985
1747667780.79,-0.058,-0.001,0.042,-0.772,0.357,0.013,-4.174,4.944,52.210
1747667780.80,-0.003,-0.053,-0.050,-0.781,0.228,-0.033,-4.616,5.113,52.245
1747667780.81,-0.044,-0.064,-0.160,-0.780,0.190,-0.090,-5.062,5.230,52.422
1747667780.82,-0.122,-0.042,-0.104,-0.799,0.183,-0.128,-5.516,5.337,52.399
1747667780.83,-0.158,-0.022,-0.066,-0.864,0.187,-0.130,-5.994,5.437,52.530
1747667780.84,-0.124,-0.014,-0.054,-0.905,0.218,-0.109,-6.507,5.551,52.510
1747667780.85,-0.017,-0.008,-0.001,-0.857,0.211,-0.094,-7.015,5.674,52.654
1747667780.86,0.087,-0.004,0.015,-0.809,0.153,-0.064,-7.492,5.781,52.655
1747667780.87,0.144,-0.029,0.006,-0.819,0.117,-0.035,-7.954,5.855,52.813
1747667780.88,0.174,-0.076,-0.011,-0.857,0.152,-0.019,-8.432,5.938,52.849
1747667780.89,0.151,-0.107,0.002,-0.861,0.200,-0.013,-8.922,6.045,53.029
1747667780.90,0.042,-0.101,0.006,-0.919,0.252,0.016,-9.425,6.182,53.083
1747667780.91,-0.050,-0.069,0.003,-0.999,0.365,0.077,-9.966,6.369,53.308
1747667780.92,-0.048,-0.016,-0.015,-1.083,0.459,0.130,-10.552,6.629,53.436
1747667780.93,0.014,0.058,-0.013,-1.066,0.466,0.169,-11.155,6.928,53.724
1747667780.94,0.078,0.121,-0.031,-0.984,0.360,0.163,-11.722,7.209,54.025
1747667780.95,0.099,0.160,-0.098,-0.974,0.178,0.104,-12.265,7.394,54.177
1747667780.96,0.070,0.163,-0.149,-0.968,0.043,0.028,-12.810,7.477,54.405
1747667780.97,0.010,0.100,-0.090,-0.957,0.026,-0.025,-13.356,7.509,54.480
1747667780.98,-0.043,-0.003,-0.008,-0.988,0.081,-0.083,-13.908,7.550,54.572
1747667780.99,-0.086,-0.083,-0.004,-1.062,0.162,-0.104,-14.498,7.624,54.594
1747667781.00,-0.112,-0.134,-0.009,-1.080,0.254,-0.057,-15.109,7.755,54.686
1747667781.01,-0.094,-0.147,0.008,-1.098,0.237,-0.008,-15.729,7.917,54.757
1747667781.02,-0.071,-0.096,-0.043,-1.016,0.241,0.004,-16.329,8.072,54.843
1747667781.03,-0.052,-0.016,-0.055,-1.029,0.353,-0.004,-16.904,8.270,54.930
1747667781.04,0.002,0.060,-0.001,-1.024,0.279,-0.041,-17.488,8.478,55.010
1747667781.05,-0.021,0.103,-0.073,-0.979,0.268,-0.108,-18.061,8.640,55.055
1747667781.06,-0.075,0.107,-0.024,-0.948,0.352,-0.184,-18.613,8.820,55.057
1747667781.07,-0.085,0.081,0.005,-0.992,0.300,-0.250,-19.180,8.998,55.018
1747667781.08,-0.127,0.033,-0.101,-0.925,0.320,-0.279,-19.748,9.145,54.951
1747667781.09,-0.173,-0.032,-0.070,-0.916,0.496,-0.296,-20.287,9.348,54.868
1747667781.10,-0.163,-0.073,0.010,-0.972,0.544,-0.333,-20.850,9.620,54.774
1747667781.11,-0.150,-0.080,-0.053,-0.979,0.495,-0.379,-21.435,9.873,54.661
1747667781.12,-0.154,-0.076,-0.058,-0.972,0.532,-0.391,-22.021,10.115,54.531
1747667781.13,-0.108,-0.062,0.038,-1.001,0.514,-0.368,-22.613,10.373,54.407
1747667781.14,-0.048,-0.052,-0.014,-0.988,0.428,-0.337,-23.209,10.600,54.305
1747667781.15,-0.035,-0.044,-0.046,-1.002,0.453,-0.327,-23.801,10.814,54.219
1747667781.16,-0.008,-0.030,-0.019,-1.033,0.455,-0.336,-24.407,11.043,54.137
1747667781.17,0.007,-0.024,-0.047,-1.049,0.412,-0.329,-25.028,11.256,54.058
1747667781.18,0.000,-0.026,-0.031,-1.029,0.440,-0.307,-25.647,11.468,53.990
1747667781.19,-0.009,-0.015,0.004,-1.011,0.505,-0.307,-26.253,11.711,53.930
1747667781.20,-0.035,0.008,0.043,-1.019,0.547,-0.303,-26.856,11.986,53.872
1747667781.21,-0.049,0.028,0.032,-1.025,0.586,-0.290,-27.463,12.288,53.823
1747667781.22,-0.039,0.040,0.000,-1.039,0.600,-0.259,-28.072,12.613,53.794
1747667781.23,-0.010,0.043,-0.009,-1.065,0.567,-0.229,-28.690,12.949,53.791
1747667781.24,0.033,0.035,-0.033,-1.060,0.501,-0.222,-29.311,13.259,53.805
1747667781.25,0.068,0.019,-0.036,-1.058,0.469,-0.219,-29.928,13.546,53.825
1747667781.26,0.094,0.002,-0.016,-1.078,0.352,-0.241,-30.550,13.792,53.843
1747667781.27,0.082,-0.018,-0.039,-1.091,0.297,-0.255,-31.186,13.978,53.855
1747667781.28,0.066,-0.042,-0.032,-1.078,0.332,-0.277,-31.824,14.160,53.861
1747667781.29,0.060,-0.054,0.005,-1.046,0.340,-0.300,-32.452,14.345,53.847
1747667781.30,0.015,-0.048,0.005,-1.071,0.360,-0.281,-33.077,14.538,53.833
1747667781.31,-0.016,-0.036,0.030,-1.133,0.355,-0.238,-33.724,14.755,53.852
1747667781.32,-0.030,-0.015,0.021,-1.190,0.364,-0.194,-34.397,14.992,53.914
1747667781.33,-0.027,0.013,0.002,-1.211,0.389,-0.157,-35.087,15.266,54.016
1747667781.34,0.022,0.038,0.002,-1.212,0.348,-0.154,-35.777,15.552,54.139
1747667781.35,0.067,0.062,0.010,-1.210,0.220,-0.179,-36.470,15.786,54.258
1747667781.36,0.085,0.089,-0.002,-1.183,0.060,-0.193,-37.156,15.927,54.362
1747667781.37,0.091,0.099,-0.052,-1.191,-0.016,-0.193,-37.839,15.998,54.464
1747667781.38,0.108,0.078,-0.068,-1.195,-0.030,-0.212,-38.526,16.048,54.562
1747667781.39,0.094,0.038,-0.002,-1.189,-0.080,-0.241,-39.216,16.069,54.644
