Time,AccX,AccY,AccZ,GyroX,GyroY,GyroZ,Pitch,Roll,Yaw
1747685380.51,0.017,-0.008,-0.019,0.014,-0.040,0.000,-82.703,8.784,7.300
1747685380.52,0.018,0.005,-0.002,0.028,-0.038,-0.001,-82.686,8.752,7.291
1747685380.53,0.016,0.010,0.007,0.032,-0.027,0.000,-82.666,8.723,7.280
1747685380.54,0.006,0.006,0.009,0.017,-0.024,-0.005,-82.650,8.698,7.269
1747685380.55,-0.014,-0.002,0.009,0.004,-0.033,-0.004,-82.642,8.654,7.241
1747685380.56,-0.032,-0.005,0.001,-0.005,-0.025,-0.000,-82.640,8.623,7.227
1747685380.57,-0.032,-0.002,0.005,-0.012,-0.019,0.008,-82.641,8.634,7.251
1747685380.58,-0.021,0.006,0.013,-0.018,-0.001,0.003,-82.645,8.672,7.294
1747685380.59,-0.009,0.012,0.017,-0.026,0.021,-0.010,-82.655,8.695,7.312
1747685380.60,-0.003,0.009,0.021,-0.025,0.010,-0.017,-82.671,8.684,7.289
1747685380.61,-0.007,0.004,0.019,-0.028,-0.018,-0.023,-82.688,8.627,7.234
1747685380.62,-0.021,0.007,0.015,-0.029,-0.006,-0.029,-82.706,8.533,7.147
1747685380.63,-0.033,0.011,0.022,-0.025,0.012,-0.029,-82.726,8.410,7.022
1747685380.64,-0.033,0.002,0.026,-0.025,0.021,-0.020,-82.743,8.298,6.900
1747685380.65,-0.022,-0.006,0.013,-0.036,0.026,-0.010,-82.763,8.238,6.826
1747685380.66,-0.006,-0.005,0.005,-0.033,0.027,-0.008,-82.786,8.225,6.798
1747685380.67,0.013,0.001,-0.003,-0.016,0.036,-0.018,-82.803,8.203,6.758
1747685380.68,0.022,0.011,-0.009,0.001,0.045,-0.032,-82.811,8.119,6.649
1747685380.69,0.013,0.016,-0.012,-0.002,0.025,-0.034,-82.817,7.981,6.490
1747685380.70,0.001,0.008,-0.018,-0.005,0.004,-0.033,-82.824,7.817,6.317
1747685380.71,-0.002,-0.005,-0.029,-0.002,0.002,-0.030,-82.833,7.642,6.141
1747685380.72,0.008,-0.012,-0.030,0.005,0.023,-0.022,-82.839,7.492,5.984
1747685380.73,0.019,-0.014,-0.019,0.015,0.050,-0.011,-82.835,7.416,5.886
1747685380.74,0.021,-0.008,-0.011,0.017,0.077,-0.007,-82.827,7.389,5.823
1747685380.75,0.014,-0.003,-0.009,0.007,0.083,-0.004,-82.820,7.418,5.804
1747685380.76,0.006,-0.008,-0.008,-0.007,0.070,-0.009,-82.819,7.454,5.795
1747685380.77,0.004,-0.019,-0.013,-0.012,0.058,-0.007,-82.824,7.474,5.778
1747685380.78,0.010,-0.024,-0.018,-0.006,0.040,-0.001,-82.827,7.487,5.762
1747685380.79,0.024,-0.015,-0.018,0.017,0.025,0.005,-82.819,7.509,5.768
1747685380.80,0.030,0.003,-0.016,0.038,0.028,-0.011,-82.800,7.507,5.750
1747685380.81,0.019,0.017,-0.006,0.057,0.031,-0.028,-82.771,7.426,5.650
1747685380.82,-0.006,0.023,-0.015,0.050,0.048,-0.025,-82.739,7.316,5.518
1747685380.83,-0.036,0.012,-0.017,0.021,0.067,-0.011,-82.719,7.263,5.430
1747685380.84,-0.063,0.002,-0.010,0.003,0.085,-0.004,-82.713,7.273,5.398
1747685380.85,-0.072,-0.007,-0.011,0.003,0.132,0.006,-82.711,7.343,5.407
1747685380.86,-0.044,-0.011,0.007,0.018,0.183,0.012,-82.704,7.478,5.451
1747685380.87,-0.011,0.001,0.024,0.033,0.188,-0.007,-82.688,7.591,5.456
1747685380.88,-0.012,0.013,0.016,0.022,0.155,-0.017,-82.672,7.617,5.383
1747685380.89,-0.021,0.004,-0.007,0.003,0.125,-0.000,-82.665,7.644,5.330
1747685380.90,-0.010,-0.025,-0.026,0.001,0.132,0.011,-82.665,7.742,5.356
1747685380.91,0.019,-0.037,-0.026,0.025,0.164,-0.009,-82.657,7.814,5.345
1747685380.92,0.035,-0.014,-0.019,0.050,0.182,-0.041,-82.638,7.755,5.185
1747685380.93,0.019,0.016,-0.020,0.078,0.175,-0.066,-82.605,7.548,4.873
1747685380.94,-0.016,0.029,-0.028,0.091,0.147,-0.072,-82.563,7.267,4.497
1747685380.95,-0.046,0.026,-0.041,0.081,0.129,-0.061,-82.519,7.003,4.152
1747685380.96,-0.053,0.015,-0.046,0.058,0.150,-0.028,-82.484,6.844,3.913
1747685380.97,-0.033,-0.006,-0.039,0.039,0.203,-0.002,-82.458,6.836,3.803
1747685380.98,-0.002,-0.026,-0.026,0.028,0.244,0.025,-82.437,6.995,3.834
1747685380.99,0.027,-0.035,-0.022,0.012,0.232,0.047,-82.421,7.282,3.984
1747685381.00,0.057,-0.033,-0.027,0.005,0.169,0.058,-82.410,7.633,4.222
1747685381.01,0.083,-0.020,-0.042,-0.004,0.095,0.054,-82.406,7.945,4.461
1747685381.02,0.108,-0.004,-0.042,-0.001,0.025,0.041,-82.403,8.177,4.660
1747685381.03,0.124,0.013,-0.020,0.014,-0.038,0.023,-82.397,8.304,4.793
1747685381.04,0.113,0.023,-0.010,0.034,-0.090,-0.010,-82.382,8.266,4.792
1747685381.05,0.081,0.014,-0.016,0.031,-0.126,-0.020,-82.365,8.107,4.694
1747685381.06,0.050,-0.005,-0.015,0.030,-0.145,-0.012,-82.349,7.938,4.604
1747685381.07,0.029,-0.017,-0.009,0.042,-0.130,-0.014,-82.329,7.788,4.532
1747685381.08,0.005,-0.011,0.001,0.059,-0.111,-0.027,-82.303,7.610,4.422
1747685381.09,-0.025,0.004,0.008,0.076,-0.089,-0.039,-82.265,7.390,4.256
1747685381.10,-0.052,0.013,0.009,0.068,-0.067,-0.038,-82.225,7.162,4.071
1747685381.11,-0.072,0.013,0.008,0.043,-0.042,-0.029,-82.196,6.976,3.915
1747685381.12,-0.083,0.008,0.006,0.033,-0.001,-0.023,-82.176,6.850,3.801
1747685381.13,-0.085,-0.008,-0.001,0.042,0.052,-0.016,-82.157,6.772,3.708
1747685381.14,-0.072,-0.021,-0.006,0.062,0.115,-0.001,-82.128,6.759,3.645
1747685381.15,-0.047,-0.022,-0.005,0.054,0.153,0.035,-82.092,6.877,3.686
1747685381.16,-0.019,-0.009,0.001,0.062,0.170,0.055,-82.057,7.135,3.852
1747685381.17,-0.005,0.012,0.012,0.097,0.155,0.045,-82.008,7.392,4.018
1747685381.18,-0.001,0.018,0.007,0.117,0.121,0.019,-81.945,7.533,4.081
1747685381.19,0.014,0.002,-0.016,0.116,0.068,0.017,-81.879,7.582,4.077
1747685381.20,0.039,-0.012,-0.023,0.128,0.032,0.034,-81.809,7.641,4.109
1747685381.21,0.066,-0.016,-0.014,0.150,0.009,0.017,-81.727,7.667,4.123
1747685381.22,0.059,-0.002,-0.000,0.178,-0.029,0.013,-81.634,7.616,4.079
1747685381.23,0.028,0.019,0.004,0.189,-0.021,0.013,-81.529,7.559,4.037
1747685381.24,0.001,0.040,0.018,0.198,-0.004,-0.010,-81.419,7.459,3.942
1747685381.25,-0.037,0.030,0.033,0.195,0.002,-0.028,-81.309,7.291,3.774
1747685381.26,-0.066,0.011,0.035,0.183,0.031,-0.027,-81.204,7.115,3.586
1747685381.27,-0.090,-0.006,0.047,0.181,0.058,-0.012,-81.102,6.991,3.434
1747685381.28,-0.096,-0.015,0.048,0.183,0.070,0.004,-80.999,6.937,3.343
1747685381.29,-0.078,-0.021,0.037,0.198,0.086,0.015,-80.891,6.939,3.299
1747685381.30,-0.043,-0.025,0.029,0.240,0.109,0.020,-80.766,6.964,3.268
1747685381.31,-0.004,-0.018,0.017,0.281,0.118,0.043,-80.617,7.033,3.271
1747685381.32,0.022,0.000,0.012,0.327,0.141,0.057,-80.442,7.151,3.318
1747685381.33,0.021,0.022,0.014,0.372,0.186,0.055,-80.240,7.283,3.357
1747685381.34,-0.005,0.032,0.009,0.395,0.228,0.055,-80.019,7.404,3.360
1747685381.35,-0.032,0.031,0.010,0.383,0.248,0.062,-79.795,7.550,3.371
1747685381.36,-0.056,0.019,0.023,0.375,0.252,0.079,-79.577,7.741,3.419
1747685381.37,-0.069,-0.003,0.024,0.387,0.255,0.094,-79.355,7.990,3.526
1747685381.37,-0.066,-0.033,0.014,0.408,0.254,0.109,-79.123,8.267,3.659
1747685381.39,-0.040,-0.048,0.000,0.450,0.255,0.127,-78.870,8.566,3.816
1747685381.39,-0.002,-0.042,-0.016,0.486,0.247,0.145,-78.593,8.893,4.002
1747685381.41,0.025,-0.019,-0.016,0.514,0.163,0.137,-78.298,9.187,4.179
1747685381.41,0.014,0.013,-0.032,0.548,0.084,0.095,-77.989,9.340,4.266
1747685381.42,-0.015,0.035,-0.047,0.574,0.091,0.046,-77.666,9.329,4.206
1747685381.43,-0.037,0.040,-0.030,0.615,0.121,-0.010,-77.331,9.187,3.997
1747685381.44,-0.058,0.025,-0.016,0.673,0.152,-0.033,-76.970,8.951,3.678
1747685381.45,-0.077,-0.006,-0.030,0.706,0.253,-0.018,-76.582,8.742,3.345
1747685381.46,-0.085,-0.033,-0.017,0.717,0.349,0.007,-76.180,8.650,3.072
1747685381.47,-0.087,-0.038,-0.018,0.728,0.430,0.025,-75.771,8.668,2.859
1747685381.48,-0.078,-0.033,-0.039,0.717,0.505,0.033,-75.359,8.757,2.676
1747685381.49,-0.051,-0.023,-0.035,0.734,0.587,0.031,-74.949,8.900,2.502
1747685381.51,-0.030,-0.020,-0.028,0.765,0.666,0.027,-74.523,9.070,2.306
1747685381.51,-0.018,-0.015,-0.018,0.729,0.723,0.037,-74.097,9.286,2.116
1747685381.52,-0.028,-0.005,0.028,0.668,0.680,0.072,-73.698,9.565,1.985
1747685381.53,-0.050,-0.008,0.041,0.601,0.570,0.147,-73.329,9.920,1.983
1747685381.54,-0.048,-0.007,-0.018,0.524,0.528,0.220,-72.994,10.387,2.146
1747685381.55,0.008,-0.007,-0.018,0.466,0.497,0.251,-72.692,10.946,2.423
1747685381.56,0.115,-0.013,0.050,0.462,0.398,0.266,-72.406,11.504,2.738
1747685381.57,0.234,-0.017,0.074,0.514,0.237,0.258,-72.103,11.971,3.037
1747685381.58,0.312,-0.015,0.058,0.587,0.000,0.229,-71.766,12.251,3.259
1747685381.59,0.314,-0.007,0.045,0.646,-0.269,0.219,-71.394,12.323,3.414
1747685381.60,0.257,0.010,0.036,0.661,-0.480,0.205,-71.002,12.222,3.537
1747685381.61,0.151,0.037,0.014,0.634,-0.570,0.165,-70.618,11.991,3.611
1747685381.62,0.040,0.048,0.018,0.628,-0.531,0.136,-70.249,11.702,3.641
1747685381.63,-0.021,0.034,0.047,0.655,-0.454,0.114,-69.876,11.407,3.639
1747685381.64,-0.056,0.013,0.055,0.643,-0.355,0.122,-69.498,11.154,3.617
1747685381.65,-0.080,-0.005,0.049,0.544,-0.223,0.144,-69.148,11.011,3.658
1747685381.66,-0.106,-0.010,0.070,0.468,-0.113,0.160,-68.851,10.999,3.744
1747685381.67,-0.140,-0.003,0.074,0.447,-0.089,0.195,-68.576,11.070,3.889
1747685381.68,-0.153,0.006,0.014,0.442,-0.023,0.215,-68.304,11.202,4.067
1747685381.69,-0.114,0.020,-0.007,0.462,0.082,0.225,-68.027,11.406,4.279
1747685381.70,-0.058,0.026,0.018,0.561,0.140,0.207,-67.718,11.629,4.448
1747685381.71,-0.031,0.023,0.004,0.673,0.127,0.181,-67.349,11.792,4.558
1747685381.72,-0.033,0.020,-0.006,0.695,0.111,0.182,-66.942,11.904,4.607
1747685381.73,-0.054,0.020,0.016,0.622,0.169,0.181,-66.549,12.031,4.683
1747685381.74,-0.103,0.034,0.030,0.563,0.275,0.166,-66.201,12.218,4.749
1747685381.75,-0.152,0.033,0.028,0.586,0.352,0.160,-65.862,12.442,4.818
1747685381.76,-0.163,0.001,-0.010,0.574,0.399,0.192,-65.516,12.712,4.877
1747685381.77,-0.108,-0.045,0.005,0.557,0.365,0.239,-65.173,13.039,5.022
1747685381.78,-0.010,-0.054,0.024,0.538,0.245,0.274,-64.835,13.374,5.195
1747685381.79,0.086,-0.032,0.023,0.564,0.085,0.254,-64.494,13.628,5.402
1747685381.80,0.153,0.001,0.007,0.607,-0.080,0.171,-64.140,13.715,5.498
1747685381.81,0.185,0.023,-0.006,0.626,-0.155,0.079,-63.782,13.612,5.492
1747685381.82,0.180,0.032,0.011,0.644,-0.126,0.077,-63.420,13.441,5.393
1747685381.83,0.141,0.022,0.024,0.673,-0.093,0.083,-63.043,13.295,5.339
1747685381.84,0.057,0.004,0.004,0.669,-0.039,0.099,-62.656,13.182,5.255
1747685381.85,-0.015,-0.012,-0.007,0.647,0.079,0.133,-62.275,13.148,5.246
1747685381.86,-0.043,-0.025,0.018,0.632,0.165,0.182,-61.899,13.230,5.309
1747685381.87,-0.058,-0.033,0.058,0.615,0.184,0.206,-61.526,13.380,5.366
1747685381.88,-0.104,-0.020,0.031,0.569,0.250,0.180,-61.170,13.557,5.467
1747685381.89,-0.153,0.007,0.001,0.520,0.354,0.144,-60.848,13.759,5.501
1747685381.90,-0.161,0.023,0.018,0.524,0.371,0.146,-60.540,13.985,5.573
1747685381.91,-0.126,0.025,0.014,0.548,0.277,0.183,-60.219,14.200,5.606
1747685381.92,-0.074,0.011,-0.018,0.612,0.216,0.171,-59.875,14.372,5.705
1747685381.93,-0.038,0.003,-0.018,0.727,0.242,0.101,-59.486,14.466,5.667
1747685381.94,-0.038,0.010,-0.021,0.779,0.348,0.006,-59.058,14.504,5.585
1747685381.95,-0.079,0.021,-0.018,0.784,0.412,-0.097,-58.633,14.496,5.318
1747685381.96,-0.146,0.031,-0.012,0.784,0.424,-0.144,-58.216,14.443,5.028
1747685381.97,-0.188,0.031,-0.023,0.748,0.430,-0.113,-57.811,14.394,4.682
1747685381.98,-0.164,0.018,0.033,0.755,0.412,-0.060,-57.409,14.394,4.451
1747685381.99,-0.097,0.012,0.031,0.768,0.349,-0.059,-56.993,14.393,4.191
1747685382.00,-0.023,0.016,-0.021,0.762,0.258,-0.054,-56.579,14.352,3.998
1747685382.01,0.030,0.005,-0.040,0.791,0.244,-0.021,-56.156,14.293,3.760
1747685382.02,0.081,-0.015,-0.043,0.816,0.255,0.043,-55.710,14.274,3.620
1747685382.03,0.122,-0.041,-0.031,0.851,0.289,0.095,-55.237,14.315,3.481
1747685382.04,0.127,-0.064,-0.024,0.860,0.276,0.106,-54.748,14.388,3.423
1747685382.05,0.114,-0.086,-0.019,0.824,0.231,0.076,-54.266,14.435,3.303
1747685382.06,0.082,-0.098,-0.008,0.767,0.200,0.032,-53.820,14.443,3.213
1747685382.07,0.049,-0.089,0.016,0.763,0.175,0.000,-53.395,14.413,3.043
1747685382.08,0.049,-0.072,0.007,0.783,0.115,0.043,-52.966,14.366,2.945
1747685382.09,0.077,-0.064,-0.007,0.793,0.067,0.092,-52.519,14.320,2.822
1747685382.10,0.113,-0.041,-0.017,0.790,0.027,0.132,-52.066,14.282,2.815
1747685382.11,0.122,0.008,-0.027,0.794,-0.019,0.138,-51.608,14.238,2.757
1747685382.12,0.071,0.044,-0.016,0.804,-0.058,0.131,-51.147,14.169,2.772
1747685382.13,-0.019,0.057,-0.025,0.818,-0.022,0.115,-50.680,14.086,2.701
1747685382.14,-0.093,0.052,-0.030,0.776,0.045,0.110,-50.222,14.036,2.704
1747685382.15,-0.121,0.022,0.007,0.764,0.119,0.112,-49.781,14.029,2.635
1747685382.16,-0.106,-0.023,0.014,0.753,0.231,0.125,-49.343,14.082,2.660
1747685382.17,-0.070,-0.050,0.014,0.720,0.246,0.146,-48.916,14.190,2.617
1747685382.18,-0.040,-0.064,0.014,0.683,0.219,0.155,-48.506,14.307,2.683
1747685382.19,0.009,-0.069,-0.016,0.645,0.185,0.173,-48.116,14.420,2.676
1747685382.20,0.076,-0.051,-0.017,0.634,0.092,0.224,-47.736,14.520,2.786
1747685382.21,0.114,-0.010,-0.038,0.665,0.018,0.276,-47.342,14.601,2.855
1747685382.22,0.122,0.047,-0.040,0.714,-0.060,0.283,-46.919,14.651,3.020
1747685382.23,0.089,0.087,-0.015,0.746,-0.104,0.251,-46.476,14.644,3.081
1747685382.24,0.012,0.084,0.012,0.748,-0.095,0.193,-46.031,14.603,3.193
1747685382.25,-0.036,0.065,0.001,0.747,-0.057,0.151,-45.594,14.545,3.173
1747685382.26,-0.054,0.026,-0.001,0.741,-0.066,0.119,-45.162,14.481,3.222
1747685382.27,-0.055,-0.007,-0.008,0.700,-0.093,0.102,-44.746,14.391,3.161
1747685382.28,-0.035,-0.028,-0.037,0.640,-0.110,0.130,-44.361,14.304,3.224
1747685382.29,0.004,-0.052,-0.018,0.633,-0.158,0.169,-43.988,14.223,3.217
1747685382.30,0.019,-0.064,0.007,0.645,-0.144,0.231,-43.606,14.151,3.355
1747685382.31,0.041,-0.068,0.038,0.690,-0.098,0.270,-43.203,14.129,3.421
1747685382.32,0.040,-0.041,0.046,0.741,-0.062,0.234,-42.769,14.118,3.584
1747685382.33,-0.001,0.015,-0.014,0.733,-0.034,0.167,-42.331,14.100,3.594
1747685382.34,-0.019,0.035,-0.025,0.718,-0.030,0.126,-41.910,14.063,3.678
1747685382.35,-0.019,0.036,-0.004,0.725,0.004,0.117,-41.494,14.024,3.633
1747685382.36,-0.001,0.016,0.035,0.736,0.051,0.138,-41.070,14.015,3.705
1747685382.37,0.025,0.003,0.064,0.729,0.021,0.210,-40.640,14.029,3.694
1747685382.38,0.027,-0.005,0.058,0.712,0.033,0.240,-40.209,14.070,3.855
1747685382.39,0.032,0.017,0.040,0.707,0.036,0.217,-39.785,14.114,3.889
1747685382.40,0.048,0.055,0.011,0.705,-0.003,0.223,-39.363,14.143,4.041
1747685382.41,0.042,0.070,-0.000,0.706,-0.042,0.211,-38.942,14.147,4.070
1747685382.42,0.024,0.081,0.005,0.710,-0.034,0.185,-38.522,14.133,4.205
1747685382.43,-0.004,0.068,0.026,0.721,-0.045,0.148,-38.103,14.105,4.197
1747685382.44,-0.055,0.057,0.042,0.756,-0.014,0.105,-37.677,14.061,4.286
1747685382.45,-0.096,0.050,0.024,0.787,0.047,0.085,-37.236,14.028,4.217
1747685382.46,-0.107,0.050,0.029,0.792,0.052,0.075,-36.786,14.009,4.270
1747685382.47,-0.102,0.055,0.018,0.780,-0.003,0.080,-36.340,13.975,4.186
1747685382.48,-0.076,0.063,-0.010,0.771,-0.034,0.102,-35.898,13.922,4.253
1747685382.49,-0.048,0.062,-0.013,0.761,-0.043,0.034,-35.463,13.852,4.171
1747685382.50,-0.031,0.070,-0.011,0.736,-0.053,-0.005,-35.047,13.756,4.192
1747685382.51,-0.037,0.067,-0.007,0.716,-0.058,-0.028,-34.647,13.648,4.061
1747685382.52,-0.073,0.046,0.016,0.758,-0.034,-0.035,-34.243,13.544,4.057
1747685382.53,-0.106,0.027,0.030,0.781,0.041,-0.033,-33.820,13.460,3.912
1747685382.54,-0.099,0.024,0.017,0.813,0.121,-0.084,-33.385,13.420,3.888
1747685382.55,-0.047,0.023,0.033,0.830,0.117,-0.098,-32.942,13.384,3.695
1747685382.56,0.014,0.010,0.012,0.841,0.114,-0.054,-32.488,13.349,3.663
1747685382.57,0.071,0.009,0.030,0.848,0.065,-0.010,-32.021,13.317,3.515
1747685382.58,0.104,0.009,0.045,0.846,0.053,-0.051,-31.554,13.274,3.513
1747685382.59,0.142,0.011,0.045,0.822,-0.044,-0.011,-31.094,13.201,3.362
1747685382.60,0.142,0.007,0.046,0.799,-0.167,0.094,-30.639,13.088,3.422
1747685382.61,0.145,0.000,0.037,0.802,-0.193,0.211,-30.175,12.972,3.403
1747685382.62,0.183,0.002,0.024,0.800,-0.184,0.287,-29.696,12.887,3.597
1747685382.63,0.193,0.010,-0.005,0.795,-0.238,0.338,-29.213,12.809,3.682
1747685382.64,0.161,0.008,-0.001,0.808,-0.265,0.368,-28.724,12.716,3.950
1747685382.65,0.110,-0.003,0.037,0.832,-0.210,0.360,-28.221,12.634,4.065
1747685382.66,0.076,-0.007,0.069,0.848,-0.143,0.336,-27.708,12.581,4.337
1747685382.67,0.061,-0.006,0.063,0.868,-0.127,0.311,-27.191,12.543,4.616
1747685382.68,0.052,-0.014,0.039,0.905,-0.148,0.297,-26.658,12.496,4.683
1747685382.69,0.045,-0.021,0.025,0.939,-0.161,0.298,-26.107,12.434,4.944
1747685382.70,0.042,0.005,0.007,0.955,-0.192,0.298,-25.541,12.358,5.000
1747685382.71,0.022,0.012,-0.002,0.966,-0.199,0.285,-24.970,12.268,5.262
1747685382.72,-0.041,0.017,-0.005,0.971,-0.173,0.231,-24.398,12.175,5.292
1747685382.73,-0.100,0.029,-0.035,0.962,-0.166,0.185,-23.833,12.078,5.495
1747685382.74,-0.126,0.025,-0.046,0.977,-0.129,0.138,-23.273,11.984,5.466
1747685382.75,-0.120,0.042,-0.020,1.017,-0.129,0.123,-22.701,11.892,5.630
1747685382.76,-0.078,0.037,-0.006,1.053,-0.173,0.134,-22.106,11.784,5.576
1747685382.77,-0.048,0.028,0.023,1.076,-0.165,0.109,-21.496,11.664,5.727
1747685382.78,-0.042,0.048,0.062,1.078,-0.167,0.040,-20.885,11.538,5.638
1747685382.79,-0.046,0.067,0.070,1.074,-0.173,-0.006,-20.282,11.401,5.731
1747685382.80,-0.048,0.065,0.072,1.076,-0.172,0.035,-19.680,11.258,5.607
1747685382.81,-0.010,0.038,0.045,1.092,-0.142,0.102,-19.063,11.142,5.750
1747685382.82,0.043,-0.013,-0.014,1.065,-0.111,0.147,-18.443,11.054,5.700
1747685382.83,0.050,-0.027,-0.067,1.086,-0.060,0.130,-17.826,10.994,5.890
1747685382.84,0.007,-0.018,-0.037,1.137,0.006,0.085,-17.190,10.958,5.828
1747685382.85,-0.067,-0.030,0.001,1.167,0.083,0.020,-16.537,10.955,5.960
1747685382.86,-0.081,-0.032,0.007,1.175,0.158,-0.035,-15.880,10.990,5.822
1747685382.87,-0.055,-0.017,0.010,1.159,0.137,0.002,-15.228,11.038,5.907
1747685382.88,0.011,-0.033,0.020,1.137,0.095,0.068,-14.582,11.075,5.799
1747685382.89,0.088,-0.052,0.058,1.111,0.051,0.133,-13.940,11.098,5.972
1747685382.90,0.117,-0.005,0.099,1.080,0.041,0.182,-13.308,11.118,5.939
1747685382.91,0.123,0.066,0.063,1.053,-0.021,0.210,-12.688,11.124,6.187
1747685382.92,0.082,0.121,0.009,1.046,-0.067,0.213,-12.078,11.096,6.192
1747685382.93,0.026,0.151,-0.027,1.064,-0.037,0.181,-11.466,11.065,6.441
1747685382.94,-0.003,0.149,-0.030,1.087,-0.022,0.119,-10.846,11.043,6.406
1747685382.95,-0.023,0.109,-0.034,1.092,-0.025,0.073,-10.224,11.018,6.585
1747685382.96,-0.042,0.044,-0.037,1.110,-0.024,0.048,-9.601,10.988,6.497
1747685382.97,-0.053,-0.015,-0.010,1.112,-0.000,0.035,-8.974,10.964,6.652
1747685382.98,-0.034,-0.059,-0.006,1.127,0.024,0.056,-8.344,10.956,6.553
1747685382.99,0.024,-0.073,0.001,1.215,0.051,0.130,-7.679,10.968,6.735
1747685383.00,0.072,-0.054,0.018,1.240,0.051,0.189,-6.967,10.990,6.691
1747685383.01,0.060,0.004,0.001,1.148,0.121,0.211,-6.276,11.035,6.924
1747685383.02,0.027,0.080,0.001,1.100,0.171,0.220,-5.623,11.118,6.924
1747685383.03,-0.009,0.119,-0.025,1.056,0.249,0.202,-4.996,11.237,7.185
1747685383.04,-0.056,0.134,-0.061,1.031,0.284,0.177,-4.390,11.390,7.173
1747685383.05,-0.113,0.117,-0.062,0.967,0.292,0.148,-3.810,11.548,7.412
1747685383.06,-0.121,0.086,-0.034,0.981,0.310,0.107,-3.252,11.721,7.370
1747685383.07,-0.058,0.059,0.026,1.040,0.293,0.135,-2.680,11.887,7.582
1747685383.08,0.031,0.045,-0.013,1.101,0.267,0.194,-2.056,12.049,7.546
1747685383.09,0.107,0.025,-0.035,1.052,0.144,0.221,-1.431,12.168,7.811
1747685383.10,0.102,0.021,-0.064,1.051,0.056,0.239,-0.819,12.223,7.810
1747685383.11,0.048,0.057,-0.031,1.064,0.027,0.274,-0.196,12.244,8.097
1747685383.12,-0.027,0.105,-0.006,1.034,0.044,0.268,0.422,12.261,8.123
1747685383.13,-0.094,0.175,-0.029,1.049,0.083,0.224,1.032,12.299,8.405
1747685383.14,-0.114,0.182,-0.051,1.045,0.099,0.124,1.640,12.349,8.376
1747685383.15,-0.104,0.116,-0.081,1.046,0.144,0.017,2.229,12.422,8.558
1747685383.16,-0.055,0.028,-0.063,1.041,0.132,-0.040,2.811,12.507,8.420
1747685383.17,-0.034,-0.118,-0.042,1.002,0.164,-0.040,3.374,12.599,8.535
1747685383.18,-0.012,-0.250,-0.025,0.958,0.157,0.018,3.919,12.703,8.403
1747685383.19,0.003,-0.276,-0.011,0.902,0.084,0.068,4.443,12.779,8.580
1747685383.20,-0.026,-0.165,0.018,0.900,0.015,0.113,4.955,12.812,8.516
1747685383.21,-0.027,-0.001,0.031,0.926,-0.076,0.156,5.480,12.799,8.732
1747685383.22,-0.004,0.147,0.035,0.933,-0.141,0.156,6.018,12.740,8.702
1747685383.23,0.038,0.256,0.008,0.967,-0.200,0.116,6.564,12.646,8.932
1747685383.24,0.084,0.250,-0.042,1.001,-0.204,0.046,7.124,12.537,8.854
1747685383.25,0.097,0.131,-0.063,0.976,-0.174,-0.036,7.678,12.445,9.005
1747685383.26,0.084,-0.029,-0.063,0.933,-0.142,-0.067,8.202,12.376,8.856
1747685383.27,0.041,-0.164,-0.074,0.894,-0.074,-0.069,8.704,12.333,8.975
1747685383.28,-0.034,-0.281,-0.043,0.858,0.041,-0.012,9.187,12.344,8.842
1747685383.29,-0.079,-0.320,0.031,0.824,0.153,0.036,9.659,12.417,9.013
1747685383.30,-0.080,-0.227,0.082,0.807,0.172,0.025,10.117,12.527,8.930
1747685383.31,-0.043,-0.081,0.060,0.795,0.142,0.026,10.567,12.634,9.103
1747685383.32,0.054,0.002,0.007,0.799,0.051,0.084,11.017,12.704,9.031
1747685383.33,0.135,0.023,-0.035,0.796,-0.005,0.124,11.476,12.723,9.241
1747685383.34,0.128,0.058,-0.057,0.786,-0.039,0.140,11.933,12.718,9.213
1747685383.35,0.081,0.092,-0.064,0.780,-0.082,0.144,12.388,12.686,9.437
1747685383.36,0.026,0.098,-0.066,0.779,-0.054,0.107,12.839,12.650,9.411
1747685383.37,0.010,0.096,-0.041,0.767,0.019,0.095,13.282,12.650,9.612
1747685383.38,0.029,0.020,-0.022,0.776,0.077,0.131,13.725,12.684,9.577
1747685383.39,0.055,-0.040,-0.016,0.776,0.143,0.169,14.178,12.751,9.817
1747685383.40,0.063,-0.058,-0.009,0.733,0.215,0.166,14.621,12.853,9.816
1747685383.41,0.029,-0.038,-0.037,0.716,0.228,0.149,15.043,12.985,10.065
1747685383.42,-0.015,-0.006,-0.086,0.711,0.213,0.168,15.461,13.111,10.059
1747685383.43,-0.060,0.010,-0.087,0.681,0.217,0.193,15.872,13.232,10.313
1747685383.44,-0.038,0.037,-0.074,0.690,0.170,0.167,16.277,13.340,10.325
1747685383.45,-0.004,0.089,-0.081,0.698,0.107,0.109,16.680,13.424,10.534
1747685383.46,0.007,0.052,-0.076,0.660,0.063,0.048,17.070,13.486,10.482
1747685383.47,0.013,0.022,-0.068,0.620,-0.025,0.043,17.428,13.518,10.650
1747685383.48,-0.004,-0.001,-0.068,0.612,-0.063,0.026,17.776,13.508,10.584
1747685383.49,-0.038,-0.015,-0.098,0.572,-0.057,0.005,18.107,13.498,10.743
1747685383.50,-0.018,-0.057,-0.074,0.529,-0.071,-0.018,18.413,13.488,10.900
1747685383.51,-0.007,-0.070,-0.074,0.504,-0.065,-0.011,18.697,13.475,10.821
1747685383.52,0.001,-0.055,-0.076,0.477,-0.038,-0.016,18.967,13.468,10.974
1747685383.53,0.004,-0.077,-0.076,0.452,-0.023,0.007,19.224,13.475,10.905
1747685383.54,0.019,-0.067,-0.064,0.434,-0.026,0.027,19.472,13.478,11.078
1747685383.55,0.044,-0.003,-0.064,0.415,-0.012,0.071,19.715,13.477,11.049
1747685383.56,0.066,0.059,-0.049,0.395,-0.008,0.059,19.949,13.480,11.259
1747685383.57,0.066,0.084,-0.059,0.381,-0.035,0.053,20.172,13.477,11.236
1747685383.58,0.061,0.047,-0.062,0.344,-0.094,0.064,20.381,13.447,11.440
1747685383.59,0.064,0.004,-0.053,0.320,-0.107,0.045,20.573,13.389,11.427
1747685383.60,0.071,-0.031,-0.061,0.284,-0.085,0.086,20.749,13.338,11.649
1747685383.61,0.073,-0.093,-0.048,0.259,-0.091,0.117,20.913,13.279,11.674
1747685383.62,0.034,-0.042,-0.054,0.246,-0.086,0.125,21.070,13.216,11.928
1747685383.63,0.002,0.033,-0.065,0.226,-0.071,0.105,21.216,13.159,11.963
1747685383.64,-0.011,0.061,-0.070,0.223,-0.046,0.089,21.354,13.116,12.199
1747685383.65,-0.013,0.038,-0.073,0.206,-0.026,0.066,21.484,13.089,12.215
1747685383.66,-0.013,-0.002,-0.061,0.172,0.024,0.051,21.597,13.085,12.450
1747685383.67,-0.009,-0.039,-0.036,0.131,0.056,0.038,21.687,13.108,12.455
1747685383.68,-0.016,-0.050,-0.027,0.110,0.084,0.033,21.759,13.145,12.674
1747685383.69,-0.023,-0.033,-0.040,0.094,0.128,0.031,21.820,13.204,12.679
1747685383.70,-0.010,-0.009,-0.064,0.067,0.157,0.023,21.869,13.285,12.885
1747685383.71,0.011,0.016,-0.094,0.031,0.167,-0.003,21.897,13.377,12.885
1747685383.72,0.014,0.023,-0.119,-0.030,0.172,-0.033,21.894,13.479,13.067
1747685383.73,-0.000,-0.006,-0.126,-0.092,0.167,-0.045,21.854,13.580,13.052
1747685383.74,-0.010,-0.049,-0.121,-0.152,0.158,-0.037,21.782,13.675,13.244
1747685383.75,0.009,-0.079,-0.119,-0.235,0.162,-0.033,21.672,13.762,13.251
1747685383.76,0.041,-0.094,-0.137,-0.327,0.167,-0.036,21.511,13.848,13.467
1747685383.77,0.044,-0.106,-0.140,-0.396,0.165,0.000,21.308,13.929,13.507
1747685383.78,0.036,-0.113,-0.124,-0.488,0.146,0.048,21.067,13.989,13.782
1747685383.79,0.046,-0.107,-0.136,-0.577,0.136,0.080,20.781,14.026,13.902
1747685383.80,0.065,-0.094,-0.165,-0.667,0.136,0.083,20.449,14.054,14.220
1747685383.81,0.069,-0.086,-0.172,-0.752,0.157,0.079,20.066,14.086,14.372
1747685383.82,0.055,-0.084,-0.155,-0.832,0.140,0.078,19.638,14.116,14.709
1747685383.83,0.030,-0.096,-0.157,-0.926,0.124,0.078,19.161,14.133,14.884
1747685383.84,0.027,-0.118,-0.170,-1.010,0.110,0.074,18.636,14.140,15.235
1747685383.85,0.044,-0.130,-0.190,-1.101,0.062,0.059,18.062,14.128,15.429
1747685383.86,0.039,-0.121,-0.193,-1.186,0.010,0.060,17.437,14.087,15.795
1747685383.87,0.028,-0.110,-0.193,-1.266,-0.024,0.066,16.766,14.018,16.010
1747685383.88,0.037,-0.094,-0.188,-1.351,-0.075,0.053,16.050,13.927,16.398
1747685383.89,0.042,-0.075,-0.180,-1.416,-0.118,0.011,15.285,13.813,16.614
1747685383.90,0.046,-0.062,-0.175,-1.437,-0.141,-0.033,14.492,13.688,16.956
1747685383.91,0.035,-0.075,-0.152,-1.469,-0.109,-0.055,13.679,13.573,17.132
1747685383.92,0.020,-0.087,-0.109,-1.512,-0.062,-0.065,12.844,13.487,17.448
1747685383.93,-0.001,-0.078,-0.075,-1.544,0.010,-0.071,11.986,13.433,17.617
1747685383.94,-0.051,-0.055,-0.069,-1.594,0.098,-0.064,11.106,13.430,17.930
1747685383.95,-0.064,-0.028,-0.087,-1.641,0.153,-0.058,10.199,13.470,18.113
1747685383.96,-0.032,-0.005,-0.128,-1.680,0.172,-0.041,9.272,13.530,18.435
1747685383.97,0.018,0.006,-0.149,-1.726,0.185,-0.036,8.320,13.600,18.644
1747685383.98,0.057,0.012,-0.102,-1.771,0.177,-0.048,7.343,13.675,18.964
1747685383.99,0.063,-0.003,-0.054,-1.786,0.142,-0.038,6.349,13.741,19.182
1747685384.00,0.062,-0.035,-0.034,-1.784,0.100,-0.018,5.356,13.785,19.514
1747685384.01,0.067,-0.062,-0.014,-1.800,0.061,-0.013,4.360,13.811,19.751
1747685384.02,0.090,-0.067,-0.025,-1.821,0.009,-0.022,3.352,13.816,20.076
1747685384.03,0.098,-0.065,-0.063,-1.808,-0.006,-0.011,2.346,13.801,20.313
1747685384.04,0.069,-0.061,-0.042,-1.841,0.049,-0.002,1.333,13.804,20.655
1747685384.05,0.028,-0.049,-0.007,-1.845,0.074,-0.027,0.307,13.837,20.900
1747685384.06,-0.048,-0.032,0.006,-1.883,0.099,-0.088,-0.733,13.886,21.207
1747685384.07,-0.109,-0.021,0.028,-1.912,0.111,-0.105,-1.800,13.952,21.412
1747685384.08,-0.071,-0.037,-0.015,-1.918,0.087,-0.074,-2.874,14.016,21.711
1747685384.09,0.007,-0.069,-0.051,-1.917,0.101,-0.017,-3.944,14.084,21.953
1747685384.10,0.082,-0.100,-0.008,-1.899,0.077,0.010,-5.001,14.157,22.295
1747685384.11,0.114,-0.107,0.001,-1.880,0.042,-0.015,-6.047,14.216,22.560
1747685384.12,0.072,-0.094,0.011,-1.848,0.054,-0.072,-7.085,14.268,22.875
1747685384.13,-0.009,-0.075,0.021,-1.854,0.112,-0.148,-8.122,14.341,23.077
1747685384.14,-0.105,-0.050,0.031,-1.893,0.158,-0.196,-9.184,14.446,23.310
1747685384.15,-0.208,-0.031,0.054,-1.892,0.191,-0.206,-10.261,14.572,23.471
1747685384.16,-0.253,-0.012,0.049,-1.860,0.262,-0.196,-11.327,14.729,23.700
1747685384.17,-0.189,0.002,0.017,-1.841,0.331,-0.214,-12.377,14.933,23.863
1747685384.18,-0.067,0.009,0.005,-1.826,0.300,-0.262,-13.423,15.148,24.065
1747685384.19,0.032,0.007,0.016,-1.831,0.249,-0.281,-14.471,15.336,24.193
1747685384.20,0.073,-0.020,0.055,-1.837,0.215,-0.269,-15.523,15.502,24.357
1747685384.21,0.087,-0.049,0.058,-1.848,0.179,-0.248,-16.576,15.655,24.503
1747685384.22,0.077,-0.066,0.041,-1.848,0.136,-0.198,-17.628,15.795,24.690
1747685384.23,0.062,-0.068,0.039,-1.826,0.103,-0.150,-18.665,15.925,24.892
1747685384.24,0.069,-0.062,0.058,-1.822,0.123,-0.133,-19.688,16.060,25.132
1747685384.25,0.089,-0.035,0.072,-1.807,0.175,-0.143,-20.707,16.227,25.360
1747685384.26,0.077,-0.017,0.092,-1.764,0.164,-0.154,-21.712,16.403,25.585
1747685384.27,0.025,-0.015,0.103,-1.762,0.208,-0.119,-22.697,16.593,25.810
1747685384.28,0.005,-0.023,0.047,-1.780,0.265,-0.100,-23.685,16.828,26.060
1747685384.29,-0.000,-0.029,0.011,-1.739,0.269,-0.089,-24.662,17.092,26.326
1747685384.30,-0.040,-0.030,0.035,-1.703,0.243,-0.106,-25.616,17.349,26.581
1747685384.31,-0.071,-0.024,0.031,-1.723,0.207,-0.139,-26.569,17.592,26.785
1747685384.32,-0.073,-0.017,-0.005,-1.728,0.126,-0.180,-27.538,17.797,27.025
1747685384.33,-0.081,-0.001,-0.004,-1.690,0.068,-0.250,-28.505,17.948,27.176
1747685384.34,-0.074,0.014,0.014,-1.682,0.048,-0.319,-29.470,18.059,27.338
1747685384.35,-0.052,0.033,0.016,-1.701,0.006,-0.357,-30.448,18.143,27.399
1747685384.36,-0.036,0.042,0.005,-1.699,-0.106,-0.345,-31.434,18.181,27.527
1747685384.37,-0.020,0.030,-0.026,-1.705,-0.184,-0.293,-32.413,18.177,27.600
1747685384.38,0.018,0.006,-0.020,-1.754,-0.205,-0.247,-33.398,18.168,27.792
1747685384.39,0.086,-0.016,0.038,-1.782,-0.212,-0.171,-34.396,18.183,27.944
1747685384.40,0.175,-0.051,0.072,-1.745,-0.136,-0.063,-35.378,18.255,28.251
1747685384.41,0.265,-0.080,0.099,-1.703,-0.050,0.035,-36.312,18.425,28.522
1747685384.42,0.321,-0.085,0.078,-1.701,-0.133,0.042,-37.228,18.632,28.939
1747685384.43,0.251,-0.076,0.067,-1.616,-0.350,-0.004,-38.124,18.737,29.229
1747685384.44,0.117,-0.059,0.008,-1.598,-0.506,-0.034,-38.994,18.714,29.591
1747685384.45,0.043,-0.057,-0.013,-1.646,-0.570,-0.011,-39.874,18.638,29.836
1747685384.46,0.025,-0.063,0.008,-1.684,-0.649,0.012,-40.777,18.551,30.237
1747685384.47,0.020,-0.076,0.045,-1.649,-0.718,-0.015,-41.682,18.427,30.512
1747685384.48,0.024,-0.074,0.035,-1.605,-0.766,-0.064,-42.570,18.249,30.876
1747685384.49,0.024,-0.072,0.021,-1.623,-0.751,-0.047,-43.454,18.047,31.085
1747685384.50,0.020,-0.069,-0.015,-1.672,-0.634,0.040,-44.351,17.928,31.486
1747685384.51,0.032,-0.074,-0.034,-1.668,-0.519,0.104,-45.249,17.934,31.816
1747685384.52,0.027,-0.095,-0.010,-1.583,-0.514,0.082,-46.116,17.990,32.302
1747685384.53,-0.047,-0.125,-0.051,-1.514,-0.533,-0.010,-46.948,17.998,32.595
1747685384.54,-0.124,-0.155,-0.098,-1.532,-0.457,-0.077,-47.781,17.975,32.951
1747685384.55,-0.146,-0.181,-0.056,-1.577,-0.375,-0.080,-48.639,17.998,33.149
1747685384.56,-0.155,-0.178,0.006,-1.589,-0.339,-0.082,-49.516,18.069,33.510
1747685384.56,-0.146,-0.149,0.006,-1.567,-0.356,-0.132,-50.392,18.137,33.699
1747685384.58,-0.111,-0.096,-0.018,-1.515,-0.417,-0.144,-51.255,18.159,34.013
1747685384.58,-0.080,-0.026,-0.035,-1.469,-0.422,-0.158,-52.090,18.148,34.139
1747685384.60,-0.049,0.020,-0.037,-1.441,-0.367,-0.171,-52.910,18.145,34.420
1747685384.60,-0.035,0.048,-0.035,-1.399,-0.324,-0.225,-53.715,18.145,34.485
1747685384.62,-0.070,0.043,-0.045,-1.423,-0.307,-0.254,-54.523,18.130,34.689
1747685384.63,-0.119,0.024,-0.060,-1.476,-0.224,-0.256,-55.355,18.145,34.712
1747685384.64,-0.109,-0.019,-0.019,-1.467,-0.101,-0.250,-56.202,18.238,34.936
1747685384.65,-0.046,-0.062,0.023,-1.412,-0.046,-0.252,-57.029,18.385,34.974
1747685384.65,0.012,-0.082,0.031,-1.367,-0.061,-0.239,-57.824,18.539,35.190
1747685384.66,0.051,-0.075,0.040,-1.348,-0.119,-0.225,-58.601,18.687,35.230
1747685384.67,0.069,-0.032,0.045,-1.332,-0.211,-0.231,-59.367,18.795,35.463
1747685384.68,0.068,0.033,0.038,-1.339,-0.342,-0.227,-60.131,18.847,35.514
1747685384.69,0.053,0.089,0.015,-1.337,-0.435,-0.252,-60.900,18.831,35.754
1747685384.70,0.058,0.080,-0.005,-1.292,-0.448,-0.260,-61.658,18.763,35.743
1747685384.71,0.098,0.016,-0.031,-1.301,-0.466,-0.236,-62.403,18.695,35.962
1747685384.72,0.128,-0.064,-0.036,-1.281,-0.435,-0.203,-63.144,18.667,35.987
1747685384.73,0.122,-0.126,-0.039,-1.236,-0.376,-0.210,-63.862,18.677,36.257
1747685384.74,0.087,-0.153,-0.013,-1.210,-0.359,-0.236,-64.565,18.676,36.248
1747685384.75,0.036,-0.142,-0.013,-1.176,-0.398,-0.199,-65.253,18.677,36.487
1747685384.76,-0.004,-0.098,-0.049,-1.080,-0.407,-0.189,-65.902,18.672,36.495
1747685384.77,-0.042,-0.069,-0.102,-0.951,-0.338,-0.190,-66.486,18.648,36.702
1747685384.78,-0.073,-0.066,-0.140,-0.811,-0.251,-0.235,-67.000,18.590,36.594
1747685384.79,-0.117,-0.069,-0.167,-0.694,-0.105,-0.336,-67.458,18.444,36.550
1747685384.80,-0.196,-0.067,-0.202,-0.579,0.122,-0.491,-67.876,18.191,36.050
1747685384.81,-0.292,-0.049,-0.194,-0.480,0.294,-0.616,-68.264,17.787,35.485
1747685384.82,-0.411,-0.006,-0.180,-0.392,0.538,-0.682,-68.609,17.308,34.508
1747685384.83,-0.523,0.051,-0.164,-0.411,0.918,-0.726,-68.946,16.903,33.631
1747685384.84,-0.577,0.069,-0.084,-0.446,1.312,-0.750,-69.302,16.664,32.469
1747685384.85,-0.579,0.057,-0.005,-0.500,1.641,-0.713,-69.681,16.641,31.541
1747685384.86,-0.517,0.021,0.065,-0.585,1.890,-0.614,-70.086,16.898,30.505
1747685384.87,-0.385,-0.025,0.105,-0.694,2.025,-0.485,-70.526,17.483,29.933
1747685384.88,-0.180,-0.066,0.136,-0.800,2.022,-0.355,-71.007,18.367,29.393
1747685384.89,0.085,-0.086,0.149,-0.834,1.930,-0.252,-71.506,19.467,29.359
1747685384.90,0.345,-0.079,0.160,-0.852,1.705,-0.194,-72.002,20.655,29.266
1747685384.91,0.531,-0.044,0.165,-0.883,1.277,-0.150,-72.498,21.809,29.572
1747685384.92,0.632,0.029,0.135,-0.836,0.737,-0.211,-72.992,22.696,29.627
1747685384.93,0.645,0.101,0.078,-0.774,0.194,-0.344,-73.476,23.072,29.744
1747685384.94,0.601,0.146,0.024,-0.780,-0.289,-0.466,-73.972,22.893,29.311
1747685384.95,0.533,0.128,0.024,-0.813,-0.653,-0.520,-74.503,22.311,28.991
1747685384.96,0.453,0.060,0.035,-0.794,-0.893,-0.524,-75.042,21.479,28.306
1747685384.97,0.345,-0.021,0.008,-0.762,-1.075,-0.515,-75.563,20.463,27.838
1747685384.98,0.205,-0.063,-0.012,-0.738,-1.178,-0.476,-76.063,19.336,27.072
1747685384.99,0.064,-0.056,-0.001,-0.706,-1.122,-0.440,-76.537,18.211,26.595
1747685385.00,-0.057,-0.025,0.032,-0.701,-0.985,-0.434,-76.994,17.107,25.802
1747685385.01,-0.184,-0.008,0.040,-0.732,-0.810,-0.374,-77.451,16.132,25.328
1747685385.02,-0.286,-0.009,0.018,-0.786,-0.552,-0.311,-77.920,15.418,24.734
1747685385.03,-0.333,-0.048,0.007,-0.836,-0.231,-0.257,-78.411,15.024,24.563
1747685385.04,-0.330,-0.084,0.005,-0.881,0.084,-0.188,-78.918,15.003,24.319
1747685385.05,-0.287,-0.089,0.014,-0.909,0.311,-0.130,-79.436,15.367,24.571
1747685385.06,-0.232,-0.077,0.017,-0.897,0.403,-0.120,-79.953,15.978,24.732
1747685385.07,-0.179,-0.061,0.010,-0.846,0.370,-0.132,-80.452,16.615,25.152
1747685385.08,-0.112,-0.036,-0.020,-0.799,0.279,-0.106,-80.921,17.214,25.328
1747685385.09,-0.026,0.006,-0.035,-0.752,0.182,-0.101,-81.362,17.849,25.841
1747685385.10,0.046,0.037,-0.027,-0.699,0.085,-0.127,-81.775,18.383,26.052
1747685385.11,0.083,0.041,-0.011,-0.687,0.058,-0.167,-82.176,18.756,26.122
1747685385.12,0.105,0.054,-0.012,-0.696,0.091,-0.220,-82.584,18.978,26.303
1747685385.13,0.089,0.050,0.003,-0.717,0.042,-0.299,-83.015,18.947,25.964
1747685385.14,0.039,0.006,0.001,-0.673,-0.055,-0.332,-83.452,18.572,25.593
1747685385.15,-0.013,-0.042,-0.029,-0.620,-0.125,-0.307,-83.859,17.987,24.793
1747685385.16,-0.013,-0.073,-0.035,-0.607,-0.191,-0.251,-84.240,17.459,24.354
1747685385.17,0.004,-0.056,-0.023,-0.634,-0.238,-0.208,-84.617,17.135,24.025
1747685385.18,0.007,0.000,-0.018,-0.672,-0.279,-0.186,-85.007,17.016,24.054
1747685385.19,0.002,0.043,-0.018,-0.694,-0.355,-0.194,-85.411,16.994,24.212
1747685385.20,-0.008,0.032,-0.042,-0.681,-0.362,-0.243,-85.825,16.713,24.141
1747685385.21,-0.022,-0.016,-0.054,-0.621,-0.230,-0.261,-86.225,16.038,23.639
1747685385.22,0.005,-0.063,-0.011,-0.568,-0.094,-0.211,-86.588,15.276,22.965
1747685385.23,0.042,-0.066,0.013,-0.575,-0.059,-0.109,-86.926,15.197,22.927
1747685385.24,0.028,-0.010,0.020,-0.590,-0.061,-0.071,-87.260,16.022,23.788
1747685385.25,-0.021,0.050,0.008,-0.558,-0.094,-0.116,-87.592,16.966,24.776
1747685385.26,-0.077,0.084,-0.034,-0.505,-0.136,-0.189,-87.907,17.020,24.897
1747685385.27,-0.123,0.058,-0.065,-0.497,-0.116,-0.235,-88.215,15.843,23.794
1747685385.28,-0.119,-0.023,-0.045,-0.514,-0.007,-0.220,-88.527,13.916,21.905
1747685385.29,-0.055,-0.084,-0.016,-0.546,0.110,-0.158,-88.846,12.326,20.282
1747685385.30,0.022,-0.079,0.021,-0.547,0.162,-0.110,-89.168,11.938,19.815
1747685385.31,0.051,-0.022,0.013,-0.509,0.164,-0.096,-89.476,12.871,20.652
1747685385.32,0.023,0.035,-0.001,-0.539,0.149,0.041,-89.759,23.870,31.539
1747685385.33,0.001,0.065,-0.011,-0.461,-0.013,-0.028,-89.875,123.489,131.136
1747685385.34,-0.002,0.011,-0.029,-0.353,-0.058,-0.120,-89.695,168.883,176.550
1747685385.35,-0.020,-0.027,-0.006,-0.330,-0.046,-0.137,-89.507,-178.057,-170.356
1747685385.36,0.013,-0.017,-0.009,-0.332,0.022,-0.098,-89.313,-172.910,-165.203
1747685385.37,0.044,-0.003,0.009,-0.310,0.053,-0.073,-89.124,-171.214,-163.531
1747685385.38,0.057,0.006,0.015,-0.268,0.008,-0.088,-88.954,-170.147,-162.483
1747685385.39,0.035,0.000,0.007,-0.265,-0.069,-0.103,-88.795,-168.771,-161.090
1747685385.40,0.026,-0.005,-0.000,-0.277,-0.098,-0.095,-88.631,-167.703,-159.972
1747685385.41,0.036,0.002,0.002,-0.262,-0.072,-0.058,-88.472,-167.444,-159.664
1747685385.42,0.010,0.008,0.026,-0.265,-0.056,-0.068,-88.319,-167.457,-159.643
1747685385.43,-0.045,-0.007,0.043,-0.286,-0.059,-0.115,-88.154,-166.945,-159.097
1747685385.44,-0.081,-0.033,0.034,-0.291,-0.018,-0.120,-87.977,-166.133,-158.259
1747685385.45,-0.060,-0.042,0.015,-0.278,0.055,-0.084,-87.805,-165.640,-157.778
1747685385.46,-0.007,-0.008,0.011,-0.265,0.059,-0.052,-87.645,-165.630,-157.803
1747685385.47,0.032,0.039,0.005,-0.238,0.018,-0.023,-87.501,-165.934,-158.129
1747685385.48,0.037,0.055,-0.013,-0.203,0.006,-0.010,-87.376,-166.407,-158.608
1747685385.49,0.026,0.033,-0.002,-0.193,0.012,-0.004,-87.267,-166.872,-159.080
1747685385.50,0.003,0.000,0.034,-0.216,-0.026,-0.024,-87.152,-167.274,-159.480
1747685385.51,-0.048,-0.028,0.045,-0.227,-0.080,-0.059,-87.022,-167.399,-159.576
1747685385.52,-0.079,-0.049,0.032,-0.211,-0.121,-0.090,-86.889,-167.177,-159.294
1747685385.53,-0.070,-0.052,0.002,-0.167,-0.103,-0.102,-86.772,-166.684,-158.734
1747685385.54,-0.024,-0.025,-0.017,-0.121,-0.057,-0.097,-86.678,-166.109,-158.112
1747685385.55,0.021,0.016,-0.015,-0.071,-0.013,-0.089,-86.612,-165.508,-157.489
1747685385.56,0.042,0.043,-0.021,-0.017,0.016,-0.069,-86.577,-164.885,-156.868
1747685385.57,0.044,0.053,-0.039,0.012,-0.023,-0.049,-86.569,-164.346,-156.326
1747685385.58,0.029,0.039,-0.065,-0.003,-0.070,-0.025,-86.565,-164.019,-155.971
1747685385.59,0.012,0.019,-0.058,-0.009,-0.070,0.017,-86.558,-164.019,-155.930
1747685385.60,0.016,-0.004,-0.030,0.023,-0.047,0.051,-86.564,-164.317,-156.195
1747685385.61,0.035,-0.026,-0.010,0.049,-0.029,0.070,-86.593,-164.759,-156.617
1747685385.62,0.048,-0.027,0.011,0.065,-0.031,0.069,-86.636,-165.273,-157.114
1747685385.63,0.055,-0.013,0.013,0.084,-0.037,0.063,-86.686,-165.762,-157.585
1747685385.64,0.055,0.000,0.015,0.127,-0.056,0.053,-86.753,-166.119,-157.918
1747685385.65,0.044,0.009,0.014,0.152,-0.097,0.038,-86.839,-166.292,-158.047
1747685385.66,0.017,0.017,0.016,0.158,-0.121,0.014,-86.932,-166.253,-157.945
1747685385.67,-0.017,0.010,0.020,0.152,-0.100,-0.007,-87.022,-165.937,-157.563
1747685385.68,-0.037,-0.005,0.028,0.120,-0.075,-0.010,-87.098,-165.506,-157.082
1747685385.69,-0.033,-0.008,0.027,0.082,-0.035,0.004,-87.155,-165.258,-156.801
1747685385.70,-0.024,0.000,0.034,0.049,-0.009,0.007,-87.190,-165.221,-156.753
1747685385.71,-0.031,0.000,0.055,0.045,-0.011,-0.006,-87.215,-165.186,-156.713
1747685385.72,-0.055,-0.017,0.046,0.052,-0.016,-0.025,-87.238,-164.952,-156.471
1747685385.73,-0.059,-0.031,0.017,0.044,0.004,-0.028,-87.261,-164.523,-156.037
1747685385.74,-0.038,-0.030,0.022,0.047,0.018,-0.016,-87.281,-164.148,-155.667
1747685385.75,-0.010,-0.008,0.032,0.073,0.028,-0.002,-87.311,-163.825,-155.358
1747685385.76,0.019,0.017,0.033,0.107,0.052,0.008,-87.359,-163.536,-155.091
1747685385.77,0.026,0.028,0.030,0.137,0.075,0.002,-87.426,-163.105,-154.696
1747685385.78,0.004,0.020,0.022,0.129,0.068,-0.010,-87.498,-162.481,-154.113
1747685385.79,-0.028,0.009,0.017,0.104,0.064,-0.003,-87.556,-161.853,-153.522
1747685385.80,-0.040,-0.004,0.019,0.101,0.081,0.006,-87.606,-161.322,-153.031
1747685385.81,-0.034,-0.015,0.023,0.096,0.088,0.018,-87.656,-160.835,-152.594
1747685385.82,-0.023,-0.020,0.035,0.097,0.061,0.021,-87.705,-160.499,-152.302
1747685385.83,-0.015,-0.024,0.029,0.115,0.028,0.027,-87.762,-160.298,-152.126
1747685385.84,-0.003,-0.023,0.001,0.101,-0.000,0.032,-87.823,-160.253,-152.089
1747685385.85,0.007,-0.015,-0.001,0.078,-0.044,0.027,-87.874,-160.372,-152.196
1747685385.86,0.008,-0.008,0.014,0.077,-0.103,0.034,-87.919,-160.524,-152.305
1747685385.87,0.010,-0.001,0.008,0.087,-0.135,0.023,-87.965,-160.504,-152.216
1747685385.88,0.011,0.004,0.005,0.098,-0.152,0.008,-88.014,-160.201,-151.831
1747685385.89,0.009,0.006,0.015,0.122,-0.156,-0.013,-88.065,-159.542,-151.081
1747685385.90,0.010,0.002,0.016,0.162,-0.127,-0.020,-88.128,-158.465,-149.923
1747685385.91,0.007,0.000,0.014,0.191,-0.093,-0.031,-88.210,-156.910,-148.306
1747685385.92,-0.003,0.004,0.017,0.206,-0.127,-0.036,-88.304,-154.880,-146.214
1747685385.93,-0.019,0.015,0.007,0.218,-0.164,-0.016,-88.406,-152.695,-143.941
1747685385.94,-0.029,0.015,-0.010,0.200,-0.139,0.010,-88.509,-150.731,-141.888
1747685385.95,-0.032,-0.002,0.005,0.177,-0.059,0.011,-88.605,-149.029,-140.126
1747685385.96,-0.035,-0.024,0.023,0.175,0.023,0.011,-88.691,-147.149,-138.237
1747685385.97,-0.045,-0.031,0.034,0.198,0.031,0.015,-88.781,-144.897,-136.002
1747685385.98,-0.059,-0.020,0.016,0.220,0.017,0.011,-88.879,-141.869,-132.987
1747685385.99,-0.059,-0.002,-0.004,0.238,0.015,0.007,-88.980,-137.699,-128.825
1747685386.00,-0.033,0.004,-0.011,0.299,0.012,0.011,-89.087,-131.593,-122.727
1747685386.01,0.002,0.001,-0.017,0.416,-0.011,0.034,-89.215,-121.090,-112.224
1747685386.02,0.026,0.009,-0.031,0.538,-0.073,0.060,-89.338,-101.533,-92.641
1747685386.03,0.025,0.032,-0.047,0.564,-0.065,0.075,-89.361,-73.323,-64.388
1747685386.04,0.010,0.043,-0.025,0.532,-0.044,0.101,-89.248,-48.573,-39.607
1747685386.05,-0.016,0.018,0.017,0.519,-0.050,0.112,-89.058,-32.265,-23.270
1747685386.06,-0.057,-0.031,0.018,0.541,-0.003,0.112,-88.816,-21.757,-12.744
1747685386.07,-0.090,-0.057,0.018,0.508,0.076,0.126,-88.550,-14.823,-5.829
1747685386.08,-0.106,-0.050,0.037,0.453,0.141,0.142,-88.300,-9.915,-0.982
1747685386.09,-0.095,-0.040,0.041,0.455,0.198,0.139,-88.057,-6.186,2.652
1747685386.10,-0.051,-0.031,0.022,0.517,0.203,0.122,-87.787,-3.375,5.347
1747685386.11,0.017,-0.024,-0.005,0.589,0.154,0.097,-87.474,-1.433,7.189
1747685386.12,0.086,-0.004,-0.035,0.662,0.105,0.083,-87.117,-0.167,8.382
1747685386.13,0.142,0.025,-0.033,0.713,0.034,0.090,-86.722,0.751,9.259
1747685386.14,0.164,0.060,-0.007,0.732,-0.126,0.119,-86.307,1.554,10.086
1747685386.15,0.124,0.082,0.020,0.724,-0.314,0.176,-85.887,2.447,11.111
1747685386.16,0.050,0.064,0.028,0.724,-0.344,0.203,-85.469,3.434,12.296
1747685386.17,-0.036,0.003,0.043,0.728,-0.226,0.172,-85.048,4.230,13.262
1747685386.18,-0.106,-0.056,0.075,0.721,-0.070,0.130,-84.628,4.734,13.852
1747685386.19,-0.147,-0.099,0.092,0.716,0.019,0.128,-84.213,5.081,14.211
1747685386.20,-0.137,-0.113,0.061,0.722,0.056,0.163,-83.797,5.517,14.629
1747685386.21,-0.078,-0.080,-0.004,0.722,0.124,0.204,-83.375,6.128,15.192
1747685386.22,-0.002,-0.004,-0.027,0.708,0.123,0.212,-82.955,6.815,15.810
1747685386.23,0.038,0.073,0.015,0.681,0.071,0.196,-82.545,7.392,16.337
1747685386.24,0.039,0.118,0.050,0.643,0.058,0.198,-82.155,7.872,16.786
1747685386.25,0.040,0.098,0.090,0.625,0.057,0.224,-81.781,8.391,17.275
1747685386.26,0.048,0.024,0.104,0.647,0.017,0.240,-81.402,8.938,17.806
1747685386.27,0.027,-0.045,0.093,0.669,0.005,0.228,-81.008,9.412,18.281
1747685386.28,-0.018,-0.078,0.069,0.655,0.028,0.207,-80.614,9.786,18.406
1747685386.29,-0.047,-0.053,0.061,0.652,0.066,0.191,-80.229,10.096,18.694
1747685386.30,-0.055,0.007,0.053,0.671,0.141,0.162,-79.837,10.341,18.642
1747685386.31,-0.037,0.055,0.063,0.646,0.206,0.128,-79.453,10.514,18.714
1747685386.32,0.002,0.072,0.112,0.690,0.095,0.115,-79.068,10.590,18.460
1747685386.33,0.033,0.058,0.060,0.716,0.007,0.135,-78.658,10.585,18.432
1747685386.34,0.035,0.022,-0.018,0.678,0.024,0.170,-78.250,10.650,18.255
1747685386.35,0.029,-0.010,0.014,0.648,0.006,0.212,-77.859,10.839,18.436
1747685386.36,-0.000,-0.025,0.023,0.639,-0.031,0.228,-77.476,11.078,18.458
1747685386.37,-0.054,-0.014,-0.005,0.678,0.053,0.188,-77.086,11.286,18.668
1747685386.38,-0.104,-0.003,-0.016,0.733,0.221,0.122,-76.674,11.395,18.480
1747685386.39,-0.116,-0.011,0.002,0.756,0.326,0.072,-76.245,11.421,18.343
1747685386.40,-0.109,-0.017,0.005,0.727,0.364,0.067,-75.820,11.430,17.937
1747685386.41,-0.097,-0.004,-0.032,0.642,0.375,0.096,-75.428,11.512,17.803
1747685386.42,-0.081,0.005,-0.009,0.618,0.425,0.135,-75.067,11.715,17.577
1747685386.43,-0.055,0.005,0.029,0.665,0.488,0.162,-74.690,12.008,17.610
1747685386.44,-0.024,-0.004,0.032,0.663,0.483,0.178,-74.297,12.342,17.466
1747685386.45,0.003,-0.016,0.052,0.667,0.424,0.203,-73.904,12.683,17.551
1747685386.46,0.038,-0.013,0.036,0.686,0.393,0.230,-73.500,13.035,17.488
1747685386.47,0.084,-0.008,0.011,0.734,0.371,0.224,-73.077,13.368,17.607
1747685386.48,0.115,-0.015,0.018,0.784,0.346,0.207,-72.627,13.634,17.480
1747685386.49,0.108,-0.029,0.009,0.832,0.352,0.201,-72.150,13.841,17.490
1747685386.50,0.084,-0.031,0.029,0.805,0.343,0.194,-71.666,14.032,17.304
1747685386.51,0.048,-0.022,0.060,0.750,0.321,0.164,-71.211,14.198,17.278
1747685386.52,-0.000,-0.007,0.034,0.729,0.220,0.135,-70.782,14.298,17.033
1747685386.53,-0.037,0.009,0.013,0.736,0.018,0.112,-70.359,14.264,16.925
1747685386.54,-0.069,0.036,-0.041,0.721,0.007,0.113,-69.939,14.149,16.634
1747685386.55,-0.058,0.047,-0.046,0.723,0.125,0.123,-69.524,14.091,16.531
1747685386.56,0.006,0.036,0.008,0.733,0.132,0.137,-69.102,14.093,16.271
1747685386.57,0.037,0.018,-0.003,0.738,0.120,0.148,-68.675,14.103,16.206
1747685386.58,0.041,-0.009,-0.002,0.784,0.167,0.140,-68.236,14.123,15.982
1747685386.59,0.051,-0.035,0.035,0.863,0.196,0.125,-67.760,14.121,15.869
1747685386.60,0.043,-0.053,0.040,0.856,0.262,0.110,-67.264,14.113,15.573
1747685386.61,0.026,-0.059,0.037,0.816,0.369,0.114,-66.786,14.166,15.435
1747685386.62,0.006,-0.038,0.023,0.794,0.370,0.112,-66.324,14.266,15.161
1747685386.63,-0.042,0.002,-0.014,0.751,0.301,0.113,-65.879,14.345,15.043
1747685386.64,-0.071,0.038,-0.009,0.726,0.305,0.135,-65.454,14.436,14.806
1747685386.65,-0.056,0.064,0.012,0.725,0.308,0.118,-65.035,14.539,14.728
1747685386.66,-0.034,0.077,0.001,0.768,0.313,0.056,-64.612,14.597,14.463
1747685386.67,-0.031,0.063,-0.004,0.857,0.236,-0.024,-64.160,14.529,14.212
1747685386.68,-0.059,0.025,-0.061,0.898,0.173,-0.089,-63.680,14.320,13.736
1747685386.69,-0.083,-0.007,-0.077,0.890,0.180,-0.137,-63.199,14.042,13.317
1747685386.70,-0.103,-0.024,-0.051,0.895,0.274,-0.186,-62.728,13.755,12.731
1747685386.71,-0.151,-0.026,-0.048,0.906,0.390,-0.229,-62.255,13.489,12.218
1747685386.72,-0.199,-0.020,-0.016,0.889,0.477,-0.262,-61.789,13.257,11.672
1747685386.73,-0.236,-0.001,-0.005,0.867,0.513,-0.285,-61.335,13.047,11.113
1747685386.74,-0.251,0.007,-0.061,0.821,0.607,-0.256,-60.900,12.891,10.531
1747685386.75,-0.189,-0.009,-0.071,0.815,0.738,-0.212,-60.477,12.861,9.977
1747685386.76,-0.062,-0.037,-0.028,0.868,0.736,-0.192,-60.035,12.906,9.537
1747685386.77,0.033,-0.054,-0.019,0.925,0.674,-0.165,-59.559,12.943,9.022
1747685386.78,0.102,-0.064,-0.027,0.973,0.548,-0.137,-59.049,12.950,8.619
1747685386.79,0.146,-0.063,-0.027,1.019,0.413,-0.116,-58.510,12.894,8.238
1747685386.80,0.141,-0.047,-0.058,1.009,0.400,-0.112,-57.957,12.812,7.872
1747685386.81,0.112,-0.032,-0.047,0.949,0.366,-0.131,-57.428,12.732,7.515
1747685386.82,0.071,-0.028,-0.023,0.909,0.305,-0.102,-56.926,12.636,7.173
1747685386.83,0.071,-0.043,-0.067,0.857,0.293,-0.011,-56.440,12.589,6.913
1747685386.84,0.144,-0.073,-0.052,0.825,0.212,0.068,-55.968,12.607,6.757
1747685386.85,0.202,-0.101,-0.024,0.836,0.074,0.086,-55.495,12.606,6.654
1747685386.86,0.222,-0.117,-0.020,0.852,-0.043,0.055,-55.015,12.518,6.539
1747685386.87,0.225,-0.117,-0.027,0.852,-0.086,0.027,-54.534,12.363,6.396
1747685386.88,0.213,-0.102,-0.006,0.836,-0.109,0.039,-54.058,12.190,6.250
1747685386.89,0.168,-0.074,0.023,0.812,-0.183,0.070,-53.591,12.013,6.133
1747685386.90,0.095,-0.033,0.023,0.804,-0.243,0.126,-53.129,11.833,6.063
1747685386.91,0.052,0.005,0.017,0.814,-0.294,0.162,-52.658,11.664,6.042
1747685386.92,0.046,0.042,0.032,0.814,-0.341,0.170,-52.184,11.485,6.044
1747685386.93,0.026,0.076,0.044,0.821,-0.332,0.156,-51.709,11.289,6.043
1747685386.94,0.005,0.078,0.003,0.826,-0.236,0.129,-51.231,11.109,6.023
1747685386.95,-0.023,0.072,-0.001,0.810,-0.155,0.108,-50.760,10.969,5.985
1747685386.96,-0.073,0.062,0.008,0.798,-0.129,0.114,-50.297,10.859,5.946
1747685386.97,-0.109,0.050,0.008,0.782,-0.075,0.155,-49.842,10.787,5.928
1747685386.98,-0.126,0.030,0.055,0.806,0.006,0.175,-49.379,10.780,5.946
1747685386.99,-0.110,0.016,0.080,0.791,0.117,0.083,-48.915,10.801,5.930
1747685387.00,-0.074,0.060,0.085,0.781,0.220,-0.015,-48.473,10.821,5.827
1747685387.01,-0.052,0.081,0.065,0.766,0.218,-0.005,-48.039,10.844,5.687
1747685387.02,-0.052,0.077,0.006,0.700,0.141,0.097,-47.623,10.887,5.606
1747685387.03,-0.079,0.069,-0.012,0.690,0.130,0.151,-47.221,10.960,5.603
1747685387.04,-0.104,0.077,-0.001,0.725,0.192,0.140,-46.811,11.060,5.614
1747685387.05,-0.100,0.079,0.014,0.803,0.250,0.068,-46.372,11.157,5.578
1747685387.06,-0.096,0.063,0.022,0.885,0.304,0.007,-45.895,11.244,5.473
1747685387.07,-0.076,0.030,0.046,0.943,0.334,-0.049,-45.383,11.307,5.309
1747685387.08,-0.037,0.007,0.032,0.945,0.373,-0.023,-44.855,11.385,5.129
1747685387.09,0.015,-0.022,0.022,0.926,0.338,-0.051,-44.334,11.463,4.952
1747685387.10,0.056,-0.044,0.012,0.890,0.263,-0.021,-43.831,11.512,4.775
1747685387.11,0.081,-0.070,0.011,0.873,0.204,0.075,-43.337,11.561,4.655
1747685387.12,0.138,-0.089,0.029,0.878,0.209,0.165,-42.833,11.649,4.611
1747685387.13,0.183,-0.086,0.034,0.896,0.177,0.185,-42.315,11.758,4.610
1747685387.14,0.174,-0.063,-0.001,0.904,0.055,0.184,-41.790,11.824,4.606
1747685387.15,0.127,-0.040,-0.033,0.913,-0.147,0.188,-41.260,11.798,4.626
1747685387.16,0.106,-0.035,-0.025,0.923,-0.170,0.233,-40.722,11.709,4.638
1747685387.17,0.129,-0.041,0.037,0.961,-0.126,0.274,-40.168,11.655,4.688
1747685387.18,0.154,-0.044,0.091,1.009,-0.064,0.270,-39.582,11.636,4.741
1747685387.19,0.094,-0.052,0.061,0.966,-0.029,0.231,-38.998,11.631,4.774
1747685387.20,0.015,-0.034,0.013,0.893,-0.037,0.223,-38.453,11.628,4.798
1747685387.21,-0.044,-0.046,0.004,0.867,0.013,0.267,-37.935,11.649,4.842
1747685387.22,-0.080,-0.073,0.001,0.847,0.053,0.329,-37.422,11.720,4.928
1747685387.23,-0.083,-0.063,-0.003,0.855,0.072,0.397,-36.904,11.835,5.100
1747685387.24,-0.055,-0.027,0.012,0.851,-0.012,0.407,-36.379,11.948,5.258
1747685387.25,-0.030,0.043,0.034,0.867,-0.095,0.389,-35.854,12.005,5.456
1747685387.26,-0.009,0.131,0.052,0.907,-0.150,0.356,-35.315,12.010,5.583
1747685387.27,0.013,0.185,0.082,0.947,-0.189,0.299,-34.757,11.964,5.743
1747685387.28,0.007,0.206,0.066,0.973,-0.232,0.224,-34.189,11.868,5.782
1747685387.29,-0.013,0.194,0.007,0.930,-0.320,0.176,-33.632,11.705,5.860
1747685387.30,-0.045,0.142,-0.055,0.943,-0.293,0.195,-33.091,11.523,5.853
1747685387.31,-0.051,0.069,-0.026,0.956,-0.260,0.204,-32.535,11.370,5.950
1747685387.32,-0.073,0.019,-0.013,0.954,-0.239,0.183,-31.978,11.229,5.953
1747685387.33,-0.114,0.028,-0.014,0.982,-0.204,0.136,-31.418,11.093,6.034
1747685387.34,-0.129,0.046,0.027,1.032,-0.177,0.094,-30.841,10.956,5.981
1747685387.35,-0.127,0.069,0.058,1.077,-0.157,0.082,-30.241,10.819,6.001
1747685387.36,-0.097,0.073,0.072,1.075,-0.142,0.064,-29.627,10.691,5.915
1747685387.37,-0.044,0.064,0.041,1.065,-0.075,0.043,-29.021,10.580,5.931
1747685387.38,-0.008,0.074,-0.003,1.059,0.032,0.059,-28.420,10.521,5.835
1747685387.39,-0.009,0.045,-0.028,1.058,0.110,0.101,-27.817,10.529,5.878
1747685387.40,-0.042,0.014,-0.043,1.052,0.126,0.117,-27.214,10.573,5.824
1747685387.41,-0.085,0.019,-0.042,1.054,0.144,0.103,-26.611,10.625,5.878
1747685387.42,-0.120,0.025,-0.006,1.048,0.156,0.098,-26.010,10.684,5.817
1747685387.43,-0.117,0.030,0.009,1.065,0.124,0.089,-25.408,10.736,5.857
1747685387.44,-0.077,0.046,-0.006,1.127,0.058,0.121,-24.784,10.760,5.791
1747685387.45,-0.023,0.042,0.014,1.158,-0.075,0.118,-24.128,10.733,5.859
1747685387.46,0.026,0.036,0.073,1.217,-0.140,0.032,-23.454,10.632,5.766
1747685387.47,0.071,0.042,0.110,1.238,-0.141,0.009,-22.761,10.499,5.764
1747685387.48,0.107,-0.006,0.115,1.255,-0.072,0.002,-22.060,10.382,5.628
1747685387.49,0.115,-0.052,0.044,1.221,0.035,-0.010,-21.362,10.322,5.623
1747685387.50,0.090,-0.109,-0.037,1.139,0.036,0.077,-20.696,10.302,5.510
1747685387.51,0.041,-0.157,-0.068,1.047,0.044,0.232,-20.065,10.315,5.633
1747685387.52,0.030,-0.162,-0.043,0.959,0.065,0.371,-19.471,10.371,5.706
1747685387.53,0.051,-0.108,0.020,0.946,0.075,0.441,-18.896,10.460,6.002
1747685387.54,0.111,-0.019,0.039,0.975,0.019,0.490,-18.309,10.544,6.173
1747685387.55,0.185,0.048,0.029,1.000,-0.101,0.534,-17.702,10.582,6.530
1747685387.56,0.237,0.078,0.030,1.040,-0.220,0.567,-17.073,10.552,6.926
1747685387.57,0.256,0.068,0.069,1.086,-0.255,0.598,-16.415,10.477,7.152
1747685387.58,0.239,0.016,0.132,1.154,-0.185,0.616,-15.724,10.414,7.567
1747685387.59,0.211,-0.050,0.084,1.179,-0.099,0.614,-15.002,10.394,7.801
1747685387.60,0.148,-0.118,-0.002,1.148,0.012,0.636,-14.283,10.429,8.226
1747685387.61,0.034,-0.163,-0.036,1.207,0.194,0.697,-13.554,10.549,8.486
1747685387.62,-0.042,-0.185,-0.069,1.163,0.337,0.642,-12.814,10.763,8.959
1747685387.63,-0.089,-0.145,-0.055,1.018,0.377,0.579,-12.136,11.022,9.190
1747685387.64,-0.093,-0.076,-0.014,0.984,0.284,0.541,-11.520,11.258,9.619
1747685387.65,-0.051,-0.018,0.036,1.049,0.134,0.505,-10.891,11.417,9.804
1747685387.66,-0.017,0.043,0.074,1.079,-0.068,0.482,-10.238,11.466,10.181
1747685387.67,-0.007,0.121,0.067,1.114,-0.260,0.501,-9.569,11.393,10.336
1747685387.68,-0.027,0.171,0.002,1.122,-0.295,0.437,-8.889,11.249,10.706
1747685387.69,-0.080,0.216,-0.022,1.129,-0.194,0.341,-8.216,11.121,10.799
1747685387.70,-0.156,0.199,-0.064,1.076,-0.045,0.276,-7.564,11.057,11.077
1747685387.71,-0.235,0.093,-0.118,1.021,0.120,0.256,-6.946,11.084,11.110
1747685387.72,-0.275,-0.014,-0.113,1.009,0.229,0.199,-6.355,11.189,11.366
1747685387.73,-0.219,-0.088,-0.092,1.035,0.196,0.135,-5.765,11.316,11.345
1747685387.74,-0.109,-0.115,-0.044,1.043,0.064,0.086,-5.170,11.386,11.533
1747685387.75,-0.014,-0.052,-0.002,1.072,-0.083,0.061,-4.571,11.373,11.455
1747685387.76,0.034,0.060,-0.007,1.117,-0.201,0.031,-3.951,11.281,11.591
1747685387.77,-0.013,0.137,0.002,1.143,-0.199,-0.028,-3.320,11.155,11.467
1747685387.78,-0.103,0.167,0.019,1.196,-0.078,-0.088,-2.669,11.067,11.538
1747685387.78,-0.174,0.147,0.020,1.175,0.056,-0.129,-2.016,11.053,11.345
1747685387.80,-0.205,0.091,-0.006,1.177,0.161,-0.159,-1.374,11.111,11.364
1747685387.81,-0.188,0.048,-0.032,1.146,0.205,-0.213,-0.740,11.211,11.132
1747685387.81,-0.113,0.032,-0.060,1.120,0.211,-0.213,-0.132,11.330,11.110
1747685387.83,0.038,-0.014,-0.111,1.105,0.094,-0.165,0.471,11.421,10.878
1747685387.83,0.142,-0.066,-0.103,1.065,-0.037,-0.137,1.060,11.436,10.900
1747685387.85,0.154,-0.021,-0.049,1.078,-0.123,-0.104,1.646,11.395,10.711
1747685387.86,0.136,0.039,-0.009,1.092,-0.158,-0.064,2.244,11.316,10.777
1747685387.86,0.056,0.103,0.020,1.091,-0.091,-0.070,2.850,11.249,10.619
1747685387.87,-0.032,0.170,0.052,1.103,0.011,-0.074,3.455,11.235,10.673
1747685387.88,-0.082,0.136,0.010,1.112,0.065,-0.127,4.064,11.270,10.493
1747685387.89,-0.102,0.071,-0.024,1.070,0.121,-0.136,4.660,11.337,10.512
1747685387.90,-0.067,0.009,-0.049,1.033,0.167,-0.129,5.232,11.436,10.317
1747685387.91,0.032,-0.110,-0.076,1.014,0.098,-0.095,5.793,11.532,10.356
1747685387.92,0.084,-0.136,-0.040,0.975,0.041,-0.090,6.340,11.589,10.190
1747685387.93,0.106,-0.051,-0.023,0.966,-0.056,-0.055,6.873,11.606,10.260
1747685387.94,0.141,0.002,-0.060,0.960,-0.172,-0.010,7.408,11.554,10.130
1747685387.95,0.141,0.033,-0.066,0.940,-0.178,0.003,7.939,11.465,10.233
1747685387.96,0.129,0.046,-0.016,0.911,-0.148,-0.011,8.458,11.386,10.126
1747685387.97,0.090,0.006,0.002,0.898,-0.093,-0.013,8.963,11.334,10.247
1747685387.98,0.039,-0.027,-0.008,0.863,0.007,0.013,9.456,11.323,10.145
1747685387.99,-0.003,-0.120,-0.014,0.848,0.159,0.068,9.939,11.382,10.300
1747685388.00,-0.021,-0.132,-0.007,0.850,0.274,0.139,10.425,11.515,10.258
1747685388.01,-0.027,-0.066,-0.017,0.802,0.323,0.143,10.903,11.690,10.470
1747685388.02,-0.015,0.022,-0.057,0.813,0.308,0.125,11.369,11.881,10.449
1747685388.03,0.007,0.111,-0.067,0.810,0.235,0.093,11.836,12.044,10.637
1747685388.04,0.045,0.140,-0.082,0.832,0.094,0.075,12.303,12.151,10.584
1747685388.05,0.089,0.181,-0.093,0.850,-0.088,0.087,12.783,12.165,10.738
1747685388.06,0.128,0.164,-0.105,0.821,-0.190,0.054,13.259,12.095,10.678
1747685388.07,0.136,0.065,-0.101,0.803,-0.228,0.021,13.714,11.995,10.811
1747685388.08,0.091,0.010,-0.087,0.763,-0.242,0.020,14.155,11.876,10.725
1747685388.09,0.016,-0.083,-0.076,0.715,-0.137,0.057,14.573,11.781,10.869
1747685388.10,-0.049,-0.153,-0.029,0.673,0.012,0.075,14.969,11.757,10.826
1747685388.11,-0.075,-0.126,-0.025,0.667,0.098,0.117,15.352,11.801,11.016
1747685388.12,-0.086,-0.070,-0.031,0.629,0.143,0.119,15.732,11.871,11.009
1747685388.13,-0.042,-0.043,-0.037,0.617,0.116,0.053,16.088,11.956,11.202
1747685388.14,-0.014,0.055,-0.053,0.631,0.055,0.025,16.441,12.020,11.145
1747685388.15,0.039,0.093,-0.093,0.640,-0.050,0.026,16.801,12.041,11.300
1747685388.16,0.092,0.101,-0.083,0.657,-0.149,0.048,17.169,11.998,11.245
1747685388.17,0.100,0.055,-0.108,0.622,-0.141,-0.001,17.530,11.934,11.404
1747685388.18,0.067,0.012,-0.081,0.586,-0.175,-0.034,17.865,11.869,11.317
1747685388.19,0.014,0.018,-0.048,0.551,-0.131,-0.030,18.178,11.806,11.431
1747685388.20,-0.019,-0.044,-0.037,0.510,-0.045,0.002,18.474,11.780,11.356
1747685388.21,-0.019,-0.091,-0.034,0.477,0.021,0.023,18.751,11.791,11.507
1747685388.22,-0.022,-0.073,-0.038,0.455,0.058,0.046,19.016,11.829,11.466
1747685388.23,-0.017,-0.038,-0.046,0.428,0.050,0.034,19.266,11.872,11.625
1747685388.24,0.011,0.000,-0.062,0.412,-0.022,-0.004,19.504,11.896,11.582
1747685388.25,0.026,0.039,-0.083,0.376,-0.062,-0.036,19.721,11.891,11.719
1747685388.26,0.044,0.013,-0.089,0.343,-0.089,-0.059,19.917,11.876,11.646
1747685388.27,0.051,-0.037,-0.084,0.299,-0.097,-0.055,20.089,11.845,11.765
1747685388.28,0.025,-0.077,-0.080,0.241,-0.013,-0.047,20.236,11.835,11.700
1747685388.29,0.008,-0.088,-0.067,0.177,0.084,-0.066,20.348,11.876,11.813
1747685388.30,-0.013,-0.089,-0.077,0.113,0.157,-0.047,20.422,11.966,11.762
1747685388.31,-0.033,-0.122,-0.091,0.041,0.213,-0.046,20.459,12.085,11.908
1747685388.32,-0.040,-0.083,-0.104,-0.020,0.258,-0.036,20.459,12.229,11.882
1747685388.33,-0.015,-0.051,-0.115,-0.094,0.231,-0.037,20.424,12.376,12.039
1747685388.34,0.027,-0.031,-0.159,-0.171,0.191,-0.046,20.344,12.498,12.032
1747685388.35,0.043,-0.045,-0.184,-0.233,0.167,-0.063,20.225,12.604,12.203
1747685388.36,0.038,-0.072,-0.165,-0.315,0.143,-0.077,20.065,12.696,12.197
1747685388.37,0.037,-0.090,-0.156,-0.408,0.113,-0.069,19.854,12.766,12.380
1747685388.38,0.048,-0.104,-0.154,-0.488,0.115,-0.063,19.596,12.823,12.580
1747685388.39,0.032,-0.104,-0.141,-0.576,0.141,-0.064,19.292,12.884,12.615
1747685388.40,0.005,-0.091,-0.148,-0.649,0.164,-0.067,18.942,12.958,12.828
1747685388.41,-0.012,-0.084,-0.159,-0.716,0.159,-0.054,18.555,13.034,12.884
1747685388.42,-0.003,-0.076,-0.164,-0.790,0.115,-0.043,18.130,13.089,13.115
1747685388.43,0.033,-0.071,-0.186,-0.872,0.095,-0.043,17.663,13.121,13.204
1747685388.44,0.069,-0.076,-0.187,-0.936,0.065,-0.032,17.156,13.138,13.454
1747685388.45,0.072,-0.086,-0.145,-1.022,0.028,-0.019,16.608,13.130,13.572
1747685388.46,0.063,-0.096,-0.126,-1.098,0.012,-0.009,16.016,13.104,13.856
1747685388.47,0.077,-0.102,-0.130,-1.166,-0.017,0.006,15.385,13.061,14.006
1747685388.48,0.086,-0.100,-0.118,-1.234,-0.050,0.020,14.719,12.998,14.311
1747685388.49,0.090,-0.082,-0.116,-1.285,-0.064,0.048,14.020,12.920,14.496
1747685388.50,0.079,-0.059,-0.126,-1.312,-0.078,0.064,13.305,12.831,14.835
1747685388.51,0.045,-0.039,-0.135,-1.322,-0.069,0.057,12.578,12.742,15.041
1747685388.52,0.014,-0.019,-0.134,-1.326,-0.040,0.022,11.845,12.670,15.374
1747685388.53,-0.010,-0.001,-0.101,-1.339,-0.025,-0.032,11.104,12.620,15.541
1747685388.54,-0.041,0.005,-0.066,-1.377,-0.011,-0.082,10.340,12.582,15.801
1747685388.55,-0.051,-0.019,-0.069,-1.411,0.006,-0.088,9.553,12.561,15.927
1747685388.56,-0.027,-0.073,-0.067,-1.459,0.016,-0.073,8.744,12.547,16.179
1747685388.57,0.023,-0.110,-0.067,-1.487,0.021,-0.053,7.914,12.537,16.329
1747685388.58,0.076,-0.102,-0.050,-1.495,-0.003,-0.030,7.078,12.520,16.599
1747685388.59,0.078,-0.068,-0.020,-1.496,0.032,-0.015,6.240,12.505,16.773
1747685388.60,0.048,-0.025,-0.015,-1.504,0.098,-0.012,5.402,12.524,17.064
1747685388.61,0.005,0.022,-0.044,-1.519,0.167,-0.019,4.557,12.583,17.243
1747685388.62,-0.051,0.052,-0.059,-1.558,0.242,-0.022,3.698,12.687,17.528
1747685388.63,-0.063,0.050,-0.055,-1.619,0.269,-0.017,2.813,12.823,17.717
1747685388.64,-0.026,0.037,-0.059,-1.661,0.271,-0.003,1.896,12.971,18.031
1747685388.65,0.038,0.010,-0.058,-1.656,0.202,-0.010,0.972,13.103,18.242
1747685388.66,0.092,-0.021,-0.060,-1.663,0.093,-0.051,0.047,13.186,18.542
1747685388.67,0.114,-0.043,-0.084,-1.655,0.001,-0.076,-0.885,13.213,18.722
1747685388.68,0.085,-0.069,-0.077,-1.649,-0.047,-0.071,-1.813,13.200,18.986
1747685388.69,0.007,-0.087,-0.046,-1.691,-0.013,-0.054,-2.748,13.190,19.169
1747685388.70,-0.075,-0.077,-0.020,-1.736,0.062,-0.039,-3.708,13.215,19.457
1747685388.71,-0.115,-0.048,-0.000,-1.728,0.141,-0.013,-4.676,13.287,19.670
1747685388.72,-0.109,-0.015,0.020,-1.718,0.234,-0.031,-5.637,13.412,19.963
1747685388.73,-0.069,0.023,0.023,-1.724,0.282,-0.076,-6.600,13.584,20.164
1747685388.74,-0.018,0.050,-0.004,-1.732,0.270,-0.119,-7.572,13.765,20.415
1747685388.75,-0.017,0.045,-0.019,-1.763,0.254,-0.137,-8.556,13.938,20.584
1747685388.76,-0.027,0.011,-0.042,-1.812,0.228,-0.129,-9.567,14.102,20.824
1747685388.77,-0.020,-0.038,-0.060,-1.835,0.207,-0.108,-10.594,14.261,21.016
1747685388.78,0.016,-0.087,-0.056,-1.837,0.159,-0.095,-11.627,14.407,21.259
1747685388.79,0.055,-0.120,-0.042,-1.824,0.107,-0.092,-12.652,14.525,21.474
1747685388.80,0.084,-0.135,-0.015,-1.813,0.067,-0.085,-13.668,14.624,21.726
1747685388.81,0.094,-0.141,0.034,-1.854,0.042,-0.091,-14.693,14.709,21.948
1747685388.82,0.068,-0.126,0.057,-1.885,0.036,-0.080,-15.739,14.791,22.193
1747685388.83,0.033,-0.097,0.060,-1.873,0.096,-0.038,-16.787,14.898,22.447
1747685388.84,0.007,-0.070,0.060,-1.839,0.190,-0.015,-17.813,15.061,22.724
1747685388.85,-0.006,-0.045,0.046,-1.873,0.276,-0.001,-18.836,15.284,23.012
1747685388.86,-0.003,-0.035,0.038,-1.867,0.362,-0.001,-19.867,15.568,23.308
1747685388.87,-0.008,-0.030,0.024,-1.879,0.373,-0.027,-20.897,15.887,23.609
1747685388.88,-0.036,-0.027,0.012,-1.917,0.297,-0.045,-21.945,16.190,23.888
1747685388.89,-0.050,-0.029,0.016,-1.942,0.265,-0.038,-23.010,16.464,24.199
1747685388.90,-0.009,-0.036,0.018,-1.952,0.238,-0.049,-24.081,16.737,24.477
1747685388.91,0.046,-0.022,0.040,-1.919,0.154,-0.083,-25.151,16.982,24.791
1747685388.92,0.069,-0.001,0.018,-1.886,0.044,-0.120,-26.207,17.165,25.036
1747685388.93,0.060,0.012,0.013,-1.856,0.001,-0.155,-27.248,17.295,25.307
1747685388.94,0.060,0.019,0.028,-1.851,0.016,-0.185,-28.290,17.419,25.497
1747685388.95,0.073,0.007,0.041,-1.793,-0.034,-0.201,-29.317,17.528,25.735
1747685388.96,0.055,-0.032,0.021,-1.775,-0.016,-0.171,-30.319,17.626,25.900
1747685388.97,0.031,-0.069,0.022,-1.807,0.037,-0.134,-31.320,17.769,26.167
1747685388.98,-0.005,-0.100,0.040,-1.756,0.026,-0.134,-32.314,17.937,26.368
1747685388.99,-0.079,-0.113,0.041,-1.715,0.032,-0.175,-33.280,18.099,26.634
1747685389.00,-0.139,-0.114,0.053,-1.739,0.036,-0.226,-34.252,18.250,26.791
1747685389.01,-0.148,-0.093,0.036,-1.754,0.007,-0.239,-35.242,18.394,27.019
1747685389.02,-0.106,-0.068,-0.010,-1.759,-0.064,-0.240,-36.238,18.513,27.151
1747685389.03,-0.048,-0.043,-0.017,-1.699,-0.081,-0.251,-37.222,18.604,27.379
1747685389.04,-0.000,-0.023,0.004,-1.645,-0.014,-0.275,-38.172,18.703,27.467
1747685389.05,0.046,-0.007,0.027,-1.638,0.033,-0.310,-39.113,18.824,27.650
1747685389.06,0.051,0.002,0.009,-1.677,-0.018,-0.328,-40.066,18.943,27.684
1747685389.07,0.004,-0.014,-0.005,-1.712,-0.094,-0.282,-41.039,19.036,27.880
1747685389.08,-0.015,-0.038,-0.001,-1.732,-0.132,-0.216,-42.014,19.138,27.996
1747685389.09,0.021,-0.051,0.016,-1.733,-0.185,-0.163,-42.986,19.253,28.302
1747685389.10,0.062,-0.061,0.054,-1.684,-0.200,-0.144,-43.937,19.371,28.489
1747685389.11,0.098,-0.052,0.065,-1.646,-0.213,-0.159,-44.860,19.484,28.817
1747685389.12,0.121,-0.043,0.041,-1.633,-0.204,-0.196,-45.777,19.582,28.973
1747685389.13,0.104,-0.039,0.024,-1.589,-0.180,-0.233,-46.685,19.675,29.252
1747685389.14,0.066,-0.048,0.026,-1.564,-0.194,-0.247,-47.577,19.756,29.331
1747685389.15,0.032,-0.061,0.001,-1.579,-0.238,-0.239,-48.467,19.827,29.590
1747685389.16,0.027,-0.076,-0.064,-1.603,-0.323,-0.242,-49.369,19.875,29.675
1747685389.17,0.026,-0.091,-0.055,-1.618,-0.400,-0.260,-50.280,19.880,29.950
1747685389.18,0.015,-0.098,-0.007,-1.660,-0.465,-0.259,-51.211,19.848,30.045
1747685389.19,0.011,-0.075,0.058,-1.681,-0.487,-0.256,-52.158,19.811,30.126
1747685389.20,0.012,-0.020,0.084,-1.677,-0.529,-0.261,-53.111,19.765,30.433
1747685389.21,-0.008,0.056,0.049,-1.653,-0.534,-0.267,-54.057,19.704,30.507
1747685389.22,-0.037,0.123,0.035,-1.599,-0.502,-0.311,-54.987,19.627,30.779
1747685389.23,-0.075,0.160,0.056,-1.550,-0.445,-0.387,-55.900,19.526,30.758
1747685389.24,-0.118,0.147,0.087,-1.542,-0.454,-0.444,-56.811,19.374,30.883
1747685389.25,-0.140,0.090,0.074,-1.555,-0.443,-0.437,-57.730,19.199,30.760
1747685389.26,-0.122,0.013,0.032,-1.550,-0.396,-0.396,-58.646,19.066,30.885
1747685389.27,-0.059,-0.057,0.033,-1.544,-0.360,-0.359,-59.552,18.991,30.822
1747685389.28,0.008,-0.090,0.062,-1.528,-0.356,-0.335,-60.448,18.957,31.017
1747685389.29,0.059,-0.086,0.072,-1.473,-0.375,-0.294,-61.317,18.941,30.993
1747685389.30,0.121,-0.076,0.030,-1.459,-0.346,-0.225,-62.155,18.979,31.268
1747685389.31,0.199,-0.084,0.015,-1.499,-0.325,-0.130,-62.987,19.137,31.418
1747685389.32,0.279,-0.109,0.015,-1.496,-0.424,-0.040,-63.813,19.402,31.949
1747685389.33,0.311,-0.147,-0.036,-1.409,-0.554,0.013,-64.599,19.686,32.327
1747685389.34,0.280,-0.175,-0.095,-1.325,-0.653,0.004,-65.331,19.917,32.967
1747685389.35,0.202,-0.172,-0.116,-1.260,-0.712,-0.063,-66.029,20.053,33.302
1747685389.36,0.086,-0.131,-0.123,-1.211,-0.762,-0.161,-66.714,20.046,33.754
1747685389.37,-0.037,-0.076,-0.123,-1.131,-0.763,-0.222,-67.382,19.902,33.829
1747685389.38,-0.146,-0.030,-0.113,-1.042,-0.674,-0.261,-68.015,19.689,34.043
1747685389.39,-0.207,-0.013,-0.081,-0.892,-0.529,-0.317,-68.592,19.425,33.881
1747685389.40,-0.242,-0.010,-0.080,-0.726,-0.328,-0.399,-69.095,19.067,33.759
1747685389.41,-0.304,-0.001,-0.104,-0.636,-0.215,-0.434,-69.536,18.647,33.230
1747685389.42,-0.410,0.012,-0.177,-0.629,-0.072,-0.479,-69.960,18.198,32.843
1747685389.43,-0.493,-0.007,-0.220,-0.653,0.269,-0.508,-70.395,17.811,32.140
1747685389.44,-0.492,-0.038,-0.150,-0.691,0.705,-0.472,-70.846,17.660,31.682
1747685389.45,-0.414,-0.070,-0.046,-0.716,1.036,-0.396,-71.305,17.830,31.082
1747685389.46,-0.313,-0.101,0.007,-0.714,1.262,-0.300,-71.755,18.302,30.884
1747685389.47,-0.178,-0.115,0.039,-0.744,1.335,-0.209,-72.194,19.034,30.619
1747685389.48,-0.016,-0.106,0.074,-0.759,1.306,-0.142,-72.634,19.954,30.788
1747685389.49,0.128,-0.088,0.085,-0.691,1.083,-0.132,-73.050,20.885,30.789
1747685389.50,0.224,-0.063,0.032,-0.652,0.747,-0.145,-73.432,21.619,31.011
1747685389.51,0.267,-0.027,-0.041,-0.657,0.500,-0.174,-73.814,22.161,30.949
1747685389.52,0.299,0.015,-0.050,-0.618,0.297,-0.232,-74.195,22.505,31.068
1747685389.53,0.295,0.059,-0.063,-0.545,0.068,-0.318,-74.563,22.549,30.741
1747685389.54,0.239,0.102,-0.098,-0.462,-0.117,-0.425,-74.909,22.213,30.410
1747685389.55,0.151,0.126,-0.109,-0.413,-0.180,-0.505,-75.238,21.537,29.538
1747685389.56,0.082,0.119,-0.061,-0.430,-0.038,-0.516,-75.567,20.745,28.790
1747685389.57,0.062,0.085,0.026,-0.534,0.069,-0.454,-75.920,20.107,27.845
1747685389.58,0.046,0.041,0.095,-0.649,0.002,-0.382,-76.320,19.697,27.399
1747685389.59,-0.024,-0.024,0.088,-0.707,-0.044,-0.345,-76.754,19.410,26.861
1747685389.60,-0.097,-0.110,0.075,-0.799,-0.028,-0.310,-77.221,19.235,26.704
1747685389.61,-0.104,-0.184,0.118,-0.864,-0.005,-0.234,-77.724,19.273,26.489
1747685389.62,-0.039,-0.197,0.108,-0.842,-0.005,-0.145,-78.221,19.568,26.791
1747685389.63,0.042,-0.115,0.043,-0.765,-0.022,-0.153,-78.680,19.943,26.913
1747685389.64,0.063,0.013,-0.001,-0.726,-0.038,-0.219,-79.116,20.162,27.156
1747685389.65,0.025,0.122,-0.007,-0.716,-0.031,-0.282,-79.552,20.177,26.930
1747685389.66,-0.018,0.171,0.017,-0.694,0.005,-0.335,-79.992,20.031,26.788
1747685389.67,-0.053,0.144,0.044,-0.648,0.026,-0.371,-80.421,19.680,26.172
1747685389.68,-0.076,0.061,0.027,-0.637,0.038,-0.382,-80.837,19.204,25.669
1747685389.69,-0.079,-0.039,0.039,-0.689,0.033,-0.369,-81.265,18.709,24.886
1747685389.70,-0.048,-0.121,0.062,-0.739,0.008,-0.302,-81.713,18.368,24.529
1747685389.71,0.019,-0.141,0.053,-0.746,-0.016,-0.210,-82.163,18.334,24.244
1747685389.72,0.082,-0.086,0.044,-0.736,-0.085,-0.150,-82.595,18.587,24.528
1747685389.73,0.093,0.008,0.031,-0.763,-0.199,-0.178,-83.028,18.925,24.692
1747685389.74,0.039,0.070,0.046,-0.768,-0.293,-0.261,-83.484,18.973,24.884
1747685389.75,-0.049,0.071,0.054,-0.719,-0.297,-0.303,-83.940,18.657,24.498
1747685389.76,-0.118,0.023,0.015,-0.646,-0.192,-0.311,-84.364,18.070,24.052
1747685389.77,-0.120,-0.049,-0.019,-0.589,-0.018,-0.273,-84.751,17.459,23.244
1747685389.78,-0.075,-0.055,-0.037,-0.587,0.174,-0.224,-85.111,17.102,22.838
1747685389.79,-0.023,0.006,-0.039,-0.635,0.239,-0.203,-85.480,17.069,22.562
1747685389.80,-0.002,0.058,0.001,-0.672,0.091,-0.208,-85.870,17.160,22.551
1747685389.81,-0.010,0.072,0.020,-0.750,-0.037,-0.222,-86.293,17.186,22.570
1747685389.82,-0.001,0.039,0.018,-0.827,-0.036,-0.239,-86.764,17.303,22.708
1747685389.83,0.046,-0.040,0.032,-0.839,-0.087,-0.210,-87.260,17.734,23.169
1747685389.84,0.117,-0.118,0.018,-0.746,-0.216,-0.183,-87.727,18.420,23.940
1747685389.85,0.179,-0.160,-0.027,-0.651,-0.413,-0.151,-88.135,19.307,25.008
1747685389.86,0.199,-0.107,-0.063,-0.592,-0.500,-0.174,-88.497,20.206,26.174
1747685389.87,0.171,0.016,-0.080,-0.592,-0.570,-0.250,-88.856,20.040,26.309
1747685389.88,0.091,0.126,-0.059,-0.542,-0.692,-0.289,-89.215,17.206,23.836
1747685389.89,-0.011,0.145,-0.099,-0.469,-0.701,-0.312,-89.534,6.799,13.832
1747685389.90,-0.070,0.070,-0.137,-0.414,-0.582,-0.311,-89.753,-30.776,-23.377
1747685389.91,-0.068,-0.012,-0.133,-0.396,-0.492,-0.274,-89.706,-93.578,-85.874
1747685389.92,-0.053,-0.062,-0.133,-0.398,-0.368,-0.222,-89.501,-119.586,-111.635
1747685389.93,-0.036,-0.069,-0.124,-0.393,-0.214,-0.152,-89.281,-131.271,-123.154
1747685389.94,-0.021,-0.048,-0.087,-0.355,-0.104,-0.127,-89.074,-138.235,-130.030
1747685389.95,-0.037,-0.017,-0.077,-0.305,-0.005,-0.122,-88.884,-141.935,-133.699
1747685389.96,-0.068,0.026,-0.092,-0.261,0.130,-0.083,-88.719,-144.309,-136.108
1747685389.97,-0.079,0.042,-0.091,-0.224,0.275,-0.049,-88.584,-146.233,-138.151
1747685389.98,-0.070,0.021,-0.089,-0.179,0.342,-0.017,-88.475,-147.860,-139.954
1747685389.99,-0.066,0.007,-0.096,-0.099,0.415,0.016,-88.407,-149.216,-141.526
1747685390.00,-0.058,0.015,-0.101,-0.022,0.463,0.040,-88.386,-150.052,-142.615
1747685390.01,-0.071,0.025,-0.079,0.026,0.470,0.038,-88.399,-150.505,-143.334
1747685390.02,-0.112,0.035,-0.042,0.039,0.507,0.006,-88.422,-150.282,-143.388
1747685390.03,-0.151,0.026,0.005,0.006,0.600,-0.023,-88.432,-149.518,-142.941
1747685390.04,-0.153,0.003,0.048,-0.061,0.669,-0.046,-88.409,-148.804,-142.592
1747685390.05,-0.120,-0.018,0.075,-0.106,0.690,-0.057,-88.352,-148.430,-142.609
1747685390.06,-0.064,-0.038,0.087,-0.122,0.628,-0.056,-88.279,-148.323,-142.881
1747685390.07,-0.010,-0.046,0.079,-0.132,0.554,-0.054,-88.202,-148.354,-143.249
1747685390.08,0.024,-0.050,0.074,-0.177,0.484,-0.060,-88.110,-148.639,-143.831
1747685390.09,0.046,-0.044,0.089,-0.210,0.413,-0.071,-87.996,-149.143,-144.594
1747685390.10,0.057,-0.019,0.085,-0.213,0.323,-0.101,-87.866,-149.517,-145.180
1747685390.11,0.058,0.020,0.065,-0.188,0.210,-0.137,-87.732,-149.365,-145.180
1747685390.12,0.064,0.046,0.060,-0.185,0.089,-0.155,-87.598,-148.840,-144.739
1747685390.13,0.082,0.044,0.067,-0.196,-0.001,-0.159,-87.458,-148.343,-144.267
1747685390.14,0.092,0.012,0.069,-0.203,-0.083,-0.161,-87.313,-147.972,-143.870
1747685390.15,0.085,-0.036,0.034,-0.221,-0.131,-0.131,-87.166,-147.892,-143.728
1747685390.16,0.088,-0.063,-0.002,-0.245,-0.158,-0.098,-87.018,-148.271,-144.024
1747685390.17,0.092,-0.057,-0.016,-0.242,-0.194,-0.076,-86.872,-148.948,-144.601
1747685390.18,0.071,-0.023,-0.028,-0.209,-0.207,-0.074,-86.738,-149.596,-145.279
1747685390.19,0.033,0.024,-0.047,-0.135,-0.207,-0.074,-86.631,-149.944,-145.509
1747685390.20,-0.013,0.064,-0.071,-0.065,-0.150,-0.092,-86.560,-149.829,-145.428
1747685390.21,-0.064,0.067,-0.071,-0.033,-0.056,-0.092,-86.510,-149.343,-144.883
1747685390.22,-0.096,0.045,-0.039,-0.032,0.029,-0.081,-86.469,-148.806,-144.336
1747685390.23,-0.115,0.008,-0.038,-0.035,0.129,-0.051,-86.433,-148.413,-143.988
1747685390.24,-0.112,-0.031,-0.035,-0.040,0.182,-0.019,-86.404,-148.225,-143.889
1747685390.25,-0.091,-0.043,-0.024,-0.056,0.221,0.007,-86.378,-148.288,-144.067
1747685390.26,-0.050,-0.028,-0.006,-0.055,0.249,0.041,-86.358,-148.619,-144.534
1747685390.27,-0.001,-0.008,0.027,-0.029,0.214,0.079,-86.354,-149.183,-145.234
1747685390.28,0.028,0.010,0.027,-0.009,0.121,0.063,-86.369,-149.723,-146.008
1747685390.29,0.018,0.016,0.005,-0.025,0.072,0.034,-86.375,-150.085,-146.424
1747685390.30,0.018,0.001,0.007,-0.050,0.071,0.028,-86.365,-150.429,-147.089
1747685390.31,0.048,-0.031,0.025,-0.047,0.034,0.037,-86.348,-150.840,-147.532
1747685390.32,0.073,-0.043,0.023,-0.030,-0.017,0.021,-86.336,-151.219,-148.179
1747685390.33,0.076,-0.017,0.002,-0.009,-0.070,-0.024,-86.325,-151.301,-148.238
1747685390.34,0.051,0.024,0.004,0.016,-0.141,-0.061,-86.315,-150.986,-148.125
1747685390.35,0.012,0.046,0.006,0.013,-0.200,-0.082,-86.302,-150.462,-147.501
1747685390.36,-0.024,0.040,0.008,-0.006,-0.204,-0.083,-86.280,-149.945,-147.135
1747685390.37,-0.050,0.006,0.005,-0.023,-0.141,-0.065,-86.250,-149.546,-146.635
1747685390.38,-0.051,-0.027,0.012,-0.016,-0.066,-0.041,-86.225,-149.307,-146.601
1747685390.39,-0.042,-0.033,0.018,0.003,0.017,-0.015,-86.213,-149.174,-146.452
1747685390.40,-0.029,-0.023,0.018,0.025,0.089,0.001,-86.219,-149.082,-146.661
1747685390.41,-0.018,-0.007,0.024,0.049,0.125,0.015,-86.241,-148.967,-146.609
1747685390.42,-0.019,0.009,0.010,0.075,0.126,0.018,-86.278,-148.768,-146.729
1747685390.43,-0.023,0.019,-0.013,0.086,0.123,0.022,-86.324,-148.478,-146.509
1747685390.44,-0.013,0.016,-0.021,0.080,0.154,0.040,-86.373,-148.250,-146.604
1747685390.45,0.005,0.009,-0.016,0.078,0.172,0.040,-86.422,-148.072,-146.521
1747685390.46,0.020,0.008,-0.008,0.107,0.138,0.037,-86.476,-147.824,-146.598
1747685390.47,0.030,0.010,-0.012,0.132,0.082,0.038,-86.544,-147.433,-146.270
1747685390.48,0.044,0.009,-0.017,0.141,0.055,0.034,-86.617,-146.976,-146.069
1747685390.49,0.054,0.002,0.005,0.158,0.033,0.033,-86.696,-146.427,-145.543
1747685390.50,0.050,-0.008,0.022,0.167,0.018,0.045,-86.784,-145.806,-145.160
1747685390.51,0.037,-0.021,0.017,0.178,-0.005,0.058,-86.882,-145.205,-144.562
1747685390.52,0.017,-0.029,0.013,0.205,-0.035,0.051,-86.990,-144.496,-144.073
1747685390.53,-0.007,-0.025,0.006,0.239,-0.076,0.039,-87.107,-143.515,-143.059
1747685390.54,-0.029,-0.011,-0.005,0.298,-0.094,0.022,-87.240,-142.003,-141.715
1747685390.55,-0.048,0.000,-0.017,0.334,-0.038,0.008,-87.388,-139.769,-139.438
1747685390.56,-0.045,0.011,-0.014,0.314,0.053,0.008,-87.533,-137.088,-136.985
1747685390.57,-0.027,0.021,0.008,0.272,0.086,0.031,-87.662,-134.562,-134.499
1747685390.58,-0.016,0.018,0.015,0.256,0.061,0.036,-87.779,-132.262,-132.455
1747685390.59,-0.021,0.002,-0.004,0.265,0.057,0.035,-87.892,-129.769,-129.994
1747685390.60,-0.023,-0.022,-0.006,0.275,0.071,0.041,-88.004,-126.798,-127.270
1747685390.61,-0.009,-0.041,0.008,0.285,0.082,0.056,-88.115,-123.390,-123.905
1747685390.62,0.014,-0.044,0.014,0.291,0.104,0.080,-88.232,-119.549,-120.317
1747685390.63,0.041,-0.019,0.006,0.300,0.136,0.089,-88.350,-115.166,-116.001
1747685390.64,0.057,0.017,0.007,0.322,0.133,0.093,-88.462,-109.842,-110.943
1747685390.65,0.067,0.037,0.020,0.318,0.070,0.132,-88.577,-103.712,-104.869
1747685390.66,0.069,0.043,0.029,0.328,-0.034,0.152,-88.691,-96.752,-98.103
1747685390.67,0.034,0.032,0.042,0.378,-0.206,0.116,-88.777,-87.824,-89.106
1747685390.68,-0.046,0.016,0.040,0.434,-0.319,0.058,-88.796,-76.814,-78.120
1747685390.69,-0.119,-0.003,0.035,0.470,-0.325,0.008,-88.728,-65.372,-66.487
1747685390.70,-0.136,-0.034,0.048,0.487,-0.249,-0.001,-88.593,-55.356,-56.496
1747685390.71,-0.108,-0.058,0.060,0.523,-0.133,0.010,-88.413,-46.789,-47.816
1747685390.72,-0.069,-0.053,0.056,0.511,-0.033,0.008,-88.200,-39.760,-40.924
1747685390.73,-0.060,-0.014,0.052,0.480,0.035,0.001,-87.975,-34.573,-35.738
1747685390.74,-0.068,0.018,0.070,0.478,0.028,-0.004,-87.744,-30.642,-31.998
1747685390.75,-0.078,0.021,0.055,0.477,0.017,0.018,-87.507,-27.372,-28.738
1747685390.76,-0.067,0.013,0.042,0.476,0.016,0.064,-87.271,-24.326,-25.870
1747685390.77,-0.034,0.015,0.040,0.491,0.046,0.124,-87.036,-21.159,-22.714
1747685390.78,0.002,0.008,0.029,0.530,0.140,0.148,-86.789,-17.937,-19.699
1747685390.79,0.029,-0.006,0.035,0.588,0.229,0.140,-86.505,-14.937,-16.802
1747685390.80,0.045,-0.015,0.037,0.608,0.259,0.147,-86.189,-12.290,-14.454
1747685390.81,0.055,-0.022,0.026,0.591,0.249,0.162,-85.870,-9.944,-12.248
1747685390.82,0.062,-0.023,-0.003,0.596,0.183,0.150,-85.550,-7.930,-10.518
1747685390.83,0.051,-0.024,-0.039,0.643,0.095,0.126,-85.211,-6.348,-9.145
1747685390.84,0.028,-0.020,-0.049,0.686,0.025,0.124,-84.838,-5.072,-7.903
1747685390.85,0.029,0.002,-0.023,0.727,-0.113,0.133,-84.442,-3.976,-6.911
1747685390.86,0.018,0.040,-0.012,0.765,-0.206,0.131,-84.020,-3.067,-5.904
1747685390.87,-0.022,0.050,-0.005,0.760,-0.193,0.144,-83.587,-2.271,-5.054
1747685390.88,-0.036,0.010,0.023,0.751,-0.108,0.143,-83.161,-1.505,-4.194
1747685390.89,-0.034,-0.042,0.039,0.778,0.017,0.119,-82.728,-0.840,-3.497
1747685390.90,-0.039,-0.069,0.033,0.838,0.077,0.099,-82.268,-0.309,-2.993
1747685390.91,-0.046,-0.072,0.012,0.898,0.049,0.117,-81.772,0.157,-2.559
1747685390.92,-0.044,-0.054,-0.012,0.902,0.055,0.186,-81.254,0.732,-2.005
1747685390.93,-0.020,-0.017,-0.014,0.826,0.074,0.279,-80.756,1.555,-1.210
1747685390.94,0.021,0.030,0.012,0.773,0.074,0.310,-80.295,2.527,-0.266
1747685390.94,0.026,0.066,-0.003,0.741,0.155,0.277,-79.854,3.428,0.457
1747685390.96,0.005,0.068,0.012,0.679,0.257,0.224,-79.439,4.184,1.101
1747685390.97,-0.012,0.041,0.107,0.663,0.218,0.197,-79.052,4.789,1.450
1747685390.98,-0.029,0.000,0.132,0.725,0.127,0.204,-78.647,5.286,1.855
1747685390.99,-0.041,-0.030,0.086,0.706,0.032,0.213,-78.225,5.719,2.147
1747685391.00,-0.053,-0.029,0.081,0.667,-0.060,0.191,-77.825,6.065,2.510
1747685391.01,-0.077,-0.008,0.071,0.653,-0.042,0.177,-77.438,6.321,2.706
1747685391.02,-0.086,0.010,0.069,0.641,0.057,0.189,-77.060,6.597,2.985
1747685391.02,-0.065,0.032,0.109,0.662,0.124,0.219,-76.678,6.960,3.190
1747685391.04,-0.069,0.053,0.108,0.690,0.131,0.231,-76.279,7.367,3.533
1747685391.04,-0.110,0.070,0.084,0.669,0.160,0.195,-75.876,7.734,3.722
1747685391.05,-0.158,0.082,0.097,0.638,0.224,0.153,-75.493,8.022,3.907
1747685391.06,-0.179,0.069,0.101,0.619,0.290,0.133,-75.126,8.279,3.920
1747685391.07,-0.141,0.030,0.078,0.577,0.315,0.133,-74.775,8.546,4.015
1747685391.08,-0.072,0.003,0.061,0.548,0.299,0.134,-74.448,8.824,4.022
1747685391.09,-0.015,-0.004,0.043,0.561,0.240,0.137,-74.123,9.075,4.122
1747685391.10,0.017,0.001,0.014,0.560,0.162,0.159,-73.793,9.303,4.145
1747685391.11,0.034,0.006,0.004,0.579,0.097,0.171,-73.458,9.512,4.288
1747685391.12,0.040,0.012,-0.008,0.630,0.099,0.152,-73.102,9.684,4.325
1747685391.13,0.032,0.013,-0.034,0.698,0.127,0.090,-72.718,9.764,4.341
1747685391.14,0.008,0.004,-0.040,0.812,0.141,0.030,-72.287,9.716,4.132
1747685391.15,-0.018,-0.017,-0.071,0.857,0.188,-0.026,-71.814,9.568,3.877
1747685391.16,-0.063,-0.036,-0.096,0.850,0.302,-0.074,-71.338,9.375,3.446
1747685391.17,-0.103,-0.053,-0.070,0.848,0.441,-0.063,-70.866,9.235,3.074
1747685391.18,-0.109,-0.073,-0.029,0.793,0.505,-0.011,-70.405,9.231,2.698
1747685391.19,-0.105,-0.079,-0.013,0.753,0.530,0.038,-69.969,9.352,2.514
1747685391.20,-0.102,-0.052,-0.062,0.710,0.656,0.042,-69.552,9.561,2.314
1747685391.21,-0.086,-0.025,-0.074,0.696,0.760,0.025,-69.156,9.846,2.181
1747685391.22,-0.055,-0.009,-0.031,0.753,0.712,0.011,-68.749,10.108,1.944
1747685391.23,-0.024,-0.003,-0.063,0.788,0.631,0.030,-68.312,10.317,1.758
1747685391.24,0.041,-0.007,-0.079,0.833,0.577,0.063,-67.853,10.522,1.559
1747685391.25,0.139,-0.028,-0.038,0.918,0.517,0.068,-67.357,10.703,1.418
1747685391.26,0.177,-0.041,-0.021,1.036,0.496,0.037,-66.803,10.822,1.189
1747685391.27,0.148,-0.057,-0.014,1.083,0.439,0.007,-66.202,10.852,0.930
1747685391.28,0.075,-0.081,-0.026,1.050,0.411,-0.022,-65.603,10.826,0.590
1747685391.29,-0.010,-0.099,-0.049,0.977,0.469,-0.018,-65.038,10.817,0.302
1747685391.30,-0.080,-0.108,-0.034,0.939,0.462,-0.039,-64.504,10.842,-0.016
1747685391.31,-0.112,-0.082,-0.033,0.869,0.369,-0.072,-64.002,10.814,-0.312
1747685391.32,-0.131,-0.017,-0.065,0.841,0.312,-0.066,-63.533,10.735,-0.650
1747685391.33,-0.082,0.039,-0.057,0.840,0.358,-0.027,-63.066,10.692,-0.908
1747685391.34,0.020,0.053,-0.035,0.859,0.337,0.033,-62.591,10.715,-1.130
1747685391.35,0.100,0.032,-0.030,0.926,0.251,0.072,-62.084,10.762,-1.271
1747685391.36,0.151,0.004,-0.042,0.972,0.165,0.097,-61.542,10.777,-1.415
1747685391.37,0.151,-0.031,-0.050,1.009,0.179,0.118,-60.974,10.787,-1.511
1747685391.38,0.131,-0.055,-0.004,1.014,0.191,0.145,-60.391,10.833,-1.608
1747685391.39,0.111,-0.052,0.052,0.957,0.140,0.164,-59.819,10.899,-1.646
1747685391.40,0.075,-0.026,0.080,0.842,0.091,0.162,-59.296,10.951,-1.682
1747685391.41,0.025,-0.006,0.045,0.765,0.108,0.182,-58.830,11.023,-1.667
1747685391.42,0.019,-0.021,0.028,0.719,0.022,0.242,-58.390,11.123,-1.598
1747685391.43,0.075,-0.036,0.003,0.707,-0.116,0.319,-57.962,11.216,-1.451
1747685391.44,0.148,-0.049,-0.015,0.757,-0.194,0.365,-57.516,11.306,-1.240
1747685391.45,0.211,-0.058,0.013,0.855,-0.310,0.353,-57.024,11.339,-1.032
1747685391.46,0.196,-0.052,0.007,0.883,-0.349,0.336,-56.494,11.288,-0.860
1747685391.47,0.136,-0.020,0.004,0.852,-0.260,0.320,-55.970,11.244,-0.705
1747685391.48,0.046,0.004,0.081,0.815,-0.263,0.282,-55.470,11.208,-0.569
1747685391.49,-0.051,0.042,0.074,0.774,-0.240,0.255,-54.995,11.148,-0.461
1747685391.50,-0.094,0.083,0.023,0.716,-0.173,0.249,-54.551,11.111,-0.358
1747685391.51,-0.063,0.092,0.038,0.704,-0.178,0.267,-54.126,11.106,-0.245
1747685391.52,-0.013,0.081,0.022,0.715,-0.229,0.297,-53.698,11.103,-0.109
1747685391.53,0.018,0.058,-0.012,0.732,-0.278,0.278,-53.260,11.068,0.030
1747685391.54,0.029,0.041,-0.042,0.771,-0.312,0.232,-52.813,10.979,0.134
1747685391.55,0.003,0.037,-0.037,0.840,-0.256,0.186,-52.338,10.849,0.181
1747685391.56,-0.065,0.040,0.001,0.877,-0.164,0.143,-51.837,10.733,0.184
1747685391.57,-0.128,0.047,0.047,0.855,-0.035,0.108,-51.336,10.647,0.149
1747685391.58,-0.153,0.062,0.083,0.830,0.106,0.092,-50.852,10.627,0.098
1747685391.59,-0.132,0.064,0.103,0.760,0.169,0.079,-50.395,10.662,0.039
1747685391.60,-0.097,0.060,0.061,0.673,0.187,0.107,-49.984,10.738,0.000
1747685391.61,-0.056,0.032,0.043,0.651,0.178,0.158,-49.602,10.849,0.007
1747685391.62,-0.004,0.004,0.049,0.685,0.120,0.190,-49.209,10.968,0.047
1747685391.63,0.025,0.007,0.038,0.713,0.046,0.168,-48.796,11.043,0.085
1747685391.64,0.024,0.035,0.008,0.731,0.014,0.101,-48.377,11.057,0.080
1747685391.65,0.018,0.065,-0.002,0.732,0.018,0.034,-47.958,11.015,0.016
1747685391.66,0.012,0.092,0.016,0.720,0.020,-0.007,-47.549,10.947,-0.090
1747685391.67,-0.002,0.108,0.067,0.723,0.054,-0.026,-47.147,10.871,-0.220
1747685391.68,0.008,0.116,0.106,0.732,0.121,0.007,-46.738,10.827,-0.343
1747685391.69,0.045,0.106,0.114,0.718,0.114,0.037,-46.330,10.830,-0.436
1747685391.70,0.053,0.084,0.047,0.702,0.062,0.071,-45.926,10.830,-0.503
1747685391.71,0.051,0.052,-0.037,0.675,0.049,0.107,-45.531,10.839,-0.536
1747685391.72,0.067,0.028,-0.049,0.692,-0.028,0.120,-45.135,10.838,-0.551
1747685391.73,0.041,0.000,-0.077,0.686,-0.105,0.131,-44.734,10.794,-0.556
1747685391.74,-0.013,-0.031,-0.087,0.676,-0.117,0.107,-44.339,10.723,-0.562
1747685391.75,-0.038,-0.038,-0.041,0.681,-0.062,0.066,-43.950,10.647,-0.542
1747685391.76,-0.037,-0.033,-0.004,0.709,0.025,0.047,-43.556,10.597,-0.601
1747685391.77,-0.041,-0.046,0.024,0.725,0.057,0.076,-43.148,10.586,-0.656
1747685391.78,-0.031,-0.057,0.052,0.746,0.074,0.107,-42.725,10.599,-0.691
1747685391.79,-0.000,-0.048,0.021,0.725,0.123,0.131,-42.298,10.646,-0.705
1747685391.80,0.023,-0.054,-0.029,0.660,0.117,0.155,-41.895,10.725,-0.697
1747685391.81,0.039,-0.057,-0.055,0.627,0.070,0.193,-41.517,10.805,-0.658
1747685391.82,0.043,-0.059,-0.064,0.625,-0.016,0.198,-41.146,10.861,-0.597
1747685391.83,0.023,-0.069,-0.047,0.665,-0.034,0.145,-40.767,10.869,-0.559
1747685391.84,-0.019,-0.077,-0.052,0.686,0.037,0.084,-40.376,10.864,-0.569
1747685391.85,-0.050,-0.091,-0.051,0.715,0.067,0.046,-39.976,10.860,-0.555
1747685391.86,-0.058,-0.090,-0.038,0.755,0.071,0.047,-39.559,10.860,-0.626
1747685391.87,-0.058,-0.084,0.009,0.776,0.004,0.069,-39.122,10.838,-0.583
1747685391.88,-0.031,-0.049,0.023,0.801,0.026,0.080,-38.672,10.811,-0.637
1747685391.89,-0.001,-0.013,0.009,0.815,0.072,0.064,-38.211,10.806,-0.582
1747685391.90,0.010,-0.008,0.003,0.781,0.019,0.106,-37.753,10.797,-0.631
1747685391.91,0.040,-0.003,-0.010,0.729,0.024,0.125,-37.316,10.795,-0.541
1747685391.92,0.048,0.000,0.008,0.686,0.027,0.105,-36.908,10.802,-0.559
1747685391.93,0.027,-0.008,0.003,0.671,0.020,0.133,-36.516,10.812,-0.453
1747685391.94,0.039,-0.011,0.006,0.688,-0.005,0.180,-36.120,10.825,-0.435
1747685391.95,0.060,0.006,0.013,0.710,-0.037,0.206,-35.707,10.841,-0.265
1747685391.96,0.078,0.043,0.031,0.738,-0.103,0.170,-35.282,10.823,-0.228
1747685391.97,0.067,0.082,0.032,0.790,-0.147,0.146,-34.837,10.754,-0.096
1747685391.98,0.041,0.085,0.052,0.843,-0.249,0.133,-34.363,10.643,-0.105
1747685391.99,0.015,0.062,0.024,0.849,-0.270,0.138,-33.873,10.483,0.008
1747685392.00,0.022,0.058,-0.002,0.866,-0.262,0.133,-33.377,10.322,-0.006
1747685392.01,0.023,0.031,0.018,0.853,-0.213,0.110,-32.879,10.175,0.095
1747685392.02,-0.004,0.004,0.012,0.830,-0.169,0.087,-32.397,10.043,0.058
1747685392.03,-0.027,-0.011,0.016,0.817,-0.075,0.085,-31.925,9.954,0.154
1747685392.04,-0.077,-0.027,0.019,0.818,0.010,0.032,-31.458,9.908,0.098
1747685392.05,-0.135,-0.042,-0.001,0.805,0.110,0.016,-31.000,9.902,0.178
1747685392.06,-0.121,-0.031,-0.005,0.786,0.171,0.033,-30.551,9.946,0.101
1747685392.07,-0.062,-0.002,0.012,0.797,0.120,0.056,-30.102,10.002,0.198
1747685392.08,0.005,0.033,0.008,0.812,0.023,0.058,-29.644,10.016,0.143
1747685392.09,0.053,0.081,0.008,0.846,-0.049,0.040,-29.175,9.979,0.252
1747685392.10,0.089,0.115,0.039,0.913,-0.130,0.007,-28.678,9.885,0.169
1747685392.11,0.095,0.135,0.045,0.972,-0.163,-0.022,-28.148,9.746,0.234
1747685392.12,0.058,0.127,0.047,1.004,-0.113,-0.049,-27.594,9.612,0.106
1747685392.13,-0.018,0.083,0.053,0.999,-0.116,-0.088,-27.036,9.476,0.137
1747685392.14,-0.077,0.039,0.025,0.946,-0.076,-0.084,-26.494,9.346,-0.021
1747685392.15,-0.074,0.007,0.007,0.918,0.014,-0.085,-25.979,9.265,0.012
1747685392.16,-0.050,-0.006,0.008,0.901,0.060,-0.089,-25.473,9.223,-0.139
1747685392.17,-0.047,-0.014,0.001,0.875,0.102,-0.040,-24.978,9.213,-0.088
1747685392.18,0.002,0.012,0.002,0.849,0.065,0.027,-24.494,9.223,-0.178
1747685392.19,0.037,0.054,0.008,0.876,-0.002,-0.012,-24.009,9.212,-0.066
1747685392.20,0.063,0.095,0.012,0.929,-0.068,-0.037,-23.504,9.146,-0.173
1747685392.21,0.085,0.104,0.039,1.024,-0.160,-0.031,-22.957,9.035,-0.117
1747685392.22,0.093,0.086,0.067,1.119,-0.178,-0.040,-22.355,8.889,-0.242
1747685392.23,0.095,0.072,0.070,1.134,-0.165,-0.051,-21.721,8.740,-0.186
1747685392.24,0.061,0.041,0.065,1.105,-0.110,-0.045,-21.093,8.613,-0.318
1747685392.25,0.014,0.002,0.028,1.073,-0.049,-0.045,-20.481,8.522,-0.253
1747685392.26,-0.040,-0.034,0.001,1.032,0.018,-0.032,-19.889,8.470,-0.373
1747685392.27,-0.097,-0.060,-0.012,1.004,0.081,-0.010,-19.316,8.464,-0.277
1747685392.28,-0.095,-0.053,-0.023,1.029,0.158,0.012,-18.743,8.506,-0.366
1747685392.29,-0.056,-0.019,-0.014,1.046,0.194,-0.014,-18.156,8.582,-0.268
1747685392.30,0.019,0.029,-0.003,1.042,0.096,-0.046,-17.568,8.634,-0.384
1747685392.31,0.077,0.070,-0.004,1.058,-0.044,-0.006,-16.978,8.615,-0.302
1747685392.32,0.124,0.107,0.022,1.109,-0.131,-0.002,-16.367,8.534,-0.404
1747685392.33,0.137,0.104,0.071,1.131,-0.198,0.040,-15.730,8.416,-0.289
1747685392.34,0.118,0.068,0.052,1.120,-0.255,0.049,-15.090,8.266,-0.359
1747685392.35,0.061,0.031,0.019,1.124,-0.215,0.063,-14.451,8.111,-0.206
1747685392.36,0.004,-0.012,0.021,1.112,-0.058,0.054,-13.814,8.016,-0.265
1747685392.37,-0.047,-0.060,0.005,1.057,0.060,0.071,-13.193,8.009,-0.106
1747685392.38,-0.099,-0.096,-0.046,1.008,0.123,0.101,-12.603,8.053,-0.139
1747685392.39,-0.095,-0.095,-0.091,0.981,0.202,0.114,-12.033,8.143,0.074
1747685392.40,-0.059,-0.140,-0.053,0.984,0.247,0.097,-11.469,8.270,0.053
1747685392.41,0.009,-0.129,-0.026,0.958,0.156,0.112,-10.910,8.384,0.261
1747685392.42,0.062,-0.068,-0.036,0.937,0.042,0.122,-10.367,8.441,0.250
1747685392.43,0.096,-0.001,0.012,0.937,-0.024,0.158,-9.825,8.444,0.494
1747685392.44,0.090,0.053,0.042,0.938,-0.067,0.203,-9.282,8.423,0.517
1747685392.45,0.075,0.056,0.031,0.957,-0.107,0.249,-8.727,8.379,0.798
1747685392.46,0.054,0.056,0.035,0.956,-0.102,0.294,-8.165,8.328,1.134
1747685392.47,0.041,0.079,0.046,0.977,-0.043,0.281,-7.594,8.297,1.218
1747685392.48,0.000,0.071,0.030,0.962,0.061,0.267,-7.022,8.311,1.551
1747685392.49,-0.062,-0.009,0.004,0.945,0.201,0.260,-6.462,8.394,1.621
1747685392.50,-0.071,-0.039,-0.045,0.925,0.277,0.251,-5.911,8.539,1.939
1747685392.51,-0.079,-0.028,-0.075,0.905,0.312,0.235,-5.376,8.715,1.998
1747685392.52,-0.075,0.010,-0.067,0.927,0.278,0.228,-4.840,8.892,2.316
1747685392.53,-0.045,0.070,-0.009,0.941,0.197,0.218,-4.291,9.032,2.359
1747685392.54,-0.015,0.131,0.023,0.960,0.116,0.184,-3.738,9.124,2.642
1747685392.55,0.014,0.144,0.030,0.990,0.017,0.156,-3.174,9.164,2.652
1747685392.56,0.007,0.131,0.048,0.981,-0.055,0.121,-2.605,9.149,2.906
1747685392.57,-0.026,0.038,0.008,1.001,-0.052,0.120,-2.037,9.117,2.883
1747685392.58,-0.041,-0.052,-0.008,1.043,-0.007,0.110,-1.450,9.096,3.118
1747685392.59,-0.057,-0.075,-0.014,1.064,0.071,0.060,-0.847,9.113,3.073
1747685392.60,-0.045,-0.055,-0.044,1.069,0.147,0.046,-0.240,9.178,3.240
1747685392.61,-0.026,-0.029,-0.046,1.059,0.216,0.071,0.366,9.283,3.180
1747685392.62,-0.019,0.016,-0.024,1.047,0.285,0.083,0.966,9.425,3.353
1747685392.63,-0.020,0.002,-0.008,1.031,0.343,0.087,1.559,9.607,3.300
1747685392.64,0.010,0.027,-0.015,1.023,0.348,0.124,2.148,9.810,3.494
1747685392.65,0.034,0.077,-0.010,0.998,0.267,0.159,2.731,9.988,3.476
1747685392.66,0.006,0.140,0.035,0.987,0.204,0.166,3.306,10.121,3.706
1747685392.67,-0.011,0.170,0.015,0.993,0.130,0.115,3.877,10.219,3.684
1747685392.68,0.017,0.134,-0.049,0.996,0.053,0.134,4.446,10.270,3.893
1747685392.69,0.037,0.059,-0.094,1.014,0.069,0.072,5.022,10.303,3.851
1747685392.70,0.017,-0.041,-0.094,1.035,0.151,0.056,5.604,10.372,4.002
1747685392.71,-0.031,-0.090,-0.055,1.027,0.257,0.042,6.191,10.497,3.922
1747685392.72,-0.115,-0.086,-0.035,0.989,0.298,0.043,6.760,10.668,4.061
1747685392.73,-0.153,-0.016,-0.042,0.999,0.288,0.050,7.323,10.846,3.983
1747685392.74,-0.135,0.090,-0.027,0.999,0.237,0.023,7.888,11.008,4.111
1747685392.75,-0.097,0.162,-0.009,1.029,0.144,-0.010,8.453,11.135,4.003
1747685392.76,-0.045,0.181,-0.025,1.072,0.019,-0.015,9.041,11.201,4.100
1747685392.77,0.011,0.168,-0.037,1.017,-0.075,-0.088,9.623,11.207,3.955
1747685392.78,0.056,0.134,-0.056,1.061,-0.199,-0.113,10.188,11.161,4.004
1747685392.79,0.093,0.041,-0.119,1.172,-0.293,-0.008,10.803,11.047,3.842
1747685392.80,0.073,-0.229,-0.166,1.010,-0.216,-0.085,11.421,10.949,3.901
1747685392.81,0.002,-0.227,-0.066,0.978,-0.075,-0.112,11.958,10.910,3.738
1747685392.82,0.068,0.044,-0.008,0.996,0.045,-0.125,12.503,10.934,3.778
1747685392.83,-0.030,0.083,-0.066,0.959,0.267,-0.116,13.037,11.065,3.596
1747685392.84,-0.081,0.050,0.040,0.940,0.337,-0.049,13.561,11.278,3.650
1747685392.85,-0.058,-0.010,0.073,0.921,0.299,0.004,14.079,11.490,3.528
1747685392.86,0.053,0.013,0.048,0.921,0.176,0.048,14.599,11.651,3.664
1747685392.87,0.168,0.040,-0.014,0.889,0.003,0.084,15.112,11.720,3.594
1747685392.88,0.226,0.051,-0.078,0.893,-0.106,0.127,15.625,11.701,3.780
1747685392.89,0.216,0.008,-0.117,0.858,-0.145,0.136,16.128,11.633,3.754
1747685392.90,0.131,-0.001,-0.125,0.817,-0.081,0.128,16.611,11.571,3.953
1747685392.91,0.024,-0.063,-0.118,0.784,0.056,0.135,17.074,11.568,3.933
1747685392.92,-0.057,-0.096,-0.074,0.758,0.266,0.153,17.525,11.663,4.139
1747685392.93,-0.090,-0.092,-0.020,0.708,0.382,0.142,17.952,11.854,4.139
1747685392.94,-0.087,-0.009,0.010,0.663,0.348,0.119,18.350,12.068,4.347
1747685392.95,-0.059,0.043,-0.022,0.626,0.290,0.136,18.725,12.255,4.338
1747685392.96,0.032,-0.000,-0.049,0.589,0.163,0.157,19.082,12.384,4.571
1747685392.97,0.100,0.014,-0.097,0.557,0.000,0.169,19.419,12.422,4.594
1747685392.98,0.098,0.046,-0.180,0.516,-0.065,0.087,19.734,12.396,4.826
1747685392.99,0.017,-0.018,-0.201,0.477,-0.031,0.049,20.017,12.373,4.800
1747685393.00,-0.061,-0.047,-0.176,0.439,0.052,0.022,20.276,12.394,4.989
1747685393.01,-0.086,-0.047,-0.171,0.354,0.116,-0.028,20.497,12.460,4.935
1747685393.02,-0.091,-0.074,-0.152,0.267,0.167,-0.030,20.667,12.562,5.099
1747685393.03,-0.070,-0.100,-0.121,0.178,0.198,-0.016,20.789,12.685,5.054
1747685393.04,-0.012,-0.107,-0.115,0.074,0.166,-0.002,20.857,12.798,5.239
1747685393.05,0.030,-0.100,-0.150,-0.016,0.162,0.003,20.872,12.890,5.237
1747685393.06,0.044,-0.109,-0.177,-0.105,0.202,-0.015,20.839,12.992,5.454
1747685393.07,0.034,-0.100,-0.165,-0.203,0.191,-0.026,20.749,13.104,5.462
1747685393.08,0.036,-0.090,-0.183,-0.283,0.159,-0.009,20.612,13.195,5.702
1747685393.09,0.042,-0.108,-0.183,-0.372,0.140,-0.013,20.430,13.266,5.741
1747685393.10,0.030,-0.116,-0.153,-0.477,0.133,-0.017,20.192,13.327,5.990
1747685393.11,0.031,-0.118,-0.164,-0.580,0.121,0.002,19.898,13.376,6.060
1747685393.12,0.040,-0.142,-0.159,-0.684,0.122,0.040,19.550,13.411,6.363
1747685393.13,0.045,-0.161,-0.133,-0.786,0.121,0.067,19.149,13.436,6.498
1747685393.14,0.059,-0.168,-0.139,-0.883,0.096,0.089,18.696,13.446,6.854
1747685393.15,0.066,-0.162,-0.151,-0.971,0.061,0.090,18.193,13.433,7.036
1747685393.16,0.054,-0.147,-0.134,-1.033,0.065,0.088,17.648,13.409,7.420
1747685393.17,0.051,-0.126,-0.104,-1.095,0.016,0.084,17.068,13.375,7.618
1747685393.18,0.058,-0.098,-0.120,-1.134,-0.016,0.079,16.459,13.314,8.002
1747685393.19,0.054,-0.070,-0.130,-1.173,-0.025,0.067,15.826,13.248,8.202
1747685393.20,0.042,-0.050,-0.105,-1.210,-0.025,0.042,15.172,13.181,8.584
1747685393.21,0.026,-0.038,-0.106,-1.248,-0.017,0.026,14.494,13.122,8.768
1747685393.22,0.019,-0.044,-0.100,-1.280,0.003,0.020,13.793,13.073,9.130
1747685393.23,0.022,-0.043,-0.087,-1.310,0.015,0.033,13.077,13.036,9.317
1747685393.24,0.043,-0.031,-0.102,-1.334,0.004,0.025,12.344,13.000,9.677
1747685393.25,0.038,-0.017,-0.088,-1.348,0.003,0.032,11.601,12.962,10.021
1747685393.26,0.002,-0.012,-0.040,-1.352,0.008,0.054,10.855,12.925,10.221
1747685393.27,0.015,-0.029,-0.031,-1.366,0.034,0.060,10.106,12.900,10.574
1747685393.28,0.069,-0.042,-0.033,-1.400,0.060,0.083,9.347,12.891,10.791
1747685393.29,0.109,-0.050,-0.012,-1.429,0.083,0.124,8.572,12.892,11.175
1747685393.30,0.103,-0.057,-0.023,-1.450,0.158,0.143,7.787,12.923,11.436
1747685393.31,0.062,-0.048,-0.026,-1.453,0.219,0.148,6.997,12.997,11.852
1747685393.32,0.020,-0.031,-0.037,-1.482,0.231,0.139,6.198,13.096,12.122
1747685393.33,-0.006,-0.010,-0.049,-1.505,0.194,0.136,5.385,13.192,12.523
1747685393.34,0.001,-0.008,-0.038,-1.517,0.148,0.169,4.565,13.265,12.805
1747685393.35,0.041,-0.025,-0.018,-1.534,0.093,0.194,3.739,13.312,13.235
1747685393.36,0.078,-0.044,-0.014,-1.527,0.084,0.209,2.917,13.343,13.550
1747685393.37,0.073,-0.060,-0.029,-1.539,0.121,0.180,2.093,13.386,13.985
1747685393.38,0.024,-0.071,-0.009,-1.507,0.180,0.115,1.265,13.464,14.271
1747685393.39,-0.028,-0.081,0.002,-1.505,0.205,0.079,0.443,13.572,14.644
1747685393.40,-0.062,-0.074,-0.032,-1.469,0.167,0.007,-0.376,13.680,14.870
1747685393.41,-0.099,-0.038,-0.066,-1.521,0.161,-0.049,-1.208,13.775,15.172
1747685393.42,-0.107,0.003,-0.055,-1.504,0.107,-0.097,-2.061,13.859,15.339
1747685393.43,-0.061,0.010,-0.038,-1.558,0.028,-0.061,-2.921,13.903,15.616
1747685393.44,0.001,-0.008,-0.058,-1.548,0.001,-0.051,-3.791,13.917,15.800
1747685393.45,0.024,-0.014,-0.049,-1.512,0.039,-0.111,-4.650,13.941,16.075
1747685393.46,-0.018,-0.006,0.013,-1.499,0.088,-0.209,-5.506,13.987,16.194
1747685393.47,-0.082,-0.014,0.028,-1.487,0.143,-0.279,-6.367,14.061,16.354
1747685393.48,-0.134,-0.050,0.013,-1.501,0.197,-0.290,-7.232,14.164,16.402
1747685393.49,-0.159,-0.080,-0.042,-1.568,0.231,-0.273,-8.120,14.294,16.532
1747685393.50,-0.132,-0.093,-0.061,-1.613,0.284,-0.237,-9.037,14.453,16.617
1747685393.51,-0.050,-0.085,-0.020,-1.595,0.303,-0.194,-9.957,14.643,16.806
1747685393.52,0.039,-0.063,0.023,-1.571,0.263,-0.190,-10.858,14.828,16.934
1747685393.53,0.081,-0.027,0.026,-1.550,0.206,-0.241,-11.752,14.984,17.108
1747685393.54,0.077,0.016,0.022,-1.517,0.163,-0.293,-12.638,15.106,17.189
1747685393.55,0.031,0.036,0.009,-1.532,0.167,-0.321,-13.523,15.213,17.286
1747685393.56,-0.029,0.027,0.008,-1.568,0.147,-0.313,-14.424,15.319,17.344
1747685393.57,-0.056,-0.007,-0.028,-1.613,0.130,-0.270,-15.344,15.420,17.457
1747685393.58,-0.030,-0.047,-0.058,-1.627,0.131,-0.223,-16.274,15.525,17.574
1747685393.59,0.014,-0.072,-0.059,-1.604,0.131,-0.224,-17.198,15.636,17.720
1747685393.60,0.013,-0.079,-0.021,-1.583,0.138,-0.249,-18.109,15.751,17.842
1747685393.61,-0.022,-0.075,0.047,-1.557,0.169,-0.315,-19.017,15.867,17.936
1747685393.62,-0.065,-0.069,0.093,-1.484,0.187,-0.349,-19.905,15.990,17.994
1747685393.63,-0.095,-0.072,0.071,-1.486,0.186,-0.344,-20.772,16.114,18.028
1747685393.64,-0.078,-0.077,0.014,-1.509,0.115,-0.281,-21.644,16.228,18.098
1747685393.65,-0.021,-0.090,-0.010,-1.526,0.102,-0.212,-22.515,16.330,18.194
1747685393.66,0.035,-0.098,0.018,-1.514,0.169,-0.163,-23.380,16.469,18.351
1747685393.67,0.070,-0.082,0.065,-1.481,0.172,-0.179,-24.225,16.636,18.463
1747685393.68,0.050,-0.054,0.018,-1.476,0.175,-0.214,-25.066,16.793,18.612
1747685393.69,-0.003,-0.033,-0.007,-1.470,0.290,-0.242,-25.910,16.980,18.689
1747685393.70,-0.021,-0.040,0.035,-1.478,0.380,-0.259,-26.757,17.229,18.811
1747685393.71,-0.016,-0.050,0.041,-1.485,0.355,-0.248,-27.607,17.499,18.882
1747685393.72,-0.039,-0.074,0.005,-1.512,0.296,-0.233,-28.465,17.753,19.028
1747685393.73,-0.057,-0.082,0.002,-1.517,0.234,-0.207,-29.328,17.986,19.114
1747685393.74,-0.048,-0.073,0.041,-1.514,0.109,-0.178,-30.185,18.179,19.303
1747685393.75,-0.026,-0.046,0.040,-1.496,-0.022,-0.156,-31.031,18.308,19.427
1747685393.76,0.010,-0.002,0.014,-1.439,-0.117,-0.163,-31.857,18.373,19.637
1747685393.77,0.044,0.038,0.003,-1.361,-0.093,-0.219,-32.649,18.403,19.717
1747685393.78,0.056,0.068,-0.008,-1.319,-0.019,-0.310,-33.421,18.437,19.834
1747685393.79,0.020,0.081,-0.019,-1.313,-0.037,-0.387,-34.196,18.457,19.777
1747685393.80,-0.071,0.058,-0.043,-1.354,-0.038,-0.408,-34.990,18.449,19.805
1747685393.81,-0.139,0.005,-0.024,-1.366,0.016,-0.385,-35.800,18.463,19.727
1747685393.82,-0.123,-0.050,0.008,-1.381,0.055,-0.349,-36.609,18.521,19.788
1747685393.83,-0.061,-0.087,0.004,-1.417,0.057,-0.293,-37.427,18.615,19.761
1747685393.84,0.015,-0.093,0.020,-1.437,-0.005,-0.225,-38.246,18.726,19.914
1747685393.85,0.090,-0.087,0.029,-1.462,-0.070,-0.171,-39.066,18.830,19.980
1747685393.86,0.127,-0.059,0.032,-1.447,-0.078,-0.164,-39.884,18.933,20.215
1747685393.87,0.125,-0.026,0.030,-1.398,-0.125,-0.215,-40.688,19.017,20.280
1747685393.88,0.068,0.003,0.030,-1.353,-0.165,-0.301,-41.478,19.036,20.435
1747685393.89,-0.013,0.007,0.016,-1.339,-0.169,-0.355,-42.263,19.001,20.369
1747685393.90,-0.064,-0.005,0.006,-1.371,-0.126,-0.353,-43.061,18.971,20.450
1747685393.91,-0.072,-0.016,0.021,-1.393,-0.066,-0.312,-43.869,18.988,20.390
1747685393.92,-0.037,-0.027,0.045,-1.422,-0.008,-0.246,-44.679,19.076,20.545
1747685393.93,0.036,-0.016,0.070,-1.460,-0.016,-0.186,-45.497,19.225,20.586
1747685393.94,0.118,-0.006,0.068,-1.484,-0.107,-0.091,-46.318,19.401,20.877
1747685393.95,0.184,0.013,0.071,-1.470,-0.232,0.018,-47.122,19.583,21.073
1747685393.96,0.231,0.026,0.081,-1.398,-0.291,0.064,-47.886,19.758,21.520
1747685393.97,0.214,0.048,0.058,-1.320,-0.315,0.020,-48.607,19.907,21.764
1747685393.98,0.141,0.084,0.016,-1.268,-0.309,-0.100,-49.308,19.996,22.118
1747685393.99,0.027,0.078,0.002,-1.242,-0.326,-0.191,-50.011,20.005,22.184
1747685394.00,-0.092,0.042,-0.013,-1.257,-0.345,-0.199,-50.720,19.967,22.394
1747685394.01,-0.146,-0.021,-0.006,-1.290,-0.223,-0.136,-51.437,20.001,22.464
1747685394.02,-0.100,-0.078,0.051,-1.292,-0.212,-0.090,-52.153,20.128,22.777
1747685394.03,-0.030,-0.089,0.053,-1.275,-0.295,-0.075,-52.857,20.259,22.939
1747685394.04,0.027,-0.064,0.027,-1.252,-0.345,-0.088,-53.550,20.356,23.290
1747685394.05,0.080,-0.022,0.025,-1.179,-0.352,-0.156,-54.225,20.397,23.399
1747685394.06,0.086,0.019,0.021,-1.106,-0.353,-0.219,-54.872,20.375,23.619
1747685394.07,0.031,0.072,-0.020,-1.124,-0.398,-0.296,-55.516,20.279,23.571
1747685394.08,-0.074,0.089,-0.010,-1.182,-0.369,-0.307,-56.197,20.147,23.477
1747685394.09,-0.187,0.077,0.006,-1.183,-0.184,-0.308,-56.892,20.092,23.603
1747685394.10,-0.252,0.045,0.021,-1.171,-0.041,-0.349,-57.587,20.118,23.479
1747685394.11,-0.274,0.002,0.063,-1.180,0.085,-0.382,-58.290,20.183,23.543
1747685394.12,-0.220,-0.027,0.075,-1.180,0.197,-0.374,-58.996,20.316,23.370
1747685394.13,-0.078,-0.032,0.074,-1.248,0.205,-0.339,-59.714,20.517,23.466
1747685394.14,0.052,-0.022,0.101,-1.370,0.149,-0.273,-60.475,20.789,23.425
1747685394.15,0.155,-0.004,0.142,-1.422,0.036,-0.279,-61.280,21.098,23.715
1747685394.16,0.218,0.061,0.136,-1.375,-0.161,-0.307,-62.087,21.310,23.750
1747685394.17,0.241,0.097,0.054,-1.329,-0.406,-0.287,-62.866,21.383,24.015
1747685394.18,0.241,0.086,-0.030,-1.311,-0.555,-0.261,-63.625,21.361,24.048
1747685394.19,0.247,0.058,-0.037,-1.299,-0.542,-0.280,-64.375,21.310,24.341
1747685394.20,0.224,0.023,0.017,-1.257,-0.546,-0.337,-65.119,21.218,24.318
1747685394.21,0.155,-0.001,0.018,-1.239,-0.604,-0.362,-65.855,21.034,24.478
1747685394.22,0.101,-0.031,-0.021,-1.268,-0.627,-0.300,-66.592,20.855,24.417
1747685394.23,0.092,-0.062,0.006,-1.272,-0.666,-0.216,-67.322,20.773,24.728
1747685394.23,0.099,-0.088,0.027,-1.294,-0.783,-0.166,-68.045,20.747,24.883
1747685394.24,0.078,-0.094,0.002,-1.287,-0.828,-0.150,-68.769,20.733,25.368
1747685394.25,0.046,-0.096,-0.019,-1.216,-0.691,-0.151,-69.466,20.749,25.607
1747685394.26,0.034,-0.108,-0.034,-1.204,-0.572,-0.166,-70.142,20.827,26.069
1747685394.27,0.025,-0.115,-0.065,-1.202,-0.625,-0.092,-70.812,20.979,26.339
1747685394.28,0.012,-0.111,-0.122,-1.209,-0.705,-0.008,-71.464,21.245,27.024
1747685394.30,0.011,-0.114,-0.123,-1.230,-0.692,0.020,-72.111,21.632,27.602
1747685394.30,0.006,-0.083,-0.081,-1.236,-0.640,-0.021,-72.765,22.089,28.481
1747685394.31,-0.043,-0.052,-0.060,-1.223,-0.596,-0.085,-73.427,22.514,29.042
1747685394.32,-0.081,-0.052,-0.080,-1.210,-0.539,-0.088,-74.088,22.953,29.838
1747685394.33,-0.070,-0.062,-0.103,-1.179,-0.554,-0.085,-74.734,23.452,30.434
1747685394.34,-0.038,-0.068,-0.074,-1.137,-0.646,-0.103,-75.362,23.927,31.283
1747685394.35,-0.038,-0.052,-0.072,-1.093,-0.643,-0.135,-75.971,24.320,31.840
1747685394.36,-0.037,-0.022,-0.067,-1.070,-0.658,-0.117,-76.564,24.735,32.646
1747685394.37,-0.044,0.003,-0.063,-1.025,-0.663,-0.112,-77.135,25.189,33.263
1747685394.38,-0.049,0.014,-0.059,-0.985,-0.633,-0.146,-77.683,25.634,34.097
1747685394.39,-0.049,0.020,-0.009,-0.963,-0.645,-0.183,-78.227,25.997,34.597
1747685394.40,-0.065,0.021,-0.038,-0.927,-0.606,-0.204,-78.760,26.326,35.298
1747685394.41,-0.091,-0.007,-0.072,-0.927,-0.533,-0.226,-79.285,26.647,35.717
1747685394.42,-0.113,-0.052,-0.056,-1.027,-0.500,-0.193,-79.835,27.119,36.495
1747685394.43,-0.107,-0.059,-0.040,-1.059,-0.467,-0.202,-80.420,27.859,37.296
1747685394.44,-0.084,-0.055,-0.048,-0.974,-0.487,-0.215,-80.990,28.631,38.350
1747685394.45,-0.054,-0.072,-0.065,-0.894,-0.519,-0.215,-81.515,29.311,39.086
1747685394.46,-0.017,-0.054,-0.101,-0.840,-0.425,-0.168,-81.999,30.067,40.128
1747685394.47,0.012,-0.011,-0.056,-0.823,-0.273,-0.121,-82.447,31.127,41.150
1747685394.48,-0.012,0.020,0.005,-0.824,-0.253,-0.167,-82.891,32.386,42.565
1747685394.49,-0.083,0.033,-0.054,-0.762,-0.292,-0.228,-83.335,33.488,43.588
1747685394.50,-0.134,0.017,-0.130,-0.659,-0.269,-0.248,-83.749,34.317,44.587
1747685394.51,-0.131,-0.015,-0.107,-0.607,-0.186,-0.238,-84.123,35.014,45.189
1747685394.52,-0.115,-0.039,-0.082,-0.639,0.031,-0.226,-84.488,35.952,46.178
1747685394.53,-0.093,-0.040,-0.056,-0.697,0.175,-0.225,-84.871,37.347,47.277
1747685394.54,-0.085,-0.017,-0.023,-0.729,0.195,-0.247,-85.275,39.181,49.012
1747685394.55,-0.097,-0.006,-0.023,-0.723,0.266,-0.294,-85.694,41.211,50.683
1747685394.56,-0.073,-0.011,-0.037,-0.686,0.234,-0.266,-86.101,43.466,52.794
1747685394.57,-0.011,-0.019,-0.038,-0.639,0.128,-0.200,-86.463,46.222,55.236
1747685394.58,0.051,-0.018,-0.041,-0.585,0.091,-0.171,-86.775,49.480,58.440
1747685394.59,0.097,-0.014,-0.027,-0.533,0.062,-0.170,-87.051,53.038,61.733
1747685394.60,0.101,-0.005,-0.021,-0.476,0.042,-0.196,-87.302,56.646,65.316
1747685394.61,0.062,-0.007,-0.055,-0.421,-0.005,-0.218,-87.536,60.107,68.767
1747685394.62,0.017,-0.021,-0.083,-0.421,-0.026,-0.250,-87.766,63.676,72.351
1747685394.63,-0.001,0.007,-0.079,-0.446,0.001,-0.258,-88.002,68.176,76.862
1747685394.64,0.023,0.044,-0.046,-0.447,-0.043,-0.248,-88.224,74.058,82.756
1747685394.65,0.049,0.043,-0.037,-0.441,-0.129,-0.190,-88.400,81.506,90.259
1747685394.66,0.068,0.010,-0.054,-0.426,-0.109,-0.147,-88.512,90.391,99.219
1747685394.67,0.091,-0.042,-0.042,-0.398,-0.035,-0.124,-88.567,99.779,108.651
1747685394.68,0.093,-0.063,-0.029,-0.386,-0.057,-0.124,-88.578,109.202,118.097
1747685394.69,0.043,-0.036,-0.031,-0.314,-0.163,-0.154,-88.569,117.834,126.796
1747685394.70,-0.047,-0.004,-0.066,-0.261,-0.173,-0.181,-88.566,125.292,134.357
1747685394.71,-0.103,0.006,-0.060,-0.257,-0.147,-0.206,-88.559,132.603,141.760
1747685394.72,-0.108,0.013,-0.046,-0.228,-0.062,-0.223,-88.544,139.867,149.090
1747685394.73,-0.089,0.008,-0.058,-0.171,0.094,-0.222,-88.529,146.599,155.816
1747685394.74,-0.058,0.019,-0.047,-0.072,0.250,-0.193,-88.530,152.126,161.246
1747685394.75,-0.041,0.046,-0.057,0.020,0.375,-0.115,-88.557,155.692,164.635
1747685394.76,-0.037,0.044,-0.078,0.069,0.484,-0.015,-88.596,156.932,165.628
1747685394.77,-0.031,0.022,-0.062,0.077,0.529,0.099,-88.627,155.566,163.969
1747685394.78,-0.029,-0.001,-0.012,0.007,0.570,0.158,-88.617,152.536,160.624
1747685394.79,-0.070,-0.026,0.040,-0.091,0.680,0.116,-88.556,150.512,158.243
1747685394.80,-0.109,-0.066,0.069,-0.152,0.752,0.039,-88.472,150.783,158.103
1747685394.81,-0.067,-0.099,0.056,-0.205,0.694,0.007,-88.378,152.574,159.477
1747685394.82,0.068,-0.082,0.019,-0.209,0.559,-0.002,-88.269,154.741,161.285
1747685394.83,0.228,-0.010,0.019,-0.128,0.356,-0.019,-88.180,156.448,162.728
1747685394.84,0.312,0.088,0.048,-0.031,0.114,-0.072,-88.149,157.790,163.937
1747685394.85,0.276,0.154,0.090,0.024,-0.117,-0.144,-88.171,159.647,165.796
1747685394.86,0.150,0.144,0.127,0.064,-0.303,-0.168,-88.225,161.960,168.231
1747685394.87,-0.012,0.057,0.129,0.059,-0.367,-0.151,-88.288,164.267,170.737
1747685394.88,-0.160,-0.037,0.124,-0.024,-0.259,-0.139,-88.320,166.676,173.330
1747685394.89,-0.262,-0.080,0.147,-0.125,-0.040,-0.147,-88.296,169.579,176.323
1747685394.90,-0.297,-0.074,0.160,-0.198,0.197,-0.156,-88.217,172.917,179.615
1747685394.91,-0.271,-0.045,0.164,-0.254,0.358,-0.155,-88.097,176.237,-177.225
1747685394.92,-0.212,-0.008,0.158,-0.309,0.461,-0.135,-87.940,179.102,-174.595
1747685394.93,-0.126,0.015,0.142,-0.353,0.499,-0.102,-87.749,-178.829,-172.800
1747685394.94,-0.038,0.024,0.106,-0.344,0.529,-0.092,-87.546,-177.358,-171.622
1747685394.95,0.033,0.011,0.082,-0.308,0.531,-0.091,-87.357,-176.121,-170.690
1747685394.96,0.077,-0.009,0.069,-0.269,0.484,-0.084,-87.190,-175.049,-169.908
1747685394.97,0.090,-0.022,0.037,-0.222,0.410,-0.094,-87.046,-174.055,-169.168
1747685394.98,0.093,-0.018,-0.002,-0.170,0.315,-0.103,-86.928,-173.019,-168.339
1747685394.99,0.090,-0.005,-0.037,-0.119,0.170,-0.108,-86.837,-171.975,-167.435
1747685395.00,0.079,0.006,-0.059,-0.073,0.016,-0.096,-86.775,-171.020,-166.529
1747685395.01,0.054,0.018,-0.075,-0.060,-0.047,-0.079,-86.731,-170.277,-165.774
1747685395.02,0.013,0.029,-0.053,-0.048,-0.079,-0.078,-86.693,-169.648,-165.108
1747685395.03,-0.043,0.021,-0.019,-0.038,-0.083,-0.079,-86.661,-169.016,-164.426
1747685395.04,-0.091,-0.001,-0.007,-0.058,-0.031,-0.074,-86.626,-168.398,-163.773
1747685395.05,-0.114,-0.026,0.022,-0.077,-0.014,-0.062,-86.579,-167.900,-163.263
1747685395.06,-0.120,-0.041,0.047,-0.078,0.012,-0.040,-86.529,-167.607,-162.965
1747685395.07,-0.109,-0.045,0.034,-0.081,0.090,-0.047,-86.480,-167.350,-162.737
1747685395.08,-0.077,-0.045,0.027,-0.095,0.164,-0.052,-86.426,-166.996,-162.455
1747685395.09,-0.029,-0.029,0.012,-0.105,0.236,-0.033,-86.364,-166.704,-162.277
1747685395.10,0.028,-0.004,0.002,-0.113,0.282,-0.025,-86.301,-166.548,-162.400
1747685395.11,0.060,0.019,0.011,-0.106,0.311,-0.034,-86.236,-166.345,-162.367
1747685395.12,0.065,0.033,0.014,-0.081,0.293,-0.029,-86.179,-166.064,-162.529
1747685395.13,0.061,0.032,0.005,-0.036,0.195,0.002,-86.144,-165.902,-162.510
1747685395.14,0.058,0.019,-0.010,0.004,0.064,0.021,-86.137,-165.950,-162.896
1747685395.15,0.054,0.006,-0.036,0.005,-0.014,0.017,-86.143,-166.061,-163.019
1747685395.16,0.049,-0.007,-0.039,-0.014,-0.027,0.007,-86.141,-166.146,-163.349
1747685395.17,0.044,-0.018,-0.027,-0.014,-0.061,0.007,-86.134,-166.237,-163.417
1747685395.18,0.034,-0.021,-0.022,0.014,-0.120,0.006,-86.133,-166.368,-163.743
1747685395.19,0.022,-0.006,-0.031,0.069,-0.167,0.005,-86.157,-166.440,-163.732
1747685395.20,0.011,0.011,-0.041,0.120,-0.194,0.030,-86.212,-166.499,-163.947
1747685395.21,-0.004,0.011,-0.039,0.168,-0.174,0.060,-86.298,-166.737,-164.077
1747685395.22,-0.024,0.002,-0.040,0.184,-0.097,0.068,-86.407,-167.064,-164.579
1747685395.23,-0.044,-0.012,-0.023,0.166,-0.018,0.059,-86.515,-167.355,-164.837
1747685395.24,-0.051,-0.026,-0.002,0.158,0.047,0.066,-86.616,-167.638,-165.367
1747685395.25,-0.039,-0.017,-0.006,0.141,0.077,0.087,-86.711,-168.057,-165.824
1747685395.26,-0.020,0.010,-0.002,0.120,0.093,0.097,-86.795,-168.696,-166.740
1747685395.27,-0.004,0.024,0.013,0.119,0.134,0.095,-86.875,-169.400,-167.509
1747685395.28,0.008,0.015,0.019,0.107,0.162,0.087,-86.950,-170.038,-168.455
1747685395.29,0.016,0.004,0.033,0.093,0.138,0.078,-87.017,-170.630,-169.135
1747685395.30,0.022,-0.010,0.036,0.097,0.104,0.065,-87.078,-171.105,-169.905
1747685395.31,0.030,-0.020,0.020,0.137,0.068,0.047,-87.149,-171.368,-170.218
1747685395.32,0.038,-0.021,0.006,0.183,0.018,0.042,-87.241,-171.440,-170.525
1747685395.33,0.041,-0.011,-0.003,0.216,-0.054,0.058,-87.357,-171.565,-170.641
1747685395.34,0.037,0.008,-0.008,0.232,-0.133,0.081,-87.489,-172.071,-171.309
1747685395.35,0.010,0.026,-0.015,0.245,-0.186,0.057,-87.628,-172.686,-171.833
1747685395.36,-0.044,0.034,-0.020,0.250,-0.165,0.017,-87.769,-172.862,-172.120
1747685395.37,-0.085,0.025,-0.016,0.237,-0.057,0.003,-87.905,-172.605,-171.799
1747685395.38,-0.102,0.002,0.015,0.225,0.047,0.012,-88.034,-172.266,-171.666
1747685395.39,-0.111,-0.026,0.036,0.216,0.136,0.024,-88.159,-172.053,-171.507
1747685395.40,-0.111,-0.041,0.032,0.211,0.186,0.022,-88.281,-171.860,-171.608
1747685395.41,-0.092,-0.025,0.024,0.187,0.190,0.031,-88.396,-171.737,-171.592
1747685395.42,-0.053,0.001,0.022,0.177,0.183,0.041,-88.500,-171.929,-172.084
1747685395.43,-0.007,0.017,0.034,0.191,0.150,0.040,-88.607,-172.192,-172.442
1747685395.44,0.026,0.017,0.030,0.214,0.132,0.041,-88.724,-172.365,-172.894
1747685395.45,0.036,0.015,0.023,0.238,0.128,0.040,-88.854,-172.439,-173.042
1747685395.46,0.027,0.001,0.024,0.257,0.130,0.016,-88.994,-172.061,-172.929
1747685395.47,0.011,-0.015,0.022,0.255,0.069,-0.002,-89.138,-170.651,-171.577
1747685395.48,-0.006,-0.007,0.013,0.211,-0.004,-0.002,-89.268,-168.573,-169.698
1747685395.49,-0.012,0.009,0.010,0.179,-0.042,0.002,-89.376,-166.628,-167.738
1747685395.50,0.004,0.006,0.011,0.162,-0.043,0.004,-89.467,-164.189,-165.457
1747685395.51,0.024,-0.008,0.010,0.146,-0.064,-0.003,-89.550,-161.095,-162.335
1747685395.52,0.033,-0.023,0.014,0.143,-0.116,0.006,-89.625,-157.372,-158.734
1747685395.53,0.041,-0.037,0.016,0.179,-0.169,0.016,-89.709,-152.097,-153.378
1747685395.54,0.052,-0.034,0.013,0.236,-0.232,0.028,-89.813,-139.185,-140.522
1747685395.55,0.052,-0.016,-0.002,0.291,-0.297,0.030,-89.893,-85.256,-86.441
1747685395.56,0.035,0.004,-0.018,0.344,-0.328,0.020,-89.789,-25.461,-26.634
1747685395.57,0.018,0.018,-0.033,0.359,-0.281,0.028,-89.604,-11.714,-12.711
1747685395.58,0.010,0.023,-0.004,0.353,-0.226,0.060,-89.406,-5.490,-6.507
1747685395.59,0.000,0.016,0.031,0.361,-0.216,0.073,-89.206,-1.406,-2.297
1747685395.60,-0.033,0.007,0.025,0.384,-0.153,0.074,-88.994,1.159,0.218
1747685395.61,-0.061,0.006,0.028,0.408,-0.032,0.075,-88.766,2.857,1.969
1747685395.62,-0.068,-0.003,0.047,0.430,0.057,0.073,-88.524,4.042,2.995
1747685395.63,-0.070,-0.012,0.048,0.425,0.119,0.077,-88.275,4.911,3.814
1747685395.64,-0.068,-0.002,0.053,0.408,0.145,0.075,-88.034,5.662,4.333
1747685395.65,-0.066,0.018,0.064,0.379,0.196,0.051,-87.806,6.113,4.551
1747685395.66,-0.053,0.028,0.055,0.353,0.261,0.053,-87.596,6.393,4.699
1747685395.67,-0.025,0.025,0.073,0.378,0.310,0.061,-87.387,6.761,4.771
1747685395.68,-0.006,-0.001,0.076,0.469,0.334,0.057,-87.146,7.046,4.872
1747685395.69,-0.007,-0.034,0.062,0.558,0.302,0.070,-86.847,7.198,4.700
1747685395.70,-0.020,-0.036,0.027,0.555,0.241,0.070,-86.525,7.350,4.698
1747685395.71,-0.038,-0.004,0.023,0.577,0.241,0.053,-86.202,7.384,4.454
1747685395.72,-0.058,0.026,0.036,0.608,0.280,0.022,-85.862,7.221,4.142
1747685395.73,-0.078,0.034,0.048,0.601,0.329,0.002,-85.517,6.926,3.547
1747685395.74,-0.100,0.029,0.059,0.631,0.421,-0.002,-85.170,6.632,3.039
1747685395.75,-0.115,0.017,0.051,0.689,0.534,-0.006,-84.794,6.379,2.387
1747685395.76,-0.111,-0.002,0.050,0.688,0.607,-0.013,-84.401,6.185,1.861
1747685395.77,-0.099,-0.019,0.068,0.651,0.593,-0.006,-84.023,6.079,1.281
1747685395.78,-0.096,-0.017,0.059,0.652,0.469,0.009,-83.655,6.023,0.918
1747685395.79,-0.100,-0.000,0.012,0.692,0.387,0.015,-83.274,5.980,0.521
1747685395.80,-0.101,0.017,-0.006,0.769,0.412,-0.018,-82.858,5.858,0.173
1747685395.81,-0.088,0.020,0.018,0.797,0.505,-0.073,-82.415,5.573,-0.491
1747685395.82,-0.070,0.017,0.013,0.786,0.575,-0.115,-81.968,5.177,-1.204
1747685395.83,-0.051,0.004,-0.022,0.722,0.634,-0.127,-81.544,4.779,-1.953
1747685395.84,-0.026,-0.018,-0.043,0.667,0.736,-0.106,-81.156,4.520,-2.610
1747685395.85,0.014,-0.038,0.008,0.730,0.786,-0.067,-80.767,4.460,-3.115
1747685395.86,0.042,-0.042,0.046,0.820,0.736,-0.050,-80.326,4.497,-3.521
1747685395.87,0.021,-0.020,0.027,0.823,0.630,-0.070,-79.858,4.484,-4.037
1747685395.88,-0.031,0.009,-0.004,0.760,0.524,-0.109,-79.410,4.339,-4.518
1747685395.89,-0.065,0.018,-0.057,0.688,0.485,-0.133,-79.005,4.096,-5.161
1747685395.90,-0.044,-0.003,-0.097,0.665,0.597,-0.140,-78.627,3.872,-5.699
1747685395.91,0.004,-0.032,-0.065,0.691,0.683,-0.131,-78.247,3.741,-6.304
1747685395.92,0.042,-0.046,-0.040,0.745,0.662,-0.089,-77.842,3.695,-6.743
1747685395.93,0.051,-0.052,-0.071,0.785,0.707,-0.027,-77.406,3.810,-7.127
1747685395.94,0.069,-0.046,-0.060,0.793,0.720,0.002,-76.958,4.060,-7.290
1747685395.95,0.089,-0.026,-0.049,0.786,0.664,0.006,-76.506,4.325,-7.522
1747685395.96,0.075,0.004,-0.056,0.743,0.542,0.005,-76.069,4.542,-7.657
1747685395.97,0.045,0.019,-0.036,0.717,0.437,0.029,-75.654,4.717,-7.847
1747685395.98,0.024,0.001,-0.013,0.726,0.413,0.047,-75.243,4.906,-7.900
1747685395.99,0.015,-0.032,0.011,0.766,0.400,0.052,-74.816,5.111,-8.021
1747685396.00,0.011,-0.052,-0.012,0.807,0.350,0.048,-74.364,5.273,-8.074
1747685396.01,0.024,-0.049,-0.063,0.787,0.263,0.065,-73.907,5.411,-8.206
1747685396.02,0.076,-0.041,-0.071,0.751,0.207,0.089,-73.465,5.545,-8.201
1747685396.03,0.145,-0.032,-0.057,0.708,0.214,0.102,-73.046,5.719,-8.235
1747685396.04,0.183,-0.032,0.014,0.729,0.124,0.099,-72.634,5.876,-8.179
1747685396.05,0.168,-0.033,0.042,0.783,0.002,0.109,-72.198,5.952,-8.216
1747685396.06,0.098,-0.034,-0.021,0.814,-0.056,0.145,-71.736,6.007,-8.140
1747685396.07,0.020,-0.039,-0.035,0.816,-0.140,0.181,-71.262,6.081,-8.082
1747685396.08,-0.050,-0.033,-0.033,0.824,-0.106,0.184,-70.786,6.166,-7.911
1747685396.09,-0.086,-0.017,-0.043,0.828,0.072,0.167,-70.305,6.291,-7.838
1747685396.10,-0.063,-0.015,-0.010,0.874,0.130,0.153,-69.816,6.456,-7.731
1747685396.11,-0.023,-0.023,-0.019,0.943,0.135,0.136,-69.290,6.587,-7.728
1747685396.12,0.016,-0.032,-0.059,0.953,0.225,0.142,-68.741,6.730,-7.685
1747685396.13,0.067,-0.040,0.024,0.956,0.111,0.167,-68.190,6.894,-7.677
1747685396.14,0.052,-0.037,0.045,0.920,-0.045,0.213,-67.643,7.007,-7.569
1747685396.15,-0.030,-0.031,-0.030,0.810,-0.042,0.289,-67.133,7.171,-7.415
1747685396.16,-0.064,-0.028,-0.013,0.725,-0.042,0.349,-66.679,7.451,-7.090
1747685396.17,-0.043,-0.018,0.015,0.744,-0.119,0.362,-66.240,7.748,-6.761
1747685396.18,0.017,0.004,-0.012,0.814,-0.207,0.332,-65.772,7.961,-6.428
1747685396.19,0.087,0.017,0.021,0.919,-0.289,0.263,-65.260,8.040,-6.217
1747685396.20,0.109,0.027,0.057,1.013,-0.307,0.193,-64.694,7.976,-6.095
1747685396.21,0.076,0.035,0.060,1.054,-0.245,0.145,-64.093,7.840,-6.108
1747685396.22,0.031,0.028,0.091,1.044,-0.273,0.159,-63.487,7.703,-6.104
1747685396.23,-0.019,0.016,0.126,1.006,-0.328,0.219,-62.891,7.583,-6.065
1747685396.24,-0.058,0.011,0.051,0.920,-0.262,0.266,-62.325,7.541,-5.922
1747685396.25,-0.076,0.020,0.014,0.794,-0.249,0.260,-61.821,7.560,-5.748
1747685396.26,-0.072,0.029,0.021,0.751,-0.281,0.239,-61.368,7.564,-5.572
1747685396.27,-0.033,0.030,0.007,0.782,-0.347,0.229,-60.918,7.522,-5.429
1747685396.28,0.044,0.045,0.001,0.831,-0.340,0.239,-60.444,7.450,-5.282
1747685396.29,0.084,0.059,0.021,0.880,-0.272,0.243,-59.942,7.404,-5.142
1747685396.30,0.053,0.061,0.046,0.934,-0.212,0.226,-59.411,7.379,-5.010
1747685396.31,-0.037,0.056,0.022,0.943,-0.111,0.192,-58.861,7.367,-4.915
1747685396.32,-0.120,0.047,0.055,0.928,0.035,0.167,-58.319,7.400,-4.852
1747685396.33,-0.157,0.027,0.127,0.915,0.193,0.166,-57.784,7.505,-4.802
1747685396.34,-0.133,0.007,0.096,0.823,0.331,0.162,-57.278,7.701,-4.751
1747685396.35,-0.078,-0.001,0.063,0.749,0.355,0.190,-56.821,7.959,-4.678
1747685396.36,-0.030,0.001,0.039,0.706,0.229,0.250,-56.393,8.230,-4.561
1747685396.37,0.009,0.004,0.040,0.689,0.018,0.259,-55.979,8.437,-4.370
1747685396.38,0.045,0.029,0.008,0.748,-0.051,0.226,-55.555,8.533,-4.235
1747685396.39,0.090,0.068,0.032,0.858,-0.043,0.164,-55.086,8.570,-4.157
1747685396.40,0.083,0.090,0.064,0.947,-0.120,0.087,-54.563,8.521,-4.164
1747685396.41,-0.007,0.111,0.017,0.983,-0.134,0.005,-54.013,8.365,-4.261
1747685396.42,-0.070,0.122,0.016,1.018,0.032,-0.035,-53.450,8.199,-4.421
1747685396.43,-0.078,0.116,0.079,1.029,0.247,0.004,-52.871,8.167,-4.567
1747685396.44,-0.095,0.070,0.134,0.974,0.483,-0.029,-52.303,8.259,-4.713
1747685396.45,-0.119,0.048,0.125,0.895,0.686,-0.079,-51.780,8.460,-4.888
1747685396.46,-0.152,0.005,0.056,0.792,0.716,-0.078,-51.311,8.715,-5.081
1747685396.47,-0.166,-0.055,0.006,0.716,0.656,0.019,-50.890,9.003,-5.216
1747685396.48,-0.105,-0.106,-0.023,0.693,0.546,0.112,-50.488,9.315,-5.256
1747685396.49,0.011,-0.093,-0.026,0.757,0.468,0.153,-50.071,9.616,-5.241
1747685396.50,0.124,-0.040,0.011,0.872,0.410,0.125,-49.599,9.868,-5.238
1747685396.51,0.178,0.046,0.022,0.952,0.303,0.067,-49.075,10.032,-5.294
1747685396.52,0.149,0.128,0.004,1.017,0.175,0.021,-48.515,10.078,-5.409
