Time,AccX,AccY,AccZ,GyroX,GyroY,GyroZ,Pitch,Roll,Yaw
1747685592.10,0.004,0.000,-0.006,0.025,-0.021,0.040,-86.380,29.453,19.872
1747685592.11,-0.002,0.008,0.003,-0.008,-0.015,0.017,-86.364,29.528,19.959
1747685592.12,-0.005,-0.007,-0.007,-0.009,-0.009,-0.008,-86.368,29.461,19.899
1747685592.13,0.005,-0.009,-0.001,0.007,-0.004,0.001,-86.372,29.336,19.778
1747685592.13,0.013,-0.004,0.002,-0.007,-0.009,0.011,-86.371,29.374,19.820
1747685592.14,0.006,0.001,0.002,-0.021,-0.005,0.011,-86.376,29.578,20.028
1747685592.15,-0.004,-0.002,0.003,-0.024,-0.004,0.009,-86.384,29.850,20.303
1747685592.16,-0.010,-0.007,-0.008,-0.019,-0.000,0.002,-86.387,30.039,20.493
1747685592.17,-0.001,-0.005,-0.007,-0.022,-0.005,0.005,-86.394,30.144,20.599
1747685592.18,0.014,0.005,-0.002,-0.011,-0.015,0.003,-86.402,30.256,20.717
1747685592.19,0.024,0.013,0.004,0.003,-0.003,-0.012,-86.404,30.198,20.665
1747685592.20,0.026,0.016,0.010,-0.001,0.006,-0.016,-86.407,30.090,20.556
1747685592.21,0.017,0.004,0.009,-0.000,-0.008,-0.013,-86.411,30.017,20.483
1747685592.22,0.007,-0.014,0.001,-0.011,-0.028,-0.010,-86.416,29.962,20.438
1747685592.23,0.003,-0.018,-0.005,-0.016,-0.039,-0.016,-86.427,29.896,20.391
1747685592.24,0.012,-0.008,-0.002,-0.009,-0.060,-0.009,-86.437,29.776,20.299
1747685592.25,0.029,0.002,-0.002,0.007,-0.056,0.007,-86.436,29.728,20.285
1747685592.26,0.037,0.007,0.005,0.012,-0.049,0.008,-86.428,29.759,20.346
1747685592.27,0.022,0.003,0.011,0.014,-0.043,0.003,-86.418,29.800,20.414
1747685592.28,0.001,-0.004,0.003,0.022,-0.015,0.006,-86.406,29.827,20.458
1747685592.29,-0.014,-0.007,0.005,0.020,0.006,0.007,-86.394,29.843,20.476
1747685592.30,-0.024,-0.005,0.013,0.016,0.022,0.001,-86.384,29.814,20.439
1747685592.31,-0.022,-0.007,0.010,0.006,0.015,0.006,-86.376,29.797,20.409
1747685592.32,-0.011,-0.007,0.003,-0.003,-0.005,0.006,-86.372,29.873,20.482
1747685592.33,-0.001,-0.005,0.000,-0.005,-0.020,-0.009,-86.372,29.950,20.567
1747685592.34,0.010,0.004,0.000,0.007,-0.032,0.001,-86.371,30.004,20.636
1747685592.35,0.016,0.015,0.000,0.024,-0.011,0.022,-86.360,30.089,20.734
1747685592.36,0.007,0.012,0.009,0.024,0.026,0.043,-86.339,30.234,20.876
1747685592.37,-0.024,0.001,0.020,0.024,0.055,0.036,-86.318,30.412,21.030
1747685592.38,-0.049,-0.008,0.016,0.012,0.075,0.025,-86.305,30.561,21.142
1747685592.39,-0.050,-0.013,0.019,-0.005,0.100,0.007,-86.302,30.702,21.233
1747685592.40,-0.026,-0.003,0.021,-0.020,0.097,-0.051,-86.316,30.618,21.092
1747685592.41,0.014,0.027,0.010,-0.000,0.102,-0.001,-86.330,30.484,20.900
1747685592.42,0.029,-0.005,0.011,-0.006,0.093,0.026,-86.326,30.681,21.041
1747685592.43,0.020,-0.002,0.001,-0.024,0.072,0.009,-86.326,30.980,21.292
1747685592.44,0.009,0.012,-0.012,-0.035,0.042,-0.017,-86.343,31.138,21.419
1747685592.45,0.009,0.015,-0.017,-0.033,0.032,-0.034,-86.372,31.076,21.337
1747685592.46,0.016,0.004,-0.013,-0.031,0.028,-0.029,-86.401,30.912,21.156
1747685592.47,0.023,-0.006,-0.009,-0.038,0.021,-0.024,-86.431,30.819,21.049
1747685592.48,0.018,-0.006,-0.008,-0.049,0.014,-0.033,-86.464,30.791,21.010
1747685592.49,0.007,-0.004,-0.007,-0.049,0.005,-0.042,-86.500,30.757,20.972
1747685592.50,0.000,0.002,-0.006,-0.043,0.011,-0.043,-86.533,30.703,20.914
1747685592.51,0.000,0.003,-0.011,-0.039,0.024,-0.047,-86.565,30.591,20.792
1747685592.52,0.004,-0.000,-0.020,-0.040,0.023,-0.047,-86.594,30.410,20.597
1747685592.53,0.010,-0.007,-0.028,-0.034,0.030,-0.046,-86.622,30.218,20.390
1747685592.54,0.021,-0.007,-0.031,-0.021,0.029,-0.030,-86.642,30.077,20.232
1747685592.55,0.024,-0.002,-0.034,-0.015,0.001,-0.020,-86.654,30.025,20.171
1747685592.56,0.020,0.007,-0.040,-0.009,-0.013,-0.007,-86.659,30.004,20.155
1747685592.57,0.013,0.010,-0.031,-0.017,0.018,-0.009,-86.665,30.007,20.158
1747685592.58,0.006,0.002,-0.015,-0.029,0.059,-0.017,-86.678,30.020,20.148
1747685592.59,0.002,-0.015,-0.010,-0.044,0.056,-0.005,-86.699,30.113,20.207
1747685592.60,-0.012,-0.023,-0.010,-0.050,0.037,-0.001,-86.718,30.359,20.429
1747685592.61,-0.014,-0.031,-0.003,-0.047,0.038,-0.035,-86.741,30.455,20.503
1747685592.62,0.003,-0.025,-0.001,-0.045,0.003,-0.024,-86.765,30.436,20.473
1747685592.63,0.038,-0.004,-0.010,-0.034,-0.041,-0.002,-86.780,30.544,20.592
1747685592.64,0.051,0.019,-0.021,-0.016,-0.099,-0.022,-86.787,30.528,20.614
1747685592.65,0.033,0.028,-0.030,0.001,-0.121,-0.051,-86.795,30.151,20.301
1747685592.66,0.013,0.021,-0.019,-0.001,-0.094,-0.038,-86.804,29.671,19.879
1747685592.67,-0.000,0.011,-0.014,-0.006,-0.089,-0.013,-86.812,29.385,19.645
1747685592.68,-0.000,-0.007,-0.012,-0.015,-0.079,0.003,-86.818,29.313,19.621
1747685592.69,-0.010,-0.018,-0.001,-0.009,-0.059,-0.012,-86.826,29.257,19.605
1747685592.70,-0.026,-0.017,-0.004,0.001,-0.023,-0.010,-86.831,29.132,19.506
1747685592.71,-0.023,-0.024,0.006,-0.019,0.007,0.036,-86.826,29.422,19.794
1747685592.72,-0.038,-0.020,0.010,-0.022,-0.015,-0.016,-86.827,29.753,20.130
1747685592.73,-0.070,0.031,0.002,0.001,-0.013,-0.063,-86.841,29.429,19.812
1747685592.74,-0.020,0.005,0.009,-0.001,-0.025,-0.028,-86.851,28.971,19.364
1747685592.75,0.009,-0.022,0.002,-0.013,0.002,0.039,-86.851,29.047,19.448
1747685592.76,0.022,-0.004,0.015,-0.005,0.014,0.042,-86.843,29.507,19.904
1747685592.77,0.012,0.035,0.008,0.015,0.011,-0.007,-86.836,29.630,20.018
1747685592.78,-0.001,0.036,0.002,0.050,-0.053,-0.013,-86.825,29.279,19.682
1747685592.79,-0.005,0.003,-0.004,0.061,-0.068,0.011,-86.797,28.925,19.362
1747685592.80,0.002,-0.025,0.001,0.054,-0.037,0.019,-86.766,28.690,19.158
1747685592.81,-0.004,-0.023,0.021,0.044,-0.011,0.024,-86.743,28.451,18.934
1747685592.82,-0.014,-0.005,0.030,0.046,0.003,0.020,-86.718,28.405,18.891
1747685592.83,-0.015,0.018,0.023,0.043,0.022,0.010,-86.691,28.377,18.855
1747685592.84,-0.007,0.025,0.025,0.033,0.024,-0.002,-86.672,28.329,18.793
1747685592.85,-0.004,-0.002,0.022,0.027,0.007,0.003,-86.658,28.224,18.678
1747685592.86,0.003,-0.024,0.018,0.023,-0.025,0.017,-86.645,28.188,18.646
1747685592.87,0.013,-0.020,0.017,0.029,-0.062,0.022,-86.627,28.205,18.688
1747685592.88,0.018,0.003,0.019,0.049,-0.100,0.015,-86.603,28.153,18.681
1747685592.89,0.011,0.019,0.011,0.065,-0.110,0.005,-86.575,27.933,18.523
1747685592.90,0.000,0.015,0.011,0.072,-0.091,0.002,-86.546,27.588,18.235
1747685592.91,-0.005,-0.002,0.009,0.082,-0.064,0.007,-86.512,27.223,17.915
1747685592.92,-0.011,-0.009,0.000,0.092,-0.038,0.011,-86.470,26.917,17.637
1747685592.93,-0.021,-0.001,0.000,0.098,-0.016,0.009,-86.425,26.626,17.362
1747685592.94,-0.033,0.008,0.005,0.115,-0.002,0.001,-86.373,26.272,17.013
1747685592.95,-0.034,0.005,0.002,0.131,0.009,0.005,-86.312,25.872,16.610
1747685592.96,-0.017,-0.005,-0.003,0.146,0.028,0.011,-86.241,25.494,16.221
1747685592.97,-0.004,-0.011,-0.002,0.153,0.055,0.019,-86.163,25.132,15.833
1747685592.98,0.002,-0.007,0.005,0.162,0.085,0.026,-86.079,24.816,15.476
1747685592.99,0.004,0.002,0.008,0.185,0.097,0.036,-85.985,24.517,15.123
1747685593.00,0.003,0.007,0.007,0.195,0.094,0.041,-85.880,24.214,14.765
1747685593.01,0.001,-0.000,0.018,0.211,0.087,0.047,-85.768,23.900,14.398
1747685593.02,-0.004,-0.012,0.020,0.239,0.085,0.049,-85.645,23.524,13.973
1747685593.03,-0.005,-0.017,0.020,0.267,0.070,0.051,-85.507,23.110,13.512
1747685593.04,-0.000,-0.018,0.016,0.307,0.037,0.054,-85.348,22.652,13.023
1747685593.05,0.014,-0.010,0.010,0.350,0.015,0.060,-85.164,22.166,12.521
1747685593.06,0.020,0.009,0.008,0.400,0.016,0.055,-84.958,21.629,11.973
1747685593.07,0.007,0.031,0.004,0.429,-0.001,0.043,-84.731,20.987,11.323
1747685593.08,-0.006,0.032,-0.009,0.423,0.004,0.016,-84.502,20.271,10.604
1747685593.09,-0.008,0.008,-0.000,0.435,0.019,0.006,-84.278,19.509,9.833
1747685593.10,0.002,-0.020,0.009,0.488,0.021,0.016,-84.028,18.723,9.030
1747685593.11,0.012,-0.029,0.025,0.521,-0.018,0.051,-83.748,18.030,8.331
1747685593.12,0.010,-0.029,0.039,0.550,-0.051,0.089,-83.445,17.519,7.838
1747685593.13,0.010,-0.033,0.025,0.607,-0.069,0.116,-83.112,17.126,7.475
1747685593.14,0.008,-0.029,0.001,0.633,-0.126,0.143,-82.750,16.807,7.207
1747685593.15,-0.010,-0.003,-0.029,0.627,-0.162,0.157,-82.380,16.562,7.048
1747685593.16,-0.025,0.012,-0.045,0.605,-0.050,0.127,-82.019,16.347,6.897
1747685593.17,-0.022,0.008,0.005,0.630,0.092,0.079,-81.666,16.066,6.601
1747685593.18,-0.011,-0.008,0.037,0.711,0.159,0.068,-81.286,15.705,6.160
1747685593.19,-0.013,-0.015,0.031,0.758,0.148,0.111,-80.866,15.373,5.736
1747685593.20,-0.019,-0.011,0.042,0.750,0.147,0.168,-80.429,15.238,5.514
1747685593.21,-0.018,-0.009,0.057,0.751,0.200,0.208,-79.988,15.290,5.466
1747685593.22,-0.008,-0.003,0.060,0.743,0.224,0.216,-79.543,15.438,5.491
1747685593.23,-0.014,0.015,0.066,0.712,0.211,0.194,-79.112,15.578,5.508
1747685593.24,-0.028,0.024,0.084,0.734,0.203,0.166,-78.688,15.634,5.445
1747685593.25,-0.034,0.019,0.072,0.764,0.178,0.151,-78.251,15.601,5.298
1747685593.26,-0.038,0.016,0.057,0.780,0.149,0.149,-77.803,15.518,5.119
1747685593.27,-0.038,0.026,0.058,0.759,0.142,0.170,-77.352,15.459,4.975
1747685593.28,-0.046,0.045,0.095,0.718,0.156,0.164,-76.922,15.461,4.888
1747685593.29,-0.096,0.060,0.096,0.749,0.197,0.114,-76.500,15.422,4.748
1747685593.30,-0.149,0.050,0.049,0.810,0.254,0.057,-76.057,15.260,4.445
1747685593.31,-0.151,0.027,0.023,0.846,0.309,0.036,-75.591,15.019,4.068
1747685593.32,-0.118,0.008,0.030,0.844,0.471,0.060,-75.117,14.859,3.676
1747685593.33,-0.087,-0.009,0.068,0.815,0.607,0.096,-74.646,14.882,3.403
1747685593.34,-0.082,-0.007,0.056,0.775,0.571,0.102,-74.194,15.001,3.174
1747685593.35,-0.098,0.005,0.007,0.752,0.533,0.093,-73.759,15.103,2.993
1747685593.36,-0.084,-0.000,0.020,0.705,0.628,0.102,-73.342,15.241,2.792
1747685593.37,-0.041,-0.010,0.047,0.672,0.686,0.104,-72.948,15.465,2.685
1747685593.38,-0.022,-0.022,0.017,0.657,0.651,0.104,-72.568,15.706,2.536
1747685593.39,-0.012,-0.030,-0.022,0.678,0.572,0.106,-72.186,15.915,2.436
1747685593.40,0.009,-0.017,-0.056,0.731,0.466,0.074,-71.785,16.026,2.243
1747685593.41,0.044,0.000,-0.073,0.801,0.385,0.030,-71.357,15.987,1.981
1747685593.42,0.080,0.014,-0.051,0.853,0.390,0.003,-70.899,15.850,1.606
1747685593.43,0.074,0.019,0.001,0.854,0.400,-0.017,-70.429,15.690,1.219
1747685593.44,-0.009,0.013,-0.008,0.832,0.346,-0.040,-69.969,15.503,0.795
1747685593.45,-0.119,-0.003,-0.061,0.766,0.413,-0.056,-69.535,15.308,0.383
1747685593.46,-0.166,-0.031,-0.039,0.707,0.632,-0.019,-69.137,15.251,0.005
1747685593.47,-0.135,-0.070,-0.001,0.687,0.772,0.057,-68.751,15.408,-0.223
1747685593.48,-0.076,-0.083,-0.011,0.697,0.767,0.154,-68.354,15.727,-0.355
1747685593.49,0.006,-0.068,-0.017,0.720,0.685,0.213,-67.937,16.123,-0.330
1747685593.50,0.079,-0.035,-0.026,0.776,0.581,0.226,-67.492,16.490,-0.321
1747685593.51,0.136,-0.009,-0.018,0.856,0.524,0.176,-67.010,16.757,-0.327
1747685593.52,0.160,0.013,0.008,0.888,0.483,0.065,-66.512,16.862,-0.525
1747685593.53,0.132,0.025,0.027,0.885,0.458,-0.026,-66.023,16.815,-0.829
1747685593.54,0.058,0.020,0.050,0.845,0.381,-0.052,-65.557,16.689,-1.233
1747685593.55,-0.030,0.014,0.063,0.812,0.337,-0.030,-65.111,16.545,-1.567
1747685593.56,-0.113,0.015,0.034,0.774,0.348,-0.002,-64.679,16.446,-1.891
1747685593.57,-0.163,0.017,0.001,0.760,0.376,-0.013,-64.261,16.387,-2.131
1747685593.58,-0.166,0.022,-0.029,0.800,0.381,-0.038,-63.839,16.317,-2.449
1747685593.59,-0.135,0.020,-0.063,0.868,0.383,-0.063,-63.390,16.210,-2.754
1747685593.60,-0.093,0.015,-0.053,0.880,0.430,-0.088,-62.920,16.081,-3.157
1747685593.61,-0.067,0.003,-0.002,0.888,0.520,-0.124,-62.455,15.972,-3.534
1747685593.62,-0.058,-0.015,0.039,0.953,0.580,-0.163,-61.973,15.867,-4.010
1747685593.63,-0.076,-0.028,0.040,1.000,0.604,-0.230,-61.465,15.721,-4.497
1747685593.64,-0.133,-0.034,0.008,1.013,0.640,-0.263,-60.948,15.540,-5.106
1747685593.65,-0.174,-0.038,0.005,0.986,0.755,-0.284,-60.438,15.396,-5.672
1747685593.66,-0.188,-0.017,0.004,0.968,0.882,-0.298,-59.945,15.324,-6.294
1747685593.67,-0.149,0.010,-0.030,0.976,0.920,-0.284,-59.455,15.316,-6.835
1747685593.68,-0.040,0.027,-0.055,0.975,0.947,-0.204,-58.955,15.372,-7.389
1747685593.69,0.092,0.030,-0.000,0.937,0.903,-0.115,-58.451,15.519,-7.776
1747685593.70,0.174,0.010,0.056,0.940,0.677,-0.063,-57.954,15.673,-8.134
1747685593.71,0.207,-0.024,0.000,1.025,0.372,-0.115,-57.426,15.658,-8.440
1747685593.72,0.237,-0.056,-0.057,1.052,0.192,-0.162,-56.875,15.444,-8.879
1747685593.73,0.265,-0.076,-0.041,1.064,0.114,-0.126,-56.313,15.164,-9.255
1747685593.74,0.240,-0.097,-0.030,1.039,0.012,-0.072,-55.749,14.890,-9.631
1747685593.75,0.177,-0.109,-0.034,1.049,-0.081,0.015,-55.178,14.625,-9.850
1747685593.76,0.162,-0.112,-0.048,1.026,-0.122,0.112,-54.594,14.404,-10.047
1747685593.77,0.191,-0.105,-0.031,1.012,-0.122,0.193,-54.010,14.252,-10.087
1747685593.78,0.230,-0.092,-0.026,1.040,-0.122,0.221,-53.412,14.146,-10.134
1747685593.79,0.238,-0.085,-0.038,1.044,-0.191,0.220,-52.803,14.029,-10.095
1747685593.80,0.170,-0.078,-0.063,0.993,-0.229,0.237,-52.205,13.887,-10.119
1747685593.81,0.096,-0.075,-0.047,0.932,-0.196,0.270,-51.637,13.774,-10.020
1747685593.82,0.036,-0.084,-0.004,0.894,-0.125,0.280,-51.094,13.721,-9.971
1747685593.83,-0.032,-0.074,0.026,0.890,-0.060,0.298,-50.561,13.716,-9.821
1747685593.84,-0.064,-0.060,0.036,0.893,0.010,0.333,-50.023,13.765,-9.623
1747685593.85,-0.055,-0.028,0.034,0.875,0.031,0.365,-49.485,13.864,-9.513
1747685593.86,-0.013,0.009,0.049,0.875,0.028,0.410,-48.948,13.989,-9.253
1747685593.87,0.047,0.038,0.085,0.914,-0.013,0.408,-48.396,14.117,-9.094
1747685593.88,0.080,0.079,0.090,0.964,-0.121,0.409,-47.820,14.185,-8.808
1747685593.89,0.085,0.057,0.046,1.001,-0.265,0.423,-47.216,14.171,-8.671
1747685593.90,0.065,0.030,0.066,0.987,-0.256,0.411,-46.605,14.119,-8.394
1747685593.91,0.028,0.081,0.121,0.992,-0.186,0.347,-46.008,14.070,-8.282
1747685593.92,-0.015,0.109,0.104,1.073,-0.111,0.229,-45.397,14.002,-8.116
1747685593.93,-0.073,0.101,0.080,1.100,-0.057,0.163,-44.764,13.912,-8.178
1747685593.94,-0.111,0.083,0.032,1.046,0.008,0.127,-44.148,13.830,-8.113
1747685593.95,-0.095,0.082,0.002,0.987,0.081,0.150,-43.566,13.796,-8.201
1747685593.96,-0.070,0.066,0.017,0.927,0.112,0.199,-43.013,13.822,-8.091
1747685593.97,-0.079,0.043,0.045,0.898,0.092,0.240,-42.478,13.879,-8.092
1747685593.98,-0.087,0.047,0.058,0.902,0.069,0.253,-41.945,13.937,-7.917
1747685593.99,-0.069,0.075,0.051,0.919,0.086,0.240,-41.406,13.991,-7.900
1747685594.00,-0.055,0.103,0.049,0.945,0.078,0.189,-40.861,14.031,-7.741
1747685594.01,-0.055,0.123,0.044,0.995,0.034,0.133,-40.301,14.026,-7.801
1747685594.02,-0.060,0.129,0.056,1.022,-0.012,0.082,-39.727,13.965,-7.732
1747685594.03,-0.070,0.120,0.032,1.048,-0.033,0.024,-39.145,13.858,-7.878
1747685594.04,-0.083,0.101,-0.016,1.034,-0.045,-0.021,-38.567,13.722,-7.896
1747685594.05,-0.095,0.064,-0.043,0.997,-0.097,-0.009,-38.006,13.563,-8.083
1747685594.06,-0.065,0.023,-0.046,1.001,-0.046,0.008,-37.453,13.418,-8.084
1747685594.07,-0.018,-0.015,-0.034,1.033,0.040,-0.013,-36.887,13.315,-8.254
1747685594.08,0.025,-0.033,-0.029,1.053,0.079,-0.024,-36.310,13.243,-8.363
1747685594.09,0.044,-0.044,-0.024,1.039,0.093,0.056,-35.724,13.196,-8.523
1747685594.10,0.053,-0.074,0.005,0.977,0.060,0.092,-35.155,13.179,-8.533
1747685594.11,0.049,-0.052,0.013,0.957,0.033,0.108,-34.604,13.157,-8.618
1747685594.12,0.070,-0.049,0.019,0.953,0.031,0.141,-34.059,13.137,-8.503
1747685594.13,0.082,-0.061,0.015,0.929,-0.007,0.199,-33.510,13.122,-8.538
1747685594.14,0.089,-0.063,-0.018,0.906,-0.000,0.233,-32.974,13.123,-8.351
1747685594.15,0.068,-0.057,-0.002,0.918,-0.082,0.225,-32.437,13.108,-8.340
1747685594.16,0.020,-0.045,-0.018,0.958,-0.138,0.215,-31.889,13.042,-8.257
1747685594.17,0.005,-0.047,-0.011,0.976,-0.123,0.182,-31.322,12.963,-8.271
1747685594.18,-0.020,-0.027,0.007,0.978,-0.131,0.131,-30.757,12.869,-8.240
1747685594.19,-0.049,0.005,-0.019,0.955,-0.159,0.100,-30.205,12.752,-8.308
1747685594.20,-0.050,0.004,-0.034,0.946,-0.142,0.091,-29.664,12.625,-8.295
1747685594.21,-0.035,-0.003,-0.022,0.946,-0.061,0.093,-29.125,12.527,-8.371
1747685594.22,-0.026,-0.025,0.016,0.930,-0.005,0.106,-28.590,12.475,-8.239
1747685594.23,-0.037,-0.035,0.024,0.925,0.001,0.088,-28.061,12.443,-8.307
1747685594.24,-0.046,-0.032,0.026,0.935,-0.003,0.115,-27.530,12.412,-8.273
1747685594.25,-0.007,-0.048,0.038,0.949,-0.000,0.104,-26.994,12.381,-8.335
1747685594.26,0.070,-0.012,0.039,0.968,-0.031,0.133,-26.444,12.348,-8.291
1747685594.27,0.143,0.015,0.034,0.994,-0.064,0.104,-25.883,12.295,-8.349
1747685594.28,0.187,0.041,0.017,0.988,-0.148,0.172,-25.312,12.213,-8.400
1747685594.29,0.164,0.036,0.008,0.949,-0.210,0.269,-24.745,12.111,-8.394
1747685594.30,0.094,0.023,0.009,0.922,-0.206,0.351,-24.185,12.017,-8.325
1747685594.31,0.040,0.015,0.012,0.919,-0.151,0.401,-23.625,11.959,-8.213
1747685594.32,0.025,0.017,0.012,0.921,-0.061,0.414,-23.063,11.951,-8.083
1747685594.33,0.030,0.019,0.011,0.928,-0.027,0.445,-22.492,11.988,-7.939
1747685594.34,0.014,0.009,0.015,0.915,-0.039,0.417,-21.925,12.022,-7.795
1747685594.35,-0.039,0.017,0.004,0.898,-0.058,0.378,-21.372,12.037,-7.673
1747685594.36,-0.057,-0.010,-0.016,0.890,-0.057,0.352,-20.831,12.038,-7.569
1747685594.37,-0.043,-0.012,-0.003,0.909,-0.026,0.327,-20.288,12.046,-7.479
1747685594.38,-0.047,0.001,0.026,0.953,0.001,0.275,-19.733,12.061,-7.417
1747685594.39,-0.050,0.007,0.014,1.003,-0.000,0.206,-19.157,12.068,-7.396
1747685594.40,-0.056,0.016,0.009,1.033,-0.021,0.149,-18.567,12.056,-7.263
1747685594.41,-0.039,0.026,0.014,1.092,-0.047,0.115,-17.959,12.017,-7.320
1747685594.42,0.007,0.025,-0.004,1.165,-0.066,0.108,-17.314,11.961,-7.394
1747685594.43,0.056,0.029,0.003,1.182,-0.078,0.109,-16.644,11.895,-7.478
1747685594.44,0.068,0.032,0.007,1.162,-0.116,0.172,-15.974,11.820,-7.542
1747685594.45,0.032,0.019,-0.014,1.085,-0.189,0.212,-15.322,11.726,-7.564
1747685594.46,-0.043,0.056,-0.003,1.055,-0.193,0.219,-14.701,11.613,-7.564
1747685594.47,-0.091,0.068,0.006,1.082,-0.091,0.206,-14.080,11.529,-7.568
1747685594.48,-0.078,0.055,0.032,1.094,0.017,0.187,-13.446,11.507,-7.582
1747685594.49,-0.044,0.046,0.031,1.085,0.077,0.149,-12.817,11.528,-7.612
1747685594.50,-0.009,0.028,-0.001,1.067,0.109,0.126,-12.200,11.572,-7.476
1747685594.51,0.024,-0.010,-0.029,1.063,0.153,0.153,-11.590,11.635,-7.524
1747685594.52,0.050,-0.049,-0.063,1.074,0.207,0.238,-10.971,11.735,-7.157
1747685594.53,0.061,-0.065,-0.079,1.082,0.224,0.190,-10.342,11.858,-7.158
1747685594.54,0.055,-0.090,-0.061,1.040,0.233,0.173,-9.726,11.985,-6.988
1747685594.55,0.080,-0.069,-0.023,0.967,0.243,0.221,-9.142,12.117,-6.999
1747685594.56,0.063,-0.015,0.036,0.972,0.205,0.258,-8.577,12.250,-6.598
1747685594.57,0.022,0.111,0.087,1.053,0.172,0.303,-7.976,12.362,-6.563
1747685594.58,-0.006,0.221,0.067,1.058,0.136,0.289,-7.349,12.456,-6.135
1747685594.59,-0.010,0.272,0.002,1.070,0.040,0.252,-6.723,12.512,-6.116
1747685594.60,-0.010,0.225,-0.057,1.061,-0.020,0.186,-6.099,12.512,-5.744
1747685594.61,-0.001,0.117,-0.078,1.019,0.006,0.162,-5.499,12.501,-5.781
1747685594.62,0.011,0.011,-0.085,1.005,0.057,0.101,-4.916,12.517,-5.453
1747685594.63,-0.011,-0.134,-0.083,0.957,0.105,0.082,-4.359,12.555,-5.526
1747685594.64,-0.010,-0.197,-0.082,0.907,0.146,0.107,-3.825,12.624,-5.203
1747685594.65,0.030,-0.157,-0.085,0.838,0.194,0.143,-3.325,12.717,-4.836
1747685594.66,0.050,-0.058,-0.053,0.854,0.244,0.195,-2.834,12.842,-4.848
1747685594.67,0.041,0.063,0.005,0.865,0.276,0.284,-2.325,12.993,-4.435
1747685594.68,0.020,0.140,0.050,0.852,0.214,0.284,-1.811,13.140,-4.383
1747685594.69,-0.015,0.239,0.028,0.870,0.117,0.224,-1.298,13.235,-3.954
1747685594.70,-0.016,0.251,-0.021,0.882,0.031,0.178,-0.786,13.277,-3.957
1747685594.70,0.019,0.167,-0.058,0.897,-0.057,0.138,-0.271,13.269,-3.593
1747685594.72,0.046,0.071,-0.106,0.884,-0.115,0.102,0.241,13.218,-3.644
1747685594.73,0.052,-0.034,-0.116,0.862,-0.123,0.104,0.739,13.148,-3.307
1747685594.74,0.036,-0.085,-0.082,0.859,-0.085,0.108,1.234,13.088,-3.361
1747685594.74,-0.014,-0.157,-0.035,0.842,-0.012,0.139,1.721,13.061,-3.021
1747685594.76,-0.031,-0.144,0.002,0.823,0.044,0.161,2.205,13.072,-3.044
1747685594.76,-0.029,-0.038,0.015,0.805,0.091,0.195,2.678,13.110,-2.675
1747685594.77,0.004,0.030,0.034,0.794,0.099,0.193,3.148,13.165,-2.669
1747685594.78,0.026,0.127,0.026,0.782,0.053,0.159,3.609,13.209,-2.297
1747685594.79,0.048,0.197,-0.012,0.781,-0.006,0.090,4.059,13.225,-2.329
1747685594.80,0.041,0.185,-0.045,0.797,-0.108,0.046,4.507,13.199,-2.024
1747685594.81,0.026,0.086,-0.087,0.787,-0.169,0.035,4.953,13.124,-2.105
1747685594.82,0.030,-0.021,-0.107,0.765,-0.160,0.029,5.388,13.035,-1.810
1747685594.83,0.011,-0.096,-0.090,0.745,-0.111,0.032,5.815,12.964,-1.894
1747685594.84,-0.015,-0.119,-0.052,0.726,-0.053,0.031,6.228,12.927,-1.586
1747685594.85,-0.034,-0.149,-0.043,0.694,0.051,0.052,6.629,12.931,-1.656
1747685594.86,-0.016,-0.172,-0.006,0.671,0.165,0.111,7.019,12.999,-1.323
1747685594.87,-0.007,-0.064,0.023,0.641,0.227,0.131,7.400,13.116,-1.339
1747685594.88,-0.007,0.051,0.016,0.667,0.173,0.190,7.784,13.232,-0.977
1747685594.89,0.014,0.128,0.014,0.678,0.076,0.168,8.182,13.302,-0.963
1747685594.90,0.029,0.246,-0.012,0.689,-0.007,0.098,8.580,13.322,-0.628
1747685594.91,0.078,0.241,-0.078,0.699,-0.100,0.047,8.974,13.302,-0.681
1747685594.92,0.089,0.100,-0.094,0.684,-0.218,0.028,9.363,13.222,-0.400
1747685594.93,0.074,-0.068,-0.103,0.669,-0.291,0.039,9.743,13.086,-0.471
1747685594.94,0.050,-0.175,-0.094,0.633,-0.285,0.068,10.113,12.927,-0.168
1747685594.95,0.005,-0.190,-0.067,0.591,-0.198,0.107,10.464,12.791,-0.197
1747685594.96,-0.055,-0.111,-0.034,0.589,-0.067,0.069,10.803,12.719,0.129
1747685594.97,-0.106,-0.125,-0.004,0.581,0.046,0.102,11.143,12.718,0.105
1747685594.98,-0.066,-0.093,0.017,0.557,0.113,0.058,11.468,12.772,0.426
1747685594.99,-0.017,0.044,0.015,0.565,0.097,0.054,11.787,12.842,0.385
1747685595.00,0.049,0.122,0.017,0.575,0.041,0.054,12.111,12.891,0.691
1747685595.01,0.096,0.154,-0.006,0.581,-0.034,0.057,12.439,12.903,0.646
1747685595.02,0.115,0.117,-0.053,0.587,-0.108,0.094,12.774,12.870,0.941
1747685595.03,0.097,0.039,-0.074,0.580,-0.146,0.159,13.118,12.794,0.942
1747685595.04,0.059,-0.022,-0.067,0.551,-0.125,0.142,13.452,12.714,1.306
1747685595.05,0.009,0.005,-0.039,0.534,-0.094,0.115,13.769,12.649,1.313
1747685595.06,-0.031,-0.022,-0.048,0.525,-0.039,0.097,14.078,12.615,1.651
1747685595.07,-0.040,-0.093,-0.032,0.526,-0.005,0.147,14.384,12.604,1.651
1747685595.08,-0.038,-0.065,-0.038,0.509,0.031,0.128,14.690,12.608,2.004
1747685595.09,-0.042,0.011,-0.027,0.505,0.027,0.104,14.987,12.627,2.005
1747685595.10,-0.037,0.086,-0.031,0.513,-0.006,0.103,15.283,12.635,2.317
1747685595.11,-0.024,0.109,-0.040,0.527,-0.013,0.069,15.585,12.634,2.301
1747685595.12,-0.011,0.083,-0.050,0.526,-0.049,0.035,15.885,12.630,2.572
1747685595.13,0.004,0.032,-0.064,0.505,-0.098,0.023,16.175,12.601,2.521
1747685595.14,0.014,-0.018,-0.067,0.485,-0.130,0.019,16.454,12.550,2.779
1747685595.15,0.019,-0.031,-0.075,0.471,-0.127,0.027,16.722,12.487,2.733
1747685595.16,-0.005,-0.015,-0.065,0.457,-0.087,0.000,16.984,12.440,2.998
1747685595.17,-0.033,-0.086,-0.039,0.433,-0.035,0.021,17.232,12.423,2.946
1747685595.18,-0.025,-0.078,-0.032,0.397,-0.011,0.054,17.472,12.420,3.230
1747685595.19,-0.035,-0.039,-0.017,0.367,0.048,-0.003,17.688,12.440,3.196
1747685595.20,-0.019,0.020,-0.021,0.346,0.050,-0.011,17.885,12.487,3.445
1747685595.21,0.026,0.036,-0.064,0.334,0.013,0.016,18.075,12.518,3.402
1747685595.22,0.028,0.021,-0.082,0.315,0.003,0.003,18.258,12.531,3.657
1747685595.23,0.017,-0.003,-0.083,0.296,0.017,-0.011,18.428,12.550,3.616
1747685595.24,0.010,-0.027,-0.083,0.258,0.031,-0.012,18.582,12.578,3.854
1747685595.25,0.010,-0.040,-0.087,0.219,0.025,-0.007,18.714,12.606,3.817
1747685595.26,0.010,-0.045,-0.095,0.182,0.035,-0.005,18.825,12.631,4.051
1747685595.27,0.005,-0.047,-0.081,0.134,0.070,-0.004,18.913,12.668,4.028
1747685595.28,-0.005,-0.041,-0.066,0.090,0.128,-0.008,18.975,12.728,4.291
1747685595.29,-0.008,-0.025,-0.063,0.061,0.199,-0.021,19.015,12.830,4.273
1747685595.30,0.003,-0.015,-0.088,-0.000,0.209,-0.018,19.029,12.954,4.523
1747685595.31,0.009,-0.028,-0.131,-0.066,0.184,-0.007,19.008,13.067,4.520
1747685595.32,0.011,-0.035,-0.146,-0.121,0.180,-0.007,18.957,13.168,4.791
1747685595.33,0.031,-0.029,-0.155,-0.190,0.172,-0.011,18.869,13.264,4.807
1747685595.34,0.039,-0.042,-0.160,-0.252,0.153,-0.003,18.744,13.350,5.106
1747685595.35,0.021,-0.061,-0.146,-0.325,0.142,-0.008,18.585,13.421,5.143
1747685595.36,0.020,-0.067,-0.139,-0.404,0.145,-0.019,18.380,13.489,5.456
1747685595.37,0.035,-0.071,-0.139,-0.478,0.147,-0.004,18.132,13.556,5.510
1747685595.38,0.027,-0.070,-0.134,-0.550,0.133,0.010,17.849,13.613,5.855
1747685595.39,0.011,-0.052,-0.160,-0.619,0.149,0.004,17.525,13.666,5.942
1747685595.40,-0.002,-0.043,-0.163,-0.681,0.168,-0.010,17.163,13.730,6.287
1747685595.41,-0.017,-0.050,-0.159,-0.732,0.176,-0.035,16.767,13.803,6.619
1747685595.42,-0.008,-0.063,-0.167,-0.791,0.169,-0.068,16.338,13.879,6.696
1747685595.43,0.013,-0.078,-0.163,-0.871,0.116,-0.079,15.868,13.941,7.003
1747685595.44,0.028,-0.090,-0.153,-0.961,0.069,-0.067,15.350,13.970,7.092
1747685595.45,0.046,-0.095,-0.157,-1.041,0.022,-0.048,14.785,13.968,7.440
1747685595.46,0.060,-0.099,-0.163,-1.109,-0.017,-0.020,14.186,13.934,7.574
1747685595.47,0.080,-0.097,-0.161,-1.166,-0.038,0.006,13.553,13.881,7.968
1747685595.48,0.106,-0.088,-0.161,-1.232,-0.033,0.014,12.891,13.820,8.142
1747685595.49,0.117,-0.069,-0.130,-1.278,-0.024,0.025,12.197,13.763,8.542
1747685595.50,0.081,-0.047,-0.086,-1.318,-0.012,0.020,11.482,13.711,8.735
1747685595.51,0.029,-0.033,-0.071,-1.347,0.029,-0.012,10.742,13.680,9.140
1747685595.52,-0.006,-0.040,-0.084,-1.368,0.077,-0.054,9.984,13.679,9.306
1747685595.53,-0.030,-0.056,-0.070,-1.395,0.136,-0.075,9.208,13.715,9.666
1747685595.54,-0.017,-0.076,-0.054,-1.446,0.159,-0.081,8.409,13.779,9.816
1747685595.55,0.048,-0.081,-0.087,-1.500,0.118,-0.062,7.581,13.837,10.178
1747685595.56,0.103,-0.063,-0.106,-1.552,0.074,-0.017,6.728,13.868,10.367
1747685595.57,0.097,-0.037,-0.113,-1.582,0.061,0.013,5.860,13.881,10.769
1747685595.58,0.054,-0.007,-0.114,-1.610,0.079,0.007,4.977,13.900,10.995
1747685595.59,-0.000,0.013,-0.080,-1.641,0.084,-0.016,4.075,13.928,11.377
1747685595.60,-0.026,0.010,-0.061,-1.671,0.108,-0.032,3.154,13.969,11.591
1747685595.61,-0.012,-0.005,-0.037,-1.711,0.112,-0.029,2.213,14.021,11.971
1747685595.62,0.013,-0.022,-0.015,-1.731,0.122,-0.021,1.255,14.082,12.197
1747685595.63,0.037,-0.039,-0.017,-1.741,0.140,-0.011,0.291,14.152,12.589
1747685595.64,0.054,-0.054,-0.018,-1.788,0.177,0.004,-0.686,14.243,12.833
1747685595.65,0.058,-0.062,-0.040,-1.807,0.209,0.016,-1.679,14.359,13.246
1747685595.66,0.028,-0.055,-0.065,-1.833,0.183,0.004,-2.682,14.481,13.510
1747685595.67,-0.006,-0.041,-0.043,-1.872,0.166,-0.016,-3.708,14.595,13.915
1747685595.68,0.001,-0.038,-0.048,-1.880,0.156,-0.031,-4.747,14.707,14.174
1747685595.69,0.019,-0.044,-0.054,-1.862,0.101,-0.069,-5.785,14.803,14.535
1747685595.70,0.014,-0.059,-0.022,-1.854,0.077,-0.096,-6.824,14.877,14.762
1747685595.71,-0.002,-0.074,0.010,-1.781,0.064,-0.174,-7.844,14.941,15.069
1747685595.72,-0.048,-0.076,0.035,-1.781,0.066,-0.244,-8.858,14.999,15.216
1747685595.73,-0.092,-0.065,0.016,-1.786,0.043,-0.280,-9.880,15.050,15.436
1747685595.74,-0.106,-0.055,-0.021,-1.838,0.074,-0.260,-10.919,15.100,15.556
1747685595.75,-0.053,-0.045,-0.018,-1.874,0.167,-0.201,-11.978,15.201,15.794
1747685595.76,0.024,-0.031,0.001,-1.867,0.234,-0.150,-13.035,15.358,15.986
1747685595.77,0.055,-0.019,0.060,-1.866,0.288,-0.167,-14.088,15.556,16.251
1747685595.78,0.023,-0.004,0.108,-1.827,0.286,-0.228,-15.133,15.769,16.435
1747685595.79,-0.033,-0.015,0.090,-1.776,0.297,-0.315,-16.167,15.972,16.633
1747685595.80,-0.053,-0.033,0.053,-1.752,0.290,-0.363,-17.186,16.169,16.727
1747685595.81,-0.048,-0.055,-0.007,-1.786,0.241,-0.347,-18.212,16.349,16.818
1747685595.82,-0.018,-0.068,-0.027,-1.823,0.237,-0.280,-19.251,16.524,16.943
1747685595.83,0.042,-0.076,0.010,-1.844,0.241,-0.221,-20.296,16.721,17.118
1747685595.84,0.061,-0.060,0.055,-1.852,0.184,-0.187,-21.341,16.916,17.326
1747685595.85,0.045,-0.041,0.073,-1.860,0.146,-0.208,-22.385,17.091,17.514
1747685595.86,0.043,-0.005,0.075,-1.869,0.153,-0.267,-23.444,17.249,17.713
1747685595.87,0.064,0.018,0.063,-1.856,0.202,-0.294,-24.506,17.424,17.891
1747685595.88,0.073,0.012,0.062,-1.870,0.187,-0.295,-25.574,17.613,18.068
1747685595.89,0.063,-0.018,0.005,-1.856,0.103,-0.295,-26.637,17.778,18.250
1747685595.90,0.048,-0.052,0.004,-1.898,0.015,-0.268,-27.708,17.898,18.446
1747685595.91,0.070,-0.087,0.055,-1.912,-0.019,-0.218,-28.785,18.005,18.677
1747685595.92,0.090,-0.102,0.054,-1.918,-0.034,-0.216,-29.865,18.117,18.933
1747685595.93,0.060,-0.080,0.030,-1.918,-0.087,-0.225,-30.943,18.211,19.190
1747685595.94,0.043,-0.049,-0.002,-1.954,-0.165,-0.229,-32.035,18.278,19.450
1747685595.95,0.062,-0.029,-0.011,-1.977,-0.284,-0.194,-33.141,18.302,19.731
1747685595.96,0.106,-0.029,0.016,-1.957,-0.365,-0.128,-34.239,18.290,20.050
1747685595.97,0.160,-0.038,0.052,-1.946,-0.382,-0.095,-35.314,18.277,20.363
1747685595.98,0.195,-0.042,0.080,-1.976,-0.410,-0.082,-36.393,18.268,20.735
1747685595.99,0.209,-0.063,0.118,-1.986,-0.402,-0.043,-37.481,18.275,21.058
1747685596.00,0.224,-0.080,0.117,-1.948,-0.329,-0.013,-38.555,18.332,21.489
1747685596.01,0.193,-0.084,0.080,-1.895,-0.318,0.016,-39.595,18.433,21.844
1747685596.02,0.113,-0.080,0.039,-1.899,-0.376,0.056,-40.616,18.541,22.317
1747685596.03,0.031,-0.077,0.012,-1.889,-0.461,0.105,-41.627,18.641,22.672
1747685596.04,-0.033,-0.061,0.010,-1.866,-0.506,0.104,-42.622,18.727,23.213
1747685596.05,-0.075,-0.037,0.041,-1.851,-0.513,0.077,-43.611,18.801,23.583
1747685596.06,-0.073,-0.031,0.061,-1.828,-0.499,0.049,-44.594,18.873,24.103
1747685596.07,-0.036,-0.026,0.070,-1.808,-0.478,0.028,-45.568,18.953,24.429
1747685596.08,0.006,-0.029,0.056,-1.824,-0.474,0.019,-46.544,19.046,24.932
1747685596.09,0.037,-0.034,0.018,-1.835,-0.488,0.014,-47.529,19.148,25.255
1747685596.10,0.031,-0.041,-0.004,-1.782,-0.513,-0.033,-48.508,19.240,25.760
1747685596.11,-0.030,-0.046,-0.015,-1.708,-0.595,-0.121,-49.462,19.252,26.010
1747685596.12,-0.101,-0.043,-0.031,-1.691,-0.641,-0.200,-50.407,19.172,26.369
1747685596.13,-0.108,-0.045,-0.021,-1.737,-0.610,-0.206,-51.371,19.067,26.504
1747685596.14,-0.063,-0.059,0.032,-1.784,-0.589,-0.158,-52.356,19.019,26.875
1747685596.15,-0.017,-0.067,0.049,-1.807,-0.571,-0.119,-53.353,19.034,27.101
1747685596.16,0.020,-0.064,0.062,-1.765,-0.601,-0.109,-54.339,19.075,27.564
1747685596.17,0.050,-0.048,0.078,-1.727,-0.674,-0.108,-55.301,19.089,27.828
1747685596.18,0.068,-0.005,0.062,-1.692,-0.737,-0.108,-56.244,19.068,28.293
1747685596.19,0.068,0.030,0.038,-1.652,-0.804,-0.129,-57.168,19.006,28.535
1747685596.20,0.048,0.043,0.046,-1.617,-0.846,-0.140,-58.076,18.896,28.726
1747685596.21,0.026,0.034,0.021,-1.606,-0.829,-0.135,-58.972,18.780,29.153
1747685596.22,0.048,-0.002,0.030,-1.643,-0.751,-0.132,-59.873,18.710,29.351
1747685596.23,0.095,-0.058,0.069,-1.713,-0.733,-0.110,-60.803,18.710,29.833
1747685596.24,0.141,-0.103,0.083,-1.751,-0.775,-0.042,-61.756,18.790,30.177
1747685596.25,0.164,-0.102,0.070,-1.712,-0.858,0.020,-62.694,18.922,30.854
1747685596.26,0.146,-0.075,0.055,-1.692,-0.961,0.027,-63.608,19.054,31.334
1747685596.27,0.102,-0.027,0.073,-1.699,-1.142,0.047,-64.518,19.153,32.103
1747685596.28,0.051,0.041,0.065,-1.650,-1.346,0.094,-65.411,19.199,32.672
1747685596.29,0.010,0.078,0.051,-1.537,-1.492,0.084,-66.255,19.163,33.525
1747685596.30,-0.045,0.066,0.020,-1.416,-1.519,0.018,-67.040,19.003,34.039
1747685596.31,-0.106,0.013,-0.044,-1.328,-1.389,-0.085,-67.786,18.732,34.653
1747685596.32,-0.177,-0.078,-0.102,-1.250,-1.276,-0.174,-68.508,18.379,34.829
1747685596.33,-0.278,-0.158,-0.197,-1.173,-1.254,-0.212,-69.200,17.938,35.131
1747685596.34,-0.377,-0.193,-0.276,-1.095,-1.152,-0.245,-69.857,17.441,35.087
1747685596.35,-0.457,-0.170,-0.291,-1.016,-0.884,-0.299,-70.477,16.932,35.171
1747685596.36,-0.516,-0.093,-0.232,-0.957,-0.495,-0.357,-71.071,16.480,34.872
1747685596.37,-0.577,-0.006,-0.148,-0.869,-0.032,-0.400,-71.635,16.141,34.677
1747685596.38,-0.609,0.037,-0.074,-0.748,0.521,-0.402,-72.142,15.991,34.136
1747685596.39,-0.546,0.039,-0.007,-0.701,1.040,-0.351,-72.595,16.142,33.822
1747685596.40,-0.412,0.021,0.043,-0.775,1.339,-0.262,-73.045,16.669,33.409
1747685596.41,-0.264,-0.012,0.036,-0.825,1.394,-0.185,-73.523,17.504,33.457
1747685596.42,-0.133,-0.030,-0.025,-0.821,1.336,-0.119,-73.996,18.506,33.430
1747685596.43,-0.012,-0.037,-0.049,-0.818,1.261,-0.123,-74.460,19.566,33.759
1747685596.44,0.086,-0.053,-0.020,-0.782,1.164,-0.194,-74.921,20.525,33.779
1747685596.45,0.170,-0.059,-0.016,-0.727,1.074,-0.282,-75.373,21.263,33.883
1747685596.46,0.232,-0.024,0.002,-0.663,0.957,-0.338,-75.808,21.765,33.524
1747685596.47,0.264,0.041,0.023,-0.616,0.729,-0.364,-76.221,22.049,33.317
1747685596.48,0.237,0.099,0.028,-0.606,0.495,-0.424,-76.628,22.079,32.709
1747685596.49,0.200,0.143,0.038,-0.606,0.366,-0.461,-77.044,21.861,32.235
1747685596.50,0.224,0.131,0.077,-0.618,0.289,-0.446,-77.464,21.549,31.441
1747685596.51,0.252,0.080,0.108,-0.651,0.229,-0.405,-77.889,21.267,31.001
1747685596.52,0.248,0.006,0.147,-0.729,0.145,-0.385,-78.337,21.051,30.388
1747685596.53,0.213,-0.067,0.163,-0.778,-0.031,-0.320,-78.815,20.916,30.214
1747685596.54,0.153,-0.124,0.130,-0.779,-0.230,-0.231,-79.288,20.901,29.990
1747685596.55,0.087,-0.149,0.083,-0.800,-0.342,-0.176,-79.748,21.028,30.289
1747685596.56,0.026,-0.111,0.063,-0.841,-0.348,-0.175,-80.221,21.264,30.454
1747685596.57,-0.019,-0.035,0.045,-0.835,-0.270,-0.209,-80.708,21.532,30.907
1747685596.58,-0.052,0.031,0.026,-0.794,-0.193,-0.260,-81.189,21.700,30.940
1747685596.59,-0.080,0.078,0.010,-0.715,-0.132,-0.326,-81.652,21.631,30.964
1747685596.60,-0.102,0.095,-0.007,-0.623,-0.083,-0.340,-82.079,21.301,30.420
1747685596.61,-0.136,0.091,-0.022,-0.547,-0.028,-0.327,-82.457,20.842,29.988
1747685596.62,-0.187,0.063,-0.012,-0.501,0.039,-0.344,-82.804,20.279,29.121
1747685596.63,-0.242,0.021,-0.012,-0.484,0.108,-0.368,-83.136,19.544,28.340
1747685596.64,-0.267,-0.009,-0.015,-0.510,0.130,-0.363,-83.472,18.706,27.427
1747685596.65,-0.263,-0.036,0.008,-0.565,0.200,-0.301,-83.824,18.025,26.648
1747685596.66,-0.221,-0.060,0.037,-0.630,0.331,-0.224,-84.196,17.809,26.131
1747685596.67,-0.165,-0.059,0.071,-0.659,0.481,-0.169,-84.581,18.133,26.223
1747685596.68,-0.125,-0.050,0.074,-0.641,0.642,-0.162,-84.963,18.786,26.271
1747685596.69,-0.073,-0.039,0.048,-0.618,0.752,-0.181,-85.335,19.472,26.557
1747685596.70,0.012,-0.021,0.025,-0.621,0.814,-0.145,-85.700,20.318,26.957
1747685596.71,0.128,0.007,0.037,-0.664,0.839,-0.057,-86.062,21.860,28.026
1747685596.72,0.210,0.036,0.062,-0.682,0.779,0.030,-86.421,24.549,30.255
1747685596.73,0.235,0.057,0.055,-0.624,0.637,0.059,-86.743,28.179,33.482
1747685596.74,0.212,0.051,0.020,-0.554,0.370,-0.007,-87.026,31.812,36.829
1747685596.75,0.150,0.001,-0.011,-0.505,0.066,-0.099,-87.296,34.756,39.654
1747685596.76,0.117,-0.061,-0.018,-0.446,-0.132,-0.146,-87.558,36.964,41.886
1747685596.77,0.126,-0.087,-0.027,-0.428,-0.292,-0.177,-87.810,38.813,43.858
1747685596.78,0.104,-0.064,-0.039,-0.436,-0.468,-0.199,-88.068,40.673,45.937
1747685596.79,0.054,-0.007,-0.055,-0.432,-0.548,-0.229,-88.336,42.768,48.329
1747685596.80,-0.005,0.034,-0.034,-0.390,-0.501,-0.247,-88.602,44.888,50.752
1747685596.81,-0.054,0.058,-0.020,-0.316,-0.398,-0.241,-88.842,46.750,52.873
1747685596.82,-0.106,0.046,-0.018,-0.295,-0.268,-0.213,-89.054,48.705,55.017
1747685596.83,-0.151,0.016,-0.002,-0.344,-0.161,-0.181,-89.256,53.390,59.826
1747685596.84,-0.186,-0.024,0.004,-0.400,0.000,-0.154,-89.449,65.080,71.564
1747685596.85,-0.183,-0.043,0.014,-0.443,0.213,-0.114,-89.577,91.409,97.834
1747685596.86,-0.151,-0.043,0.028,-0.439,0.369,-0.080,-89.547,125.823,132.080
1747685596.87,-0.105,-0.036,0.023,-0.411,0.436,-0.051,-89.394,147.331,153.355
1747685596.88,-0.047,-0.014,-0.001,-0.372,0.443,-0.019,-89.204,157.573,163.346
1747685596.89,0.011,-0.003,-0.016,-0.330,0.485,-0.015,-89.019,162.698,168.206
1747685596.90,0.053,-0.000,-0.007,-0.332,0.457,-0.030,-88.844,166.341,171.577
1747685596.91,0.072,0.010,-0.018,-0.365,0.338,-0.037,-88.652,169.396,174.406
1747685596.92,0.081,0.006,-0.038,-0.362,0.255,-0.052,-88.449,171.828,176.670
1747685596.93,0.082,-0.009,-0.035,-0.322,0.158,-0.090,-88.258,174.158,178.882
1747685596.94,0.086,-0.012,-0.041,-0.274,0.046,-0.123,-88.094,176.545,-178.789
1747685596.95,0.117,-0.016,-0.039,-0.222,-0.066,-0.138,-87.956,178.864,-176.462
1747685596.96,0.150,-0.012,-0.019,-0.190,-0.172,-0.147,-87.840,-179.003,-174.261
1747685596.97,0.162,0.003,-0.006,-0.174,-0.304,-0.167,-87.732,-176.909,-172.030
1747685596.98,0.148,-0.001,-0.016,-0.153,-0.421,-0.150,-87.633,-174.999,-169.911
1747685596.99,0.123,-0.002,-0.011,-0.167,-0.483,-0.095,-87.537,-173.811,-168.462
1747685597.00,0.089,0.002,-0.004,-0.184,-0.509,-0.053,-87.431,-173.415,-167.780
1747685597.01,0.041,0.012,-0.018,-0.162,-0.521,-0.041,-87.330,-173.364,-167.435
1747685597.02,-0.011,0.019,-0.035,-0.126,-0.523,-0.042,-87.245,-173.355,-167.126
1747685597.03,-0.051,0.011,-0.042,-0.074,-0.455,-0.046,-87.184,-173.211,-166.699
1747685597.04,-0.070,0.006,-0.053,-0.027,-0.262,-0.035,-87.154,-173.030,-166.309
1747685597.05,-0.078,0.012,-0.026,-0.030,-0.029,-0.023,-87.138,-172.833,-166.029
1747685597.06,-0.093,0.013,0.015,-0.077,0.116,-0.004,-87.107,-172.729,-165.955
1747685597.07,-0.107,0.004,0.013,-0.097,0.173,0.016,-87.055,-172.844,-166.155
1747685597.08,-0.109,-0.007,-0.023,-0.072,0.196,0.013,-87.007,-173.043,-166.461
1747685597.09,-0.090,-0.019,-0.035,-0.055,0.209,-0.010,-86.972,-173.000,-166.533
1747685597.10,-0.033,-0.014,-0.010,-0.040,0.231,0.007,-86.944,-172.886,-166.544
1747685597.11,0.041,0.005,0.018,-0.007,0.238,0.034,-86.932,-172.996,-166.791
1747685597.12,0.085,0.028,0.031,0.015,0.190,0.046,-86.937,-173.304,-167.224
1747685597.13,0.095,0.039,0.020,0.040,0.138,0.035,-86.956,-173.620,-167.633
1747685597.14,0.084,0.021,0.014,0.062,0.081,0.021,-86.985,-173.782,-167.860
1747685597.15,0.067,-0.011,0.018,0.083,0.022,0.018,-87.028,-173.872,-167.979
1747685597.16,0.043,-0.021,0.015,0.083,-0.031,0.012,-87.077,-173.910,-168.014
1747685597.17,0.012,-0.011,0.010,0.075,-0.081,-0.006,-87.122,-173.856,-167.926
1747685597.18,-0.005,-0.004,0.017,0.072,-0.098,-0.011,-87.161,-173.674,-167.693
1747685597.19,0.002,-0.004,0.038,0.052,-0.089,0.013,-87.198,-173.692,-167.657
1747685597.20,0.005,-0.006,0.061,0.004,-0.056,0.020,-87.215,-173.942,-167.866
1747685597.21,-0.017,-0.011,0.079,-0.017,-0.061,-0.012,-87.209,-174.086,-167.978
1747685597.22,-0.047,-0.023,0.066,0.002,-0.086,-0.036,-87.203,-173.891,-167.741
1747685597.23,-0.051,-0.028,0.044,0.009,-0.090,-0.043,-87.204,-173.530,-167.328
1747685597.24,-0.033,-0.016,0.040,0.003,-0.094,-0.046,-87.203,-173.082,-166.828
1747685597.25,-0.010,0.004,0.038,0.029,-0.102,-0.048,-87.207,-172.596,-166.284
1747685597.26,0.014,0.022,0.029,0.079,-0.094,-0.031,-87.232,-172.098,-165.728
1747685597.27,0.029,0.030,0.027,0.104,-0.066,-0.010,-87.281,-171.750,-165.334
1747685597.28,0.029,0.015,0.036,0.112,-0.033,0.028,-87.339,-171.743,-165.300
1747685597.29,0.011,-0.009,0.032,0.104,-0.031,0.053,-87.397,-172.099,-165.640
1747685597.30,-0.030,-0.018,0.022,0.094,-0.051,0.049,-87.446,-172.498,-166.016
1747685597.31,-0.068,-0.016,0.013,0.106,-0.037,0.029,-87.497,-172.710,-166.202
1747685597.32,-0.072,-0.018,0.019,0.123,0.006,0.026,-87.558,-172.780,-166.262
1747685597.33,-0.050,-0.016,0.039,0.133,0.037,0.036,-87.626,-172.952,-166.447
1747685597.34,-0.023,-0.005,0.049,0.158,0.043,0.035,-87.706,-173.246,-166.765
1747685597.35,-0.002,0.013,0.038,0.215,0.018,0.026,-87.809,-173.450,-166.987
1747685597.36,0.016,0.031,0.013,0.292,-0.034,0.029,-87.950,-173.492,-167.024
1747685597.37,0.021,0.039,-0.009,0.332,-0.080,0.063,-88.126,-173.755,-167.255
1747685597.38,-0.001,0.040,-0.007,0.373,-0.115,0.080,-88.326,-174.387,-167.830
1747685597.39,-0.046,0.032,-0.019,0.423,-0.064,0.070,-88.553,-174.944,-168.335
1747685597.40,-0.080,-0.001,-0.032,0.473,0.056,0.066,-88.807,-175.359,-168.746
1747685597.41,-0.089,-0.040,-0.045,0.497,0.184,0.067,-89.082,-176.004,-169.461
1747685597.42,-0.076,-0.051,-0.052,0.509,0.278,0.070,-89.364,-177.420,-171.011
1747685597.43,-0.049,-0.033,-0.063,0.560,0.334,0.073,-89.669,178.133,-175.634
1747685597.44,-0.009,-0.010,-0.077,0.635,0.389,0.086,-89.947,79.886,85.913
1747685597.45,0.053,0.004,-0.067,0.668,0.479,0.129,-89.600,16.801,22.579
1747685597.46,0.119,0.013,-0.033,0.639,0.536,0.203,-89.214,15.662,21.148
1747685597.47,0.154,0.009,-0.004,0.578,0.497,0.266,-88.842,17.760,22.947
1747685597.48,0.124,-0.016,0.011,0.541,0.358,0.272,-88.490,19.897,24.839
1747685597.49,0.061,-0.051,0.016,0.571,0.225,0.247,-88.142,21.049,25.827
1747685597.50,0.028,-0.069,0.033,0.615,0.076,0.207,-87.779,21.086,25.776
1747685597.51,0.008,-0.039,0.047,0.641,-0.008,0.172,-87.405,20.465,25.140
1747685597.52,-0.015,-0.003,0.050,0.713,0.027,0.143,-87.013,19.519,24.190
1747685597.53,-0.039,-0.010,0.020,0.847,0.043,0.083,-86.571,18.088,22.733
1747685597.54,-0.071,-0.019,-0.028,0.864,-0.024,0.048,-86.086,16.352,20.984
1747685597.55,-0.093,-0.009,-0.007,0.810,-0.108,0.031,-85.621,14.846,19.515
1747685597.56,-0.092,0.009,0.046,0.812,-0.092,0.045,-85.168,13.615,18.341
1747685597.57,-0.057,0.007,0.032,0.843,-0.034,0.080,-84.702,12.749,17.507
1747685597.58,-0.026,-0.016,0.016,0.934,-0.041,0.127,-84.195,12.202,16.978
1747685597.59,0.005,-0.028,0.013,0.940,0.067,0.176,-83.647,11.934,16.709
1747685597.60,0.039,-0.012,0.087,0.807,0.243,0.192,-83.136,12.034,16.716
1747685597.61,0.030,0.001,0.143,0.742,0.191,0.162,-82.687,12.236,16.787
1747685597.62,-0.031,-0.015,0.043,0.768,0.026,0.115,-82.249,12.194,16.682
1747685597.63,-0.074,-0.021,-0.014,0.760,-0.054,0.106,-81.806,11.956,16.146
1747685597.64,-0.069,-0.000,0.028,0.742,0.038,0.115,-81.374,11.773,15.970
1747685597.65,-0.043,0.017,0.068,0.806,0.193,0.111,-80.931,11.671,15.504
1747685597.66,-0.017,0.025,0.032,0.889,0.289,0.083,-80.446,11.556,15.244
1747685597.67,-0.015,0.031,-0.007,0.959,0.268,0.058,-79.920,11.331,14.571
1747685597.68,-0.023,0.029,-0.010,0.937,0.215,0.072,-79.378,11.082,14.178
1747685597.69,-0.015,0.026,0.058,0.840,0.176,0.079,-78.871,10.915,13.634
1747685597.70,-0.034,0.020,0.083,0.823,0.232,0.061,-78.402,10.789,13.393
1747685597.71,-0.078,0.014,0.043,0.882,0.372,0.026,-77.917,10.645,12.803
1747685597.72,-0.118,0.015,0.029,0.836,0.462,-0.006,-77.429,10.496,12.404
1747685597.73,-0.153,0.020,0.061,0.751,0.545,-0.012,-76.986,10.391,11.741
1747685597.74,-0.162,0.030,0.058,0.747,0.651,0.001,-76.569,10.391,11.390
1747685597.75,-0.149,0.040,0.036,0.793,0.759,0.020,-76.138,10.490,10.826
1747685597.76,-0.114,0.035,0.027,0.885,0.809,0.038,-75.664,10.655,10.532
1747685597.77,-0.069,0.019,0.012,0.967,0.761,0.043,-75.139,10.816,9.985
1747685597.78,-0.039,0.004,0.011,1.012,0.598,0.041,-74.577,10.901,9.668
1747685597.79,-0.036,-0.006,-0.035,0.992,0.616,0.018,-74.008,10.911,9.086
1747685597.80,-0.044,-0.013,0.006,0.910,0.659,0.010,-73.472,10.954,8.746
1747685597.81,-0.078,-0.008,0.049,0.819,0.558,0.002,-72.988,11.003,8.207
1747685597.82,-0.141,0.011,0.019,0.772,0.509,-0.004,-72.545,11.018,7.704
1747685597.83,-0.156,0.031,0.001,0.733,0.555,-0.000,-72.121,11.056,7.426
1747685597.84,-0.134,0.047,-0.005,0.659,0.600,-0.024,-71.733,11.131,6.955
1747685597.85,-0.084,0.041,0.013,0.679,0.586,-0.042,-71.369,11.194,6.663
1747685597.86,0.005,0.004,0.003,0.868,0.562,-0.040,-70.945,11.205,6.132
1747685597.87,0.091,-0.031,-0.027,1.058,0.448,-0.038,-70.405,11.132,5.745
1747685597.88,0.096,-0.044,-0.045,1.119,0.383,-0.070,-69.795,10.946,5.113
1747685597.89,0.058,-0.047,0.004,1.034,0.555,-0.094,-69.195,10.772,4.645
1747685597.90,0.020,-0.044,0.127,0.922,0.621,-0.099,-68.660,10.709,4.017
1747685597.91,-0.067,-0.023,0.101,0.928,0.578,-0.122,-68.156,10.651,3.586
1747685597.91,-0.164,0.015,-0.020,0.941,0.584,-0.162,-67.644,10.542,2.920
1747685597.93,-0.186,0.041,-0.049,0.895,0.679,-0.150,-67.144,10.449,2.433
1747685597.94,-0.108,0.028,0.001,0.884,0.807,-0.050,-66.657,10.526,1.872
1747685597.95,0.021,0.002,0.031,0.940,0.775,0.043,-66.146,10.763,1.630
1747685597.96,0.126,-0.012,-0.030,1.017,0.657,0.083,-65.589,11.018,1.298
1747685597.96,0.172,-0.025,-0.052,1.050,0.540,0.038,-65.002,11.189,1.111
1747685597.98,0.181,-0.034,0.005,1.081,0.485,-0.046,-64.404,11.228,0.674
1747685597.98,0.140,-0.046,0.082,1.105,0.359,-0.127,-63.802,11.119,0.281
1747685597.99,0.051,-0.054,0.066,1.097,0.232,-0.160,-63.196,10.882,-0.322
1747685598.00,-0.039,-0.055,0.012,0.974,0.193,-0.163,-62.631,10.601,-0.767
1747685598.01,-0.064,-0.054,0.024,0.853,0.274,-0.121,-62.135,10.395,-1.303
1747685598.02,0.009,-0.054,0.031,0.794,0.300,0.002,-61.679,10.339,-1.557
1747685598.03,0.137,-0.043,0.040,0.751,0.220,0.142,-61.239,10.422,-1.775
1747685598.04,0.246,-0.017,0.066,0.801,0.037,0.271,-60.785,10.561,-1.701
1747685598.06,0.316,0.001,0.034,0.921,-0.149,0.352,-60.269,10.682,-1.646
1747685598.06,0.322,0.018,0.015,1.001,-0.261,0.350,-59.688,10.731,-1.451
1747685598.08,0.235,0.032,0.010,1.060,-0.330,0.251,-59.080,10.666,-1.450
1747685598.08,0.096,0.036,0.011,1.125,-0.298,0.175,-58.441,10.486,-1.447
1747685598.09,-0.019,0.019,0.049,1.080,-0.238,0.171,-57.802,10.298,-1.591
1747685598.10,-0.111,-0.003,0.017,1.002,-0.189,0.211,-57.199,10.183,-1.584
1747685598.11,-0.138,-0.025,-0.043,0.890,-0.104,0.239,-56.642,10.146,-1.528
1747685598.12,-0.107,-0.050,-0.034,0.814,-0.055,0.272,-56.142,10.192,-1.422
1747685598.13,-0.051,-0.062,-0.032,0.837,-0.080,0.290,-55.650,10.267,-1.289
1747685598.14,-0.001,-0.066,-0.041,0.863,-0.096,0.311,-55.142,10.334,-1.145
1747685598.15,0.031,-0.049,-0.006,0.908,-0.029,0.300,-54.613,10.413,-1.002
1747685598.16,0.009,-0.018,0.020,0.920,0.045,0.258,-54.069,10.505,-0.898
1747685598.17,-0.055,0.001,0.058,0.889,0.128,0.247,-53.535,10.619,-0.820
1747685598.18,-0.104,0.018,0.097,0.871,0.198,0.258,-53.015,10.778,-0.740
1747685598.19,-0.123,0.036,0.044,0.854,0.162,0.260,-52.502,10.953,-0.652
1747685598.20,-0.094,0.046,-0.047,0.807,0.111,0.256,-52.009,11.099,-0.566
1747685598.21,-0.024,0.051,-0.063,0.809,0.118,0.233,-51.530,11.230,-0.489
1747685598.22,0.032,0.035,-0.032,0.876,0.007,0.284,-51.032,11.332,-0.408
1747685598.23,0.071,0.018,-0.027,0.939,-0.156,0.333,-50.486,11.374,-0.296
1747685598.24,0.071,0.011,-0.039,0.974,-0.145,0.267,-49.916,11.358,-0.197
1747685598.25,0.061,0.027,-0.020,0.972,-0.116,0.184,-49.344,11.303,-0.173
1747685598.26,0.032,0.029,-0.005,0.953,-0.121,0.153,-48.786,11.219,-0.197
1747685598.27,-0.013,0.013,-0.001,0.933,-0.101,0.143,-48.240,11.130,-0.229
1747685598.28,-0.041,0.003,0.007,0.912,0.022,0.121,-47.709,11.073,-0.270
1747685598.29,-0.049,-0.004,0.037,0.923,0.133,0.141,-47.181,11.085,-0.315
1747685598.30,-0.057,-0.016,0.056,0.937,0.208,0.183,-46.641,11.177,-0.329
1747685598.31,-0.086,-0.011,0.030,0.957,0.177,0.180,-46.089,11.283,-0.335
1747685598.32,-0.101,-0.002,-0.003,0.938,0.188,0.168,-45.539,11.379,-0.347
1747685598.33,-0.055,0.002,0.038,0.963,0.182,0.155,-44.990,11.468,-0.372
1747685598.34,-0.013,-0.004,0.057,0.974,0.120,0.163,-44.429,11.534,-0.403
1747685598.35,0.028,0.001,0.041,0.971,0.059,0.163,-43.867,11.568,-0.429
1747685598.36,0.076,0.010,0.043,1.010,-0.046,0.115,-43.296,11.538,-0.477
1747685598.37,0.106,0.008,0.034,1.049,-0.028,0.082,-42.710,11.452,-0.564
1747685598.38,0.143,0.005,0.055,1.092,0.031,0.065,-42.101,11.381,-0.674
1747685598.39,0.142,0.011,0.024,1.117,0.018,0.076,-41.473,11.319,-0.791
1747685598.40,0.096,0.022,-0.000,1.113,-0.044,0.115,-40.837,11.248,-0.889
1747685598.41,0.027,0.025,0.023,1.073,-0.055,0.178,-40.208,11.185,-0.938
1747685598.42,-0.018,0.028,0.046,1.055,0.031,0.148,-39.593,11.154,-0.970
1747685598.43,-0.041,0.027,0.064,1.037,0.127,0.124,-38.993,11.169,-1.022
1747685598.44,-0.022,0.021,0.078,1.036,0.091,0.149,-38.397,11.204,-1.075
1747685598.45,0.000,0.016,0.065,1.051,0.058,0.178,-37.794,11.226,-1.106
1747685598.46,0.021,0.009,0.055,1.040,0.085,0.232,-37.184,11.264,-1.110
1747685598.47,0.061,0.011,0.031,1.023,0.122,0.287,-36.577,11.345,-1.072
1747685598.48,0.081,0.036,0.014,1.013,0.075,0.311,-35.974,11.444,-1.005
1747685598.49,0.083,0.064,0.022,1.009,0.013,0.304,-35.370,11.507,-0.937
1747685598.50,0.077,0.064,0.043,1.036,-0.035,0.294,-34.768,11.537,-0.873
1747685598.51,0.049,0.040,0.029,1.071,-0.120,0.274,-34.144,11.520,-0.825
1747685598.52,0.002,0.024,0.039,1.132,-0.178,0.207,-33.501,11.439,-0.812
1747685598.53,-0.059,0.009,0.031,1.192,-0.161,0.108,-32.831,11.311,-0.867
1747685598.54,-0.104,-0.011,-0.014,1.205,-0.098,0.038,-32.152,11.179,-0.975
1747685598.55,-0.111,-0.039,-0.009,1.261,-0.081,-0.067,-31.464,11.040,-1.146
1747685598.56,-0.131,-0.098,-0.005,1.282,-0.003,-0.100,-30.759,10.901,-1.362
1747685598.57,-0.099,-0.152,0.006,1.280,0.130,-0.119,-30.052,10.818,-1.594
1747685598.58,-0.072,-0.224,0.002,1.229,0.096,-0.071,-29.352,10.781,-1.825
1747685598.59,0.058,-0.213,0.023,1.130,0.004,0.193,-28.688,10.751,-1.933
1747685598.60,0.205,-0.075,0.052,1.092,0.004,0.360,-28.034,10.780,-1.879
1747685598.61,0.191,0.048,0.059,1.116,-0.003,0.295,-27.381,10.822,-1.802
1747685598.62,0.070,0.086,0.031,1.163,-0.118,0.239,-26.711,10.800,-1.774
1747685598.63,0.006,0.056,-0.011,1.204,-0.140,0.219,-26.023,10.725,-1.773
1747685598.64,-0.000,0.017,0.002,1.249,-0.120,0.208,-25.313,10.647,-1.784
1747685598.65,0.019,-0.001,0.025,1.315,-0.085,0.174,-24.573,10.577,-1.814
1747685598.66,0.026,-0.011,0.028,1.354,-0.076,0.142,-23.807,10.510,-1.871
1747685598.67,-0.014,-0.027,0.028,1.361,-0.053,0.137,-23.029,10.443,-1.942
1747685598.68,-0.068,-0.035,0.040,1.335,0.004,0.160,-22.256,10.405,-2.003
1747685598.69,-0.097,-0.020,0.030,1.294,0.019,0.176,-21.498,10.399,-2.044
1747685598.70,-0.080,0.002,0.018,1.261,-0.026,0.179,-20.762,10.386,-2.079
1747685598.71,0.015,0.021,0.004,1.225,-0.091,0.249,-20.042,10.349,-2.091
1747685598.72,0.134,0.041,-0.022,1.222,-0.142,0.309,-19.328,10.289,-2.052
1747685598.73,0.206,0.051,-0.036,1.239,-0.160,0.322,-18.604,10.220,-1.999
1747685598.74,0.167,0.024,-0.024,1.228,-0.150,0.366,-17.876,10.152,-1.927
1747685598.75,0.083,0.001,-0.017,1.249,-0.095,0.388,-17.146,10.108,-1.832
1747685598.76,-0.015,-0.013,-0.000,1.293,-0.016,0.413,-16.391,10.105,-1.728
1747685598.77,-0.067,0.014,0.030,1.346,0.038,0.364,-15.607,10.138,-1.636
1747685598.78,-0.048,0.050,0.042,1.314,0.061,0.292,-14.824,10.181,-1.585
1747685598.79,0.005,0.039,0.056,1.268,0.051,0.288,-14.072,10.221,-1.554
1747685598.80,0.078,0.012,0.050,1.280,-0.014,0.276,-13.325,10.243,-1.384
1747685598.81,0.114,-0.057,0.014,1.278,-0.045,0.289,-12.576,10.231,-1.356
1747685598.82,0.124,-0.068,-0.013,1.266,-0.012,0.309,-11.829,10.222,-1.045
1747685598.83,0.049,-0.034,-0.033,1.296,0.037,0.321,-11.080,10.237,-0.993
1747685598.84,-0.061,-0.020,-0.034,1.286,0.142,0.312,-10.319,10.297,-0.654
1747685598.85,-0.114,0.020,-0.011,1.242,0.248,0.317,-9.577,10.415,-0.606
1747685598.86,-0.127,0.069,0.009,1.219,0.328,0.293,-8.854,10.588,-0.261
1747685598.87,-0.122,0.099,-0.000,1.170,0.367,0.278,-8.154,10.795,-0.228
1747685598.88,-0.096,0.111,-0.032,1.145,0.334,0.273,-7.476,11.001,0.103
1747685598.89,-0.058,0.093,-0.068,1.155,0.187,0.207,-6.804,11.153,0.112
1747685598.90,0.002,0.016,-0.076,1.203,0.088,0.163,-6.126,11.227,0.382
1747685598.91,0.081,-0.046,-0.040,1.236,-0.035,0.105,-5.423,11.239,0.322
1747685598.92,0.111,-0.037,-0.043,1.229,-0.125,0.050,-4.727,11.179,0.515
1747685598.93,0.093,-0.051,-0.067,1.243,-0.152,0.059,-4.023,11.089,0.405
1747685598.94,0.046,-0.060,-0.027,1.174,-0.062,0.101,-3.338,11.018,0.617
1747685598.95,0.009,-0.021,0.020,1.145,0.026,0.167,-2.677,11.007,0.568
1747685598.96,-0.041,0.071,0.009,1.098,0.088,0.212,-2.026,11.037,0.847
1747685598.97,-0.060,0.140,-0.002,1.073,0.180,0.241,-1.394,11.117,0.856
1747685598.98,-0.016,0.148,-0.037,1.076,0.168,0.221,-0.766,11.223,1.176
1747685598.99,0.022,0.096,-0.074,1.063,0.092,0.175,-0.146,11.295,1.166
1747685599.00,0.059,0.074,-0.056,1.069,-0.010,0.198,0.473,11.320,1.449
1747685599.01,0.045,0.036,-0.046,1.029,-0.075,0.209,1.085,11.295,1.444
1747685599.02,0.035,0.030,-0.061,1.046,-0.161,0.187,1.690,11.228,1.763
1747685599.03,0.037,-0.037,-0.089,1.029,-0.212,0.159,2.289,11.121,1.741
1747685599.04,0.055,-0.060,-0.051,1.023,-0.228,0.162,2.882,10.995,2.031
1747685599.05,0.031,-0.064,-0.041,1.011,-0.184,0.136,3.472,10.876,2.006
1747685599.06,-0.024,-0.080,-0.035,0.989,-0.083,0.136,4.044,10.802,2.280
1747685599.07,-0.070,-0.044,-0.040,0.983,0.070,0.147,4.614,10.799,2.255
1747685599.08,-0.107,0.015,-0.018,0.976,0.176,0.157,5.180,10.875,2.541
1747685599.09,-0.145,0.108,0.017,0.967,0.206,0.132,5.742,10.987,2.521
1747685599.10,-0.127,0.150,-0.007,0.961,0.195,0.074,6.292,11.106,2.783
1747685599.11,-0.004,0.134,-0.030,0.932,0.112,0.033,6.831,11.206,2.705
1747685599.12,0.094,0.126,-0.048,0.924,0.000,0.024,7.357,11.249,2.922
1747685599.13,0.129,-0.023,-0.096,0.897,-0.082,0.003,7.870,11.236,2.825
1747685599.14,0.120,-0.104,-0.122,0.844,-0.129,0.035,8.360,11.186,3.043
1747685599.15,0.082,-0.067,-0.142,0.823,-0.099,0.072,8.832,11.127,2.979
1747685599.16,0.012,-0.061,-0.120,0.789,0.007,0.083,9.292,11.109,3.223
1747685599.17,-0.066,0.011,-0.078,0.782,0.113,0.095,9.743,11.148,3.186
1747685599.18,-0.091,0.098,-0.070,0.783,0.183,0.068,10.193,11.243,3.442
1747685599.19,-0.081,0.089,-0.009,0.760,0.196,0.068,10.631,11.361,3.393
1747685599.20,-0.022,0.068,-0.010,0.719,0.172,0.003,11.048,11.481,3.639
1747685599.21,0.039,0.031,-0.064,0.693,0.099,-0.037,11.440,11.577,3.546
1747685599.22,0.116,-0.040,-0.118,0.658,0.004,-0.023,11.812,11.628,3.738
1747685599.23,0.155,-0.059,-0.178,0.605,-0.101,-0.009,12.166,11.615,3.654
1747685599.24,0.122,-0.106,-0.183,0.546,-0.108,0.016,12.487,11.568,3.877
1747685599.25,0.058,-0.088,-0.161,0.502,-0.050,0.011,12.783,11.529,3.823
1747685599.26,-0.003,-0.015,-0.115,0.463,0.056,0.007,13.055,11.543,4.064
1747685599.27,-0.019,0.029,-0.070,0.404,0.139,-0.004,13.299,11.612,4.015
1747685599.28,0.011,0.001,-0.058,0.330,0.167,-0.011,13.502,11.713,4.253
1747685599.29,0.064,-0.048,-0.060,0.257,0.147,0.009,13.667,11.813,4.216
1747685599.30,0.099,-0.075,-0.092,0.178,0.129,0.034,13.790,11.894,4.493
1747685599.31,0.106,-0.069,-0.168,0.096,0.119,0.030,13.870,11.964,4.496
1747685599.32,0.074,-0.069,-0.202,0.019,0.099,0.032,13.907,12.023,4.795
1747685599.33,0.045,-0.075,-0.234,-0.069,0.088,0.033,13.898,12.071,4.815
1747685599.34,0.074,-0.085,-0.252,-0.164,0.072,0.038,13.837,12.108,5.129
1747685599.35,0.081,-0.090,-0.238,-0.268,0.027,0.042,13.722,12.125,5.179
1747685599.36,0.047,-0.094,-0.219,-0.390,0.011,0.030,13.542,12.120,5.524
1747685599.37,0.015,-0.098,-0.189,-0.503,0.020,0.013,13.294,12.114,5.592
1747685599.38,-0.009,-0.102,-0.164,-0.597,0.035,-0.001,12.987,12.114,5.955
1747685599.39,-0.010,-0.102,-0.181,-0.687,0.042,-0.014,12.628,12.120,6.029
1747685599.40,0.008,-0.093,-0.221,-0.779,0.049,-0.014,12.218,12.127,6.384
1747685599.41,0.019,-0.090,-0.225,-0.891,0.068,-0.005,11.750,12.143,6.741
1747685599.42,0.025,-0.105,-0.215,-0.990,0.051,-0.016,11.223,12.155,6.851
1747685599.43,0.040,-0.127,-0.243,-1.085,0.017,-0.027,10.640,12.153,7.217
1747685599.44,0.060,-0.143,-0.237,-1.168,0.004,-0.006,10.010,12.137,7.345
1747685599.45,0.055,-0.127,-0.211,-1.246,0.009,0.019,9.336,12.114,7.745
1747685599.46,0.023,-0.076,-0.200,-1.318,-0.003,0.002,8.622,12.091,7.908
1747685599.47,-0.020,-0.026,-0.185,-1.380,0.002,-0.036,7.865,12.069,8.310
1747685599.48,-0.041,-0.011,-0.142,-1.420,0.027,-0.058,7.076,12.059,8.452
1747685599.49,-0.019,-0.030,-0.116,-1.461,0.037,-0.095,6.261,12.061,8.805
1747685599.50,0.035,-0.036,-0.104,-1.508,0.048,-0.129,5.418,12.075,8.920
1747685599.51,0.072,-0.034,-0.086,-1.554,0.035,-0.111,4.548,12.089,9.252
1747685599.52,0.070,-0.035,-0.125,-1.613,0.031,-0.047,3.654,12.096,9.397
1747685599.53,0.036,-0.031,-0.128,-1.675,0.074,-0.014,2.733,12.113,9.786
1747685599.54,0.006,-0.029,-0.110,-1.727,0.121,0.002,1.781,12.162,9.988
1747685599.55,0.022,-0.035,-0.133,-1.744,0.157,0.005,0.812,12.237,10.400
1747685599.56,0.036,-0.041,-0.083,-1.759,0.190,-0.047,-0.168,12.335,10.604
1747685599.57,0.032,-0.042,-0.025,-1.759,0.200,-0.092,-1.158,12.451,10.954
1747685599.58,0.014,-0.030,-0.041,-1.783,0.177,-0.112,-2.157,12.564,11.115
1747685599.59,-0.042,0.004,-0.045,-1.793,0.192,-0.131,-3.167,12.676,11.444
1747685599.60,-0.105,0.043,-0.054,-1.843,0.175,-0.164,-4.197,12.793,11.592
1747685599.61,-0.122,0.062,-0.100,-1.891,0.142,-0.173,-5.260,12.895,11.895
1747685599.62,-0.071,0.038,-0.088,-1.931,0.143,-0.156,-6.346,12.993,12.049
1747685599.63,0.007,-0.008,-0.042,-1.915,0.096,-0.154,-7.438,13.081,12.352
1747685599.64,0.056,-0.053,-0.045,-1.903,0.099,-0.194,-8.524,13.156,12.506
1747685599.65,0.059,-0.077,0.006,-1.862,0.097,-0.242,-9.599,13.231,12.758
1747685599.66,0.005,-0.086,0.053,-1.840,0.125,-0.286,-10.661,13.311,12.854
1747685599.67,-0.045,-0.080,0.051,-1.895,0.173,-0.291,-11.735,13.412,13.056
1747685599.68,-0.052,-0.064,0.051,-1.940,0.194,-0.257,-12.840,13.539,13.161
1747685599.69,-0.021,-0.037,0.034,-1.934,0.229,-0.216,-13.947,13.690,13.390
1747685599.70,0.010,-0.004,0.037,-1.909,0.243,-0.208,-15.042,13.863,13.539
1747685599.71,0.025,0.026,0.037,-1.868,0.209,-0.243,-16.119,14.031,13.764
1747685599.72,0.021,0.033,0.048,-1.846,0.190,-0.286,-17.183,14.178,13.881
1747685599.73,0.012,0.020,0.052,-1.853,0.193,-0.302,-18.248,14.319,14.043
1747685599.74,0.003,-0.008,0.016,-1.858,0.176,-0.296,-19.318,14.457,14.146
1747685599.75,-0.011,-0.038,0.011,-1.841,0.222,-0.262,-20.381,14.607,14.302
1747685599.76,-0.017,-0.056,0.055,-1.824,0.300,-0.248,-21.429,14.806,14.438
1747685599.77,-0.023,-0.071,0.043,-1.821,0.290,-0.260,-22.471,15.027,14.610
1747685599.78,-0.033,-0.076,0.029,-1.802,0.278,-0.285,-23.511,15.239,14.741
1747685599.79,-0.019,-0.075,0.067,-1.754,0.253,-0.313,-24.535,15.438,14.870
1747685599.80,-0.002,-0.078,0.062,-1.729,0.215,-0.330,-25.544,15.614,14.968
1747685599.81,0.001,-0.074,0.056,-1.717,0.218,-0.339,-26.543,15.776,15.061
1747685599.82,0.009,-0.071,0.056,-1.725,0.264,-0.349,-27.543,15.954,15.150
1747685599.83,0.012,-0.067,0.071,-1.725,0.251,-0.359,-28.545,16.146,15.193
1747685599.84,-0.006,-0.068,0.074,-1.758,0.190,-0.336,-29.556,16.320,15.292
1747685599.85,0.016,-0.066,0.039,-1.791,0.155,-0.273,-30.578,16.487,15.368
1747685599.86,0.068,-0.065,0.040,-1.790,0.143,-0.204,-31.599,16.670,15.559
1747685599.87,0.099,-0.062,0.075,-1.712,0.126,-0.179,-32.590,16.864,15.706
1747685599.88,0.105,-0.045,0.038,-1.642,0.101,-0.215,-33.536,17.042,15.912
1747685599.89,0.079,-0.030,0.010,-1.621,0.006,-0.252,-34.466,17.173,15.995
1747685599.90,0.035,-0.046,0.005,-1.628,-0.103,-0.260,-35.395,17.236,16.160
1747685599.91,-0.015,-0.061,0.015,-1.652,-0.112,-0.290,-36.335,17.265,16.195
1747685599.92,-0.038,-0.058,0.063,-1.688,-0.157,-0.303,-37.297,17.282,16.345
1747685599.93,-0.026,-0.061,0.066,-1.721,-0.250,-0.256,-38.275,17.271,16.393
1747685599.94,0.025,-0.057,0.029,-1.722,-0.298,-0.163,-39.251,17.254,16.621
1747685599.95,0.084,-0.057,0.028,-1.706,-0.289,-0.139,-40.211,17.260,16.760
1747685599.96,0.095,-0.015,0.001,-1.688,-0.278,-0.172,-41.163,17.273,17.030
1747685599.97,0.060,0.009,-0.029,-1.641,-0.292,-0.251,-42.107,17.263,17.085
1747685599.98,-0.023,0.013,-0.040,-1.614,-0.313,-0.325,-43.042,17.195,17.245
1747685599.99,-0.097,0.004,-0.038,-1.639,-0.237,-0.363,-43.987,17.116,17.189
1747685600.00,-0.137,-0.010,0.017,-1.674,-0.115,-0.367,-44.952,17.093,17.298
1747685600.01,-0.160,-0.033,0.070,-1.713,-0.051,-0.347,-45.937,17.138,17.229
1747685600.02,-0.149,-0.027,0.080,-1.747,-0.005,-0.294,-46.936,17.244,17.398
1747685600.03,-0.086,-0.013,0.101,-1.754,0.056,-0.235,-47.938,17.426,17.431
1747685600.04,0.013,-0.001,0.113,-1.755,0.086,-0.156,-48.926,17.689,17.726
1747685600.05,0.127,0.015,0.086,-1.746,0.026,-0.107,-49.900,18.000,17.891
1747685600.06,0.218,0.030,0.033,-1.705,-0.028,-0.093,-50.855,18.306,18.289
1747685600.07,0.267,0.027,0.018,-1.633,-0.063,-0.161,-51.782,18.575,18.458
1747685600.08,0.207,0.023,0.019,-1.554,-0.127,-0.303,-52.686,18.738,18.728
1747685600.09,0.071,0.029,0.022,-1.498,-0.281,-0.434,-53.578,18.727,18.625
1747685600.10,-0.050,0.016,0.018,-1.503,-0.378,-0.488,-54.472,18.564,18.661
1747685600.11,-0.085,0.002,0.041,-1.581,-0.355,-0.432,-55.390,18.391,18.479
1747685600.12,-0.043,0.005,0.076,-1.671,-0.309,-0.341,-56.341,18.325,18.627
1747685600.13,0.044,-0.007,0.108,-1.738,-0.349,-0.231,-57.318,18.374,18.683
1747685600.14,0.148,-0.025,0.142,-1.731,-0.484,-0.125,-58.293,18.485,19.093
1747685600.15,0.238,-0.040,0.158,-1.703,-0.612,-0.083,-59.242,18.596,19.364
1747685600.16,0.285,-0.025,0.146,-1.590,-0.652,-0.114,-60.153,18.662,19.862
1747685600.17,0.263,-0.001,0.101,-1.440,-0.725,-0.211,-61.000,18.606,20.011
1747685600.18,0.163,0.030,0.027,-1.396,-0.838,-0.329,-61.814,18.361,20.243
1747685600.19,0.047,0.047,-0.005,-1.422,-0.911,-0.382,-62.643,17.964,20.120
1747685600.20,-0.041,0.050,-0.015,-1.440,-0.929,-0.346,-63.485,17.536,20.232
1747685600.21,-0.096,0.018,0.012,-1.458,-0.865,-0.288,-64.330,17.172,20.167
1747685600.22,-0.108,-0.023,0.040,-1.467,-0.789,-0.236,-65.174,16.918,20.133
1747685600.23,-0.083,-0.057,0.025,-1.442,-0.722,-0.205,-66.006,16.755,20.427
1747685600.24,-0.041,-0.077,0.021,-1.444,-0.646,-0.203,-66.827,16.651,20.467
1747685600.25,-0.023,-0.081,0.054,-1.446,-0.546,-0.236,-67.657,16.591,20.771
1747685600.26,-0.038,-0.080,0.073,-1.347,-0.476,-0.288,-68.466,16.504,20.715
1747685600.27,-0.055,-0.071,0.050,-1.244,-0.453,-0.264,-69.219,16.385,20.874
1747685600.28,-0.080,-0.064,0.008,-1.174,-0.361,-0.226,-69.918,16.312,20.771
1747685600.29,-0.077,-0.073,-0.038,-1.192,-0.223,-0.206,-70.599,16.343,20.984
1747685600.30,-0.064,-0.089,-0.019,-1.189,-0.077,-0.202,-71.286,16.496,20.966
1747685600.31,-0.058,-0.100,-0.009,-1.170,-0.085,-0.213,-71.963,16.691,21.213
1747685600.32,-0.066,-0.081,-0.018,-1.244,-0.185,-0.207,-72.656,16.876,21.230
1747685600.33,-0.027,-0.052,0.027,-1.337,-0.248,-0.172,-73.393,17.120,21.612
1747685600.34,0.042,-0.018,0.061,-1.351,-0.325,-0.180,-74.158,17.417,21.833
1747685600.35,0.104,-0.006,0.035,-1.292,-0.357,-0.146,-74.909,17.721,22.350
1747685600.36,0.164,-0.005,0.033,-1.161,-0.393,-0.092,-75.599,18.084,22.672
1747685600.37,0.203,-0.024,0.018,-1.025,-0.415,-0.044,-76.200,18.477,23.317
1747685600.38,0.205,-0.064,-0.005,-0.990,-0.467,-0.014,-76.749,18.930,23.752
1747685600.39,0.163,-0.091,-0.077,-0.936,-0.617,-0.035,-77.275,19.365,24.515
1747685600.40,0.073,-0.085,-0.231,-0.855,-0.734,-0.111,-77.771,19.561,24.839
1747685600.41,-0.028,-0.045,-0.262,-0.794,-0.731,-0.198,-78.245,19.495,25.202
1747685600.42,-0.128,-0.001,-0.188,-0.701,-0.648,-0.281,-78.694,19.162,24.988
1747685600.43,-0.203,0.028,-0.147,-0.611,-0.473,-0.344,-79.105,18.588,24.734
1747685600.44,-0.236,0.036,-0.127,-0.595,-0.166,-0.368,-79.494,17.934,23.983
1747685600.45,-0.214,0.008,-0.106,-0.623,0.058,-0.327,-79.887,17.435,23.501
1747685600.46,-0.164,-0.053,-0.097,-0.675,0.118,-0.282,-80.292,17.160,22.895
1747685600.47,-0.119,-0.098,-0.064,-0.714,0.133,-0.145,-80.710,17.225,22.889
1747685600.48,-0.088,-0.084,-0.047,-0.686,0.157,-0.032,-81.107,17.781,23.099
1747685600.49,-0.116,-0.046,-0.084,-0.599,0.213,-0.046,-81.463,18.541,23.763
1747685600.50,-0.193,-0.014,-0.107,-0.515,0.345,-0.178,-81.784,19.000,23.789
1747685600.51,-0.274,0.011,-0.081,-0.417,0.432,-0.343,-82.086,18.835,23.396
1747685600.52,-0.323,0.037,-0.099,-0.287,0.474,-0.474,-82.350,17.925,21.941
1747685600.53,-0.312,0.047,-0.108,-0.220,0.550,-0.532,-82.571,16.433,20.143
1747685600.54,-0.232,0.043,-0.070,-0.222,0.685,-0.512,-82.771,14.790,17.869
1747685600.55,-0.119,0.041,-0.022,-0.268,0.830,-0.440,-82.972,13.370,16.002
1747685600.56,-0.022,0.066,0.003,-0.302,0.959,-0.341,-83.183,12.379,14.227
1747685600.57,0.054,0.095,0.023,-0.278,1.016,-0.218,-83.379,11.926,13.198
1747685600.58,0.089,0.103,0.010,-0.285,0.924,-0.141,-83.554,11.927,12.374
1747685600.59,0.058,0.055,-0.012,-0.341,0.693,-0.151,-83.743,12.009,11.990
1747685600.60,0.013,-0.061,0.009,-0.436,0.506,-0.178,-83.980,11.913,11.281
1747685600.61,0.025,-0.167,0.072,-0.520,0.446,-0.155,-84.268,11.803,10.901
1747685600.62,0.077,-0.199,0.112,-0.560,0.411,-0.095,-84.587,11.986,10.570
1747685600.63,0.116,-0.154,0.092,-0.542,0.299,-0.074,-84.906,12.433,10.813
1747685600.64,0.115,-0.063,0.023,-0.493,0.189,-0.140,-85.207,12.658,10.768
1747685600.65,0.092,0.035,-0.035,-0.471,0.090,-0.253,-85.499,12.114,10.142
1747685600.66,0.072,0.097,-0.049,-0.453,-0.011,-0.318,-85.791,10.682,8.682
1747685600.67,0.077,0.115,-0.049,-0.395,-0.109,-0.331,-86.061,8.666,6.693
1747685600.68,0.077,0.090,-0.060,-0.326,-0.182,-0.273,-86.288,6.419,4.524
1747685600.69,0.085,0.027,-0.070,-0.289,-0.216,-0.239,-86.476,4.279,2.498
1747685600.70,0.069,-0.026,-0.059,-0.282,-0.180,-0.237,-86.645,2.062,0.392
1747685600.71,0.046,-0.043,-0.048,-0.267,-0.109,-0.212,-86.804,-0.239,-1.828
1747685600.72,0.032,-0.023,-0.050,-0.269,-0.001,-0.144,-86.954,-2.205,-3.767
1747685600.73,0.010,-0.002,-0.038,-0.277,0.043,-0.085,-87.107,-3.567,-5.146
1747685600.74,-0.041,0.009,-0.043,-0.300,0.065,-0.066,-87.267,-4.640,-6.250
1747685600.75,-0.090,-0.005,-0.028,-0.329,0.160,-0.077,-87.443,-5.776,-7.452
1747685600.76,-0.130,-0.041,0.015,-0.339,0.238,-0.107,-87.626,-7.374,-9.168
1747685600.77,-0.159,-0.080,0.026,-0.360,0.193,-0.095,-87.815,-9.461,-11.385
1747685600.78,-0.161,-0.088,0.020,-0.359,0.089,-0.078,-88.009,-11.725,-13.732
1747685600.79,-0.121,-0.072,0.012,-0.300,-0.018,-0.064,-88.186,-14.184,-16.213
1747685600.80,-0.046,-0.021,-0.025,-0.196,-0.077,-0.035,-88.315,-16.351,-18.350
1747685600.81,0.038,0.049,-0.049,-0.133,-0.100,-0.001,-88.399,-17.705,-19.656
1747685600.82,0.083,0.085,-0.034,-0.116,-0.131,0.022,-88.468,-18.336,-20.220
1747685600.83,0.073,0.063,-0.021,-0.114,-0.146,0.012,-88.534,-18.797,-20.602
1747685600.84,0.027,0.023,-0.005,-0.131,-0.156,-0.028,-88.599,-19.960,-21.680
1747685600.85,-0.031,0.008,-0.001,-0.140,-0.140,-0.068,-88.662,-22.327,-23.960
1747685600.86,-0.069,0.007,0.000,-0.127,-0.101,-0.099,-88.714,-25.685,-27.251
1747685600.87,-0.066,0.011,0.003,-0.102,-0.022,-0.125,-88.741,-29.688,-31.218
1747685600.88,-0.018,0.025,0.011,-0.101,0.084,-0.099,-88.754,-33.644,-35.193
1747685600.89,0.050,0.031,0.033,-0.129,0.139,-0.009,-88.789,-36.482,-38.100
1747685600.90,0.071,0.011,0.058,-0.180,0.053,0.059,-88.870,-38.273,-39.948
1747685600.91,0.021,-0.026,0.063,-0.256,-0.059,0.061,-88.990,-40.881,-42.554
1747685600.92,-0.052,-0.056,0.069,-0.291,-0.108,0.005,-89.118,-46.598,-48.222
1747685600.93,-0.085,-0.072,0.068,-0.290,-0.105,-0.036,-89.215,-56.077,-57.640
1747685600.94,-0.062,-0.070,0.058,-0.268,-0.091,-0.044,-89.268,-67.685,-69.193
1747685600.95,0.007,-0.040,0.040,-0.243,-0.060,-0.022,-89.286,-79.346,-80.811
1747685600.96,0.080,0.005,0.031,-0.240,-0.069,-0.003,-89.291,-90.347,-91.780
1747685600.97,0.111,0.041,0.018,-0.258,-0.159,0.012,-89.281,-101.906,-103.276
1747685600.98,0.089,0.053,0.004,-0.262,-0.291,0.003,-89.243,-113.426,-114.669
1747685600.99,0.043,0.039,-0.005,-0.266,-0.401,-0.025,-89.165,-123.176,-124.221
1747685601.00,0.001,0.021,-0.008,-0.272,-0.427,-0.062,-89.053,-130.432,-131.371
1747685601.01,-0.021,0.007,0.015,-0.259,-0.404,-0.096,-88.916,-135.200,-136.173
1747685601.02,-0.022,-0.014,0.031,-0.251,-0.354,-0.110,-88.769,-138.173,-138.930
1747685601.03,-0.001,-0.026,0.041,-0.259,-0.282,-0.085,-88.623,-140.639,-141.347
1747685601.04,0.009,-0.028,0.037,-0.279,-0.223,-0.060,-88.478,-143.271,-143.837
1747685601.05,-0.021,-0.036,0.023,-0.317,-0.232,-0.096,-88.315,-145.654,-146.093
1747685601.06,-0.071,-0.052,0.006,-0.343,-0.248,-0.121,-88.122,-147.458,-147.760
1747685601.07,-0.097,-0.056,-0.016,-0.325,-0.200,-0.122,-87.921,-148.792,-148.963
1747685601.08,-0.082,-0.038,-0.024,-0.291,-0.079,-0.092,-87.738,-149.847,-149.939
1747685601.09,-0.044,0.006,-0.015,-0.243,0.018,-0.048,-87.584,-150.859,-151.069
1747685601.10,0.002,0.057,-0.031,-0.158,0.072,-0.005,-87.476,-151.819,-152.056
1747685601.11,0.040,0.089,-0.058,-0.105,0.118,0.021,-87.414,-152.643,-153.201
1747685601.12,0.051,0.082,-0.050,-0.093,0.100,0.041,-87.372,-153.460,-154.084
1747685601.13,0.042,0.053,-0.048,-0.095,-0.008,0.056,-87.337,-154.470,-155.388
1747685601.14,0.021,0.032,-0.069,-0.078,-0.129,0.058,-87.305,-155.588,-156.466
1747685601.15,0.004,0.006,-0.070,-0.058,-0.184,0.053,-87.284,-156.604,-157.646
1747685601.16,0.003,-0.028,-0.027,-0.055,-0.169,0.023,-87.263,-157.389,-158.331
1747685601.17,0.003,-0.050,0.018,-0.050,-0.094,-0.005,-87.237,-157.785,-158.896
1747685601.18,0.023,-0.039,0.055,-0.044,-0.025,-0.014,-87.213,-157.903,-158.983
1747685601.19,0.027,-0.018,0.063,-0.063,-0.028,-0.018,-87.187,-158.000,-159.319
1747685601.20,0.005,0.008,0.044,-0.092,-0.034,-0.010,-87.147,-158.247,-159.547
1747685601.21,-0.014,0.015,0.033,-0.102,-0.049,-0.015,-87.098,-158.591,-160.101
1747685601.21,-0.043,0.005,0.026,-0.120,-0.086,-0.037,-87.039,-158.824,-160.295
1747685601.22,-0.057,-0.015,0.030,-0.124,-0.066,-0.071,-86.967,-158.788,-160.449
1747685601.23,-0.031,-0.036,0.030,-0.121,-0.035,-0.065,-86.889,-158.565,-160.199
1747685601.24,0.005,-0.033,0.026,-0.105,-0.001,-0.028,-86.819,-158.575,-160.436
1747685601.25,0.038,-0.018,0.024,-0.070,-0.024,0.001,-86.766,-158.840,-160.697
1747685601.26,0.043,0.010,-0.003,-0.039,-0.090,0.003,-86.735,-159.166,-161.214
1747685601.27,0.029,0.034,-0.013,-0.033,-0.123,-0.009,-86.713,-159.365,-161.351
1747685601.28,0.009,0.044,-0.005,-0.035,-0.155,-0.020,-86.688,-159.425,-161.560
1747685601.30,-0.021,0.033,-0.007,-0.027,-0.127,-0.030,-86.660,-159.303,-161.355
1747685601.30,-0.050,0.006,0.004,-0.009,-0.062,-0.033,-86.636,-158.997,-161.209
1747685601.31,-0.063,-0.026,0.024,0.002,0.048,-0.021,-86.622,-158.704,-160.910
1747685601.32,-0.049,-0.044,0.040,0.004,0.115,0.008,-86.620,-158.623,-161.088
1747685601.34,-0.022,-0.038,0.029,0.012,0.117,0.028,-86.628,-158.785,-161.318
1747685601.34,0.005,-0.005,0.003,0.022,0.099,0.044,-86.648,-159.096,-161.900
1747685601.35,0.027,0.037,-0.002,0.018,0.083,0.060,-86.672,-159.519,-162.376
1747685601.36,0.027,0.045,0.008,0.024,0.025,0.044,-86.695,-159.928,-163.018
1747685601.37,0.000,0.018,0.000,0.016,-0.023,0.022,-86.712,-160.108,-163.195
1747685601.38,-0.015,-0.024,0.011,0.012,0.003,0.019,-86.720,-160.131,-163.421
1747685601.39,-0.009,-0.042,0.027,0.022,0.040,0.021,-86.725,-160.101,-163.403
1747685601.40,0.006,-0.023,0.034,0.039,0.071,0.022,-86.735,-160.075,-163.614
1747685601.41,0.027,0.004,0.031,0.074,0.066,0.015,-86.762,-159.966,-163.545
1747685601.42,0.040,0.013,0.013,0.109,0.038,0.018,-86.814,-159.779,-163.586
1747685601.43,0.040,0.009,-0.003,0.138,0.003,0.016,-86.885,-159.545,-163.363
1747685601.44,0.030,0.006,-0.020,0.133,-0.009,0.018,-86.962,-159.274,-163.281
1747685601.45,0.020,0.004,-0.025,0.118,0.007,0.021,-87.032,-158.971,-162.976
1747685601.46,0.013,-0.002,-0.023,0.111,0.023,0.016,-87.093,-158.659,-162.858
1747685601.47,0.008,-0.008,-0.020,0.113,0.020,0.024,-87.145,-158.406,-162.618
1747685601.48,0.018,-0.010,-0.027,0.135,0.020,0.039,-87.203,-158.338,-162.752
1747685601.49,0.031,-0.013,-0.026,0.141,0.021,0.046,-87.279,-158.420,-162.845
1747685601.50,0.040,-0.004,-0.003,0.138,-0.007,0.062,-87.362,-158.681,-163.292
1747685601.51,0.042,0.009,0.003,0.152,0.013,0.068,-87.455,-159.073,-163.685
1747685601.52,0.025,0.015,0.013,0.175,0.016,0.045,-87.560,-159.149,-163.956
1747685601.53,-0.009,0.012,0.006,0.181,0.007,0.033,-87.670,-158.842,-163.654
1747685601.54,-0.025,-0.000,0.011,0.180,0.024,0.039,-87.778,-158.408,-163.403
1747685601.55,-0.027,-0.013,0.014,0.190,0.021,0.040,-87.888,-157.923,-162.931
1747685601.56,-0.034,-0.016,0.004,0.219,0.024,0.038,-88.009,-157.312,-162.496
1747685601.57,-0.035,-0.007,0.010,0.226,0.037,0.038,-88.140,-156.534,-161.734
1747685601.58,-0.036,0.006,0.027,0.206,0.021,0.048,-88.265,-155.931,-161.320
1747685601.59,-0.042,0.003,0.034,0.205,-0.021,0.045,-88.382,-155.427,-160.816
1747685601.60,-0.046,-0.004,0.022,0.220,-0.020,0.044,-88.501,-154.675,-160.217
1747685601.61,-0.037,-0.004,0.021,0.245,0.011,0.038,-88.625,-153.194,-158.733
1747685601.62,-0.024,-0.007,0.027,0.283,0.046,0.048,-88.762,-150.926,-156.659
1747685601.63,-0.011,-0.007,0.021,0.317,0.111,0.058,-88.916,-147.722,-153.500
1747685601.64,-0.003,-0.003,0.026,0.338,0.150,0.052,-89.080,-142.802,-148.817
1747685601.65,-0.006,0.003,0.023,0.362,0.128,0.047,-89.238,-135.017,-141.111
1747685601.66,-0.005,0.010,0.009,0.363,0.090,0.062,-89.376,-123.486,-129.788
1747685601.67,0.010,0.014,0.009,0.372,0.060,0.092,-89.486,-107.138,-113.482
1747685601.68,0.016,0.008,0.014,0.409,0.027,0.116,-89.563,-80.834,-87.340
1747685601.69,-0.001,0.002,0.020,0.466,0.021,0.119,-89.515,-48.586,-55.104
1747685601.70,-0.036,-0.005,0.042,0.481,0.021,0.114,-89.337,-26.529,-33.202
1747685601.71,-0.067,-0.025,0.052,0.468,0.042,0.092,-89.104,-15.314,-22.003
1747685601.72,-0.078,-0.044,0.033,0.464,0.076,0.074,-88.854,-9.472,-16.322
1747685601.73,-0.064,-0.049,-0.006,0.488,0.085,0.055,-88.590,-6.135,-13.032
1747685601.74,-0.031,-0.039,-0.030,0.513,0.032,0.063,-88.309,-3.960,-11.034
1747685601.75,0.023,-0.013,-0.042,0.549,-0.020,0.091,-88.009,-2.124,-9.199
1747685601.76,0.081,0.023,-0.029,0.589,-0.092,0.117,-87.686,-0.365,-7.537
1747685601.77,0.109,0.045,-0.021,0.679,-0.155,0.109,-87.325,1.038,-6.061
1747685601.78,0.102,0.034,-0.030,0.798,-0.180,0.090,-86.902,1.851,-5.271
1747685601.79,0.080,0.002,-0.037,0.863,-0.196,0.105,-86.423,2.344,-4.772
1747685601.80,0.049,-0.020,-0.041,0.869,-0.235,0.167,-85.926,3.024,-3.968
1747685601.81,0.006,-0.018,-0.037,0.893,-0.180,0.229,-85.416,3.989,-2.936
1747685601.82,-0.049,-0.007,-0.002,0.870,-0.043,0.242,-84.902,5.066,-1.790
1747685601.83,-0.109,0.003,0.064,0.829,0.039,0.232,-84.406,6.019,-0.837
1747685601.84,-0.169,-0.004,0.060,0.818,0.004,0.222,-83.926,6.790,-0.074
1747685601.85,-0.205,-0.028,0.004,0.832,0.091,0.203,-83.443,7.377,0.497
1747685601.86,-0.188,-0.056,0.034,0.823,0.335,0.178,-82.958,7.868,0.871
1747685601.87,-0.129,-0.067,0.096,0.799,0.524,0.183,-82.487,8.397,1.150
1747685601.88,-0.064,-0.048,0.093,0.838,0.590,0.186,-82.009,8.976,1.411
1747685601.89,-0.005,0.002,0.059,0.852,0.564,0.157,-81.517,9.444,1.545
1747685601.90,0.033,0.054,0.057,0.944,0.422,0.132,-81.000,9.697,1.517
1747685601.91,0.034,0.069,0.028,1.002,0.324,0.126,-80.439,9.776,1.295
1747685601.92,0.028,0.055,-0.001,1.021,0.352,0.129,-79.855,9.812,1.142
1747685601.93,0.013,0.028,0.028,0.999,0.450,0.115,-79.274,9.881,0.893
1747685601.94,-0.012,0.001,0.056,1.000,0.470,0.087,-78.704,9.937,0.678
1747685601.95,-0.039,-0.040,0.012,1.056,0.446,0.084,-78.119,9.934,0.328
1747685601.96,-0.025,-0.081,-0.022,1.087,0.452,0.123,-77.503,9.965,0.097
1747685601.97,0.009,-0.083,-0.008,1.043,0.441,0.151,-76.888,10.098,-0.111
1747685601.98,0.024,-0.057,0.026,0.960,0.398,0.147,-76.309,10.272,-0.181
1747685601.99,0.007,-0.020,0.022,0.953,0.365,0.134,-75.761,10.413,-0.337
1747685602.00,-0.034,0.019,-0.030,0.970,0.401,0.126,-75.205,10.519,-0.451
1747685602.01,-0.052,0.036,-0.020,0.892,0.473,0.133,-74.667,10.671,-0.619
1747685602.02,-0.021,0.017,0.044,0.864,0.515,0.156,-74.163,10.913,-0.664
1747685602.03,0.047,-0.009,0.057,0.965,0.450,0.156,-73.637,11.156,-0.768
1747685602.04,0.095,-0.013,0.020,1.088,0.283,0.132,-73.045,11.258,-0.882
1747685602.05,0.102,-0.019,0.005,1.174,0.177,0.121,-72.396,11.199,-1.130
1747685602.06,0.096,-0.038,0.027,1.169,0.195,0.127,-71.722,11.117,-1.326
1747685602.07,0.081,-0.045,0.053,1.132,0.148,0.117,-71.065,11.051,-1.562
1747685602.08,0.016,-0.026,-0.016,1.114,0.065,0.093,-70.424,10.926,-1.756
1747685602.09,-0.084,-0.006,-0.045,1.114,0.106,0.093,-69.790,10.777,-2.003
1747685602.10,-0.151,-0.002,-0.003,1.097,0.245,0.110,-69.157,10.714,-2.174
1747685602.11,-0.174,-0.004,0.007,1.071,0.386,0.118,-68.536,10.764,-2.346
1747685602.12,-0.138,-0.007,-0.017,1.043,0.476,0.124,-67.930,10.898,-2.470
1747685602.13,-0.059,-0.005,-0.017,1.005,0.522,0.139,-67.342,11.096,-2.594
1747685602.14,0.004,0.009,0.006,0.978,0.511,0.119,-66.773,11.305,-2.689
1747685602.15,0.015,0.022,0.031,0.980,0.399,0.070,-66.214,11.439,-2.851
1747685602.16,-0.020,0.029,0.044,1.012,0.242,0.057,-65.652,11.440,-3.048
1747685602.17,-0.053,0.026,-0.014,1.027,0.152,0.078,-65.072,11.382,-3.248
1747685602.18,-0.072,0.012,-0.019,1.038,0.152,0.069,-64.487,11.309,-3.422
1747685602.19,-0.073,-0.009,0.032,1.071,0.216,0.059,-63.888,11.245,-3.616
1747685602.20,-0.064,-0.034,0.056,1.088,0.253,0.024,-63.278,11.193,-3.827
1747685602.21,-0.075,-0.031,0.042,1.101,0.227,-0.037,-62.665,11.082,-4.105
1747685602.22,-0.083,-0.021,0.011,1.096,0.204,-0.053,-62.054,10.925,-4.422
1747685602.23,-0.089,-0.005,-0.016,1.092,0.232,-0.051,-61.445,10.775,-4.729
1747685602.24,-0.096,0.016,-0.019,1.065,0.237,-0.053,-60.844,10.652,-5.024
1747685602.25,-0.077,0.033,-0.020,1.057,0.290,-0.008,-60.254,10.561,-5.273
1747685602.26,-0.002,0.037,0.027,1.106,0.385,0.068,-59.644,10.594,-5.463
1747685602.27,0.042,0.030,0.067,1.142,0.318,0.062,-59.005,10.666,-5.599
1747685602.28,0.009,0.024,0.014,1.186,0.246,0.064,-58.344,10.677,-5.771
1747685602.29,0.002,0.005,-0.026,1.167,0.235,0.090,-57.673,10.679,-5.905
1747685602.30,0.012,-0.008,-0.008,1.095,0.307,0.118,-57.027,10.738,-6.019
1747685602.31,0.007,-0.015,0.047,1.039,0.286,0.153,-56.415,10.848,-6.091
1747685602.32,0.004,-0.015,0.066,1.003,0.211,0.208,-55.823,10.989,-6.102
1747685602.33,-0.002,-0.018,0.046,1.002,0.146,0.235,-55.237,11.108,-6.076
1747685602.34,0.022,-0.013,0.030,1.041,0.135,0.196,-54.642,11.210,-6.054
1747685602.35,0.080,0.001,0.047,1.037,0.141,0.095,-54.041,11.224,-6.128
1747685602.36,0.162,-0.002,0.098,1.015,0.117,0.218,-53.450,11.263,-6.179
1747685602.37,0.226,-0.003,0.065,1.010,-0.024,0.350,-52.852,11.351,-6.100
1747685602.38,0.173,0.018,0.038,1.004,-0.158,0.446,-52.242,11.445,-5.916
1747685602.39,0.093,0.021,0.016,1.003,-0.227,0.415,-51.632,11.494,-5.708
1747685602.40,0.049,0.045,0.031,0.994,-0.161,0.395,-51.027,11.521,-5.529
1747685602.41,0.036,0.053,0.057,1.000,-0.092,0.381,-50.425,11.576,-5.365
1747685602.42,-0.001,0.064,0.005,1.029,-0.051,0.323,-49.817,11.636,-5.235
1747685602.43,-0.062,0.070,-0.021,1.022,-0.066,0.269,-49.207,11.653,-5.170
1747685602.44,-0.100,0.044,-0.025,0.974,-0.077,0.304,-48.617,11.656,-5.105
1747685602.45,-0.085,-0.006,-0.014,0.981,-0.019,0.239,-48.038,11.673,-5.040
1747685602.46,-0.043,-0.053,0.041,0.988,0.061,0.245,-47.459,11.702,-5.017
1747685602.47,0.008,-0.102,0.042,0.994,0.129,0.249,-46.877,11.792,-4.977
1747685602.48,0.043,-0.098,0.027,0.992,-0.000,0.305,-46.290,11.871,-4.929
1747685602.49,0.057,-0.086,0.004,1.001,-0.182,0.364,-45.695,11.888,-4.826
1747685602.50,0.087,-0.043,0.020,1.034,-0.195,0.354,-45.084,11.861,-4.706
1747685602.51,0.135,0.018,0.070,1.128,-0.191,0.302,-44.443,11.806,-4.628
1747685602.52,0.111,0.068,0.032,1.161,-0.209,0.304,-43.763,11.723,-4.579
1747685602.53,0.051,0.078,0.006,1.122,-0.266,0.307,-43.088,11.627,-4.529
1747685602.54,-0.035,0.062,-0.048,1.097,-0.262,0.305,-42.433,11.516,-4.463
1747685602.55,-0.109,0.011,-0.030,1.097,-0.100,0.214,-41.786,11.431,-4.429
1747685602.56,-0.191,-0.033,0.041,1.108,0.043,0.120,-41.152,11.379,-4.476
1747685602.57,-0.140,-0.047,0.014,1.109,0.130,0.137,-40.518,11.384,-4.552
1747685602.58,-0.051,-0.061,0.007,1.077,0.108,0.293,-39.881,11.454,-4.551
1747685602.59,0.010,-0.039,0.049,1.080,0.123,0.284,-39.245,11.554,-4.496
1747685602.60,0.070,0.012,0.078,1.111,0.113,0.215,-38.604,11.638,-4.475
1747685602.61,0.103,0.039,0.051,1.119,0.035,0.055,-37.965,11.646,-4.550
1747685602.62,0.065,0.059,0.007,1.104,-0.096,0.081,-37.335,11.555,-4.667
1747685602.63,0.090,0.036,-0.019,1.084,-0.179,0.113,-36.713,11.421,-4.755
1747685602.64,0.064,0.014,-0.023,1.096,-0.185,0.202,-36.086,11.289,-4.796
1747685602.65,0.031,-0.015,-0.005,1.102,-0.105,0.166,-35.448,11.193,-4.818
1747685602.66,-0.013,-0.014,0.018,1.097,-0.041,0.125,-34.818,11.127,-4.867
1747685602.67,0.008,-0.011,0.005,1.105,-0.025,0.137,-34.186,11.070,-4.930
1747685602.68,0.047,-0.041,0.043,1.138,-0.004,0.197,-33.541,11.045,-4.967
1747685602.69,0.067,-0.018,0.072,1.161,-0.054,0.260,-32.870,11.030,-4.960
1747685602.70,0.108,0.016,0.046,1.170,-0.101,0.212,-32.189,10.993,-4.950
1747685602.71,0.114,0.023,0.006,1.142,-0.178,0.118,-31.523,10.889,-4.990
1747685602.72,0.088,-0.010,-0.022,1.129,-0.251,0.090,-30.877,10.727,-5.069
1747685602.73,0.011,-0.085,0.021,1.138,-0.253,0.117,-30.230,10.544,-5.139
1747685602.74,-0.079,-0.127,0.034,1.131,-0.169,0.179,-29.575,10.401,-5.183
1747685602.75,-0.103,-0.110,0.013,1.122,-0.081,0.156,-28.925,10.324,-5.200
1747685602.76,-0.078,-0.065,0.003,1.144,-0.022,0.100,-28.277,10.268,-5.250
1747685602.77,0.005,-0.038,0.019,1.189,0.024,0.052,-27.614,10.230,-5.342
1747685602.78,0.079,0.027,0.013,1.221,-0.032,0.041,-26.929,10.185,-5.448
1747685602.79,0.048,0.065,-0.035,1.216,-0.168,0.054,-26.239,10.078,-5.559
1747685602.80,-0.000,0.063,-0.036,1.198,-0.193,0.170,-25.550,9.939,-5.626
1747685602.81,-0.031,0.041,0.014,1.190,-0.141,0.165,-24.859,9.834,-5.644
1747685602.82,-0.055,0.037,0.017,1.196,-0.041,0.131,-24.172,9.766,-5.679
1747685602.83,-0.038,0.013,0.003,1.200,0.030,0.087,-23.488,9.742,-5.740
1747685602.84,-0.007,-0.010,-0.008,1.175,0.046,0.180,-22.806,9.746,-5.792
1747685602.85,0.038,-0.008,-0.020,1.214,0.040,0.283,-22.112,9.781,-5.767
1747685602.86,-0.006,-0.035,-0.024,1.289,0.035,0.186,-21.383,9.804,-5.747
1747685602.87,-0.116,-0.033,0.000,1.307,0.122,-0.061,-20.646,9.813,-5.855
1747685602.88,-0.126,-0.010,0.038,1.342,0.167,-0.056,-19.910,9.841,-6.036
1747685602.89,-0.059,-0.050,0.066,1.340,0.137,-0.024,-19.157,9.871,-6.196
1747685602.90,-0.023,-0.027,0.097,1.346,0.139,-0.094,-18.409,9.900,-6.367
1747685602.91,0.041,0.003,0.084,1.351,0.127,-0.150,-17.659,9.908,-6.579
1747685602.92,0.131,0.025,0.034,1.275,-0.005,-0.068,-16.930,9.883,-6.794
1747685602.93,0.139,0.079,-0.034,1.244,-0.091,0.062,-16.220,9.821,-6.909
1747685602.94,0.053,0.059,-0.065,1.205,-0.051,0.094,-15.524,9.752,-6.991
1747685602.95,-0.044,0.024,-0.057,1.175,0.075,0.088,-14.847,9.738,-7.050
1747685602.96,-0.095,0.031,0.004,1.138,0.139,0.159,-14.185,9.792,-7.092
1747685602.97,-0.078,0.052,0.064,1.162,0.192,0.133,-13.525,9.880,-7.122
1747685602.98,-0.004,0.080,0.049,1.183,0.189,0.052,-12.856,9.976,-6.779
1747685602.99,0.033,0.034,0.030,1.220,0.160,-0.166,-12.193,10.060,-6.961
1747685603.00,0.068,-0.031,-0.025,1.189,0.023,-0.032,-11.518,10.083,-6.743
1747685603.01,0.164,-0.018,-0.063,1.154,0.018,0.021,-10.875,10.079,-6.889
1747685603.02,0.144,-0.050,-0.043,1.127,-0.025,0.193,-10.213,10.061,-6.538
1747685603.03,0.085,-0.170,-0.044,1.069,0.099,0.205,-9.578,10.077,-6.533
1747685603.04,0.038,-0.072,-0.013,1.086,0.214,0.236,-8.951,10.173,-6.123
1747685603.05,0.037,0.034,0.008,1.081,0.249,0.271,-8.316,10.312,-6.091
1747685603.06,0.020,0.097,0.023,1.087,0.217,0.297,-7.677,10.455,-5.646
1747685603.07,0.033,0.116,0.030,1.077,0.166,0.319,-7.036,10.569,-5.585
1747685603.08,0.091,0.051,-0.001,1.074,0.114,0.332,-6.399,10.660,-5.126
1747685603.09,0.140,-0.024,-0.030,1.072,0.057,0.351,-5.763,10.716,-5.044
1747685603.10,0.134,-0.049,-0.055,1.060,0.041,0.319,-5.129,10.746,-4.588
1747685603.11,0.085,-0.110,-0.047,1.075,0.089,0.329,-4.497,10.789,-4.519
1747685603.12,0.024,-0.052,-0.044,1.057,0.171,0.324,-3.862,10.871,-4.070
1747685603.13,-0.010,0.015,-0.078,1.037,0.200,0.327,-3.241,10.983,-4.002
1747685603.14,-0.010,0.102,-0.055,1.036,0.190,0.342,-2.620,11.098,-3.526
1747685603.15,-0.004,0.141,0.026,0.970,0.143,0.328,-2.020,11.200,-3.450
1747685603.16,0.015,0.103,0.002,0.956,0.012,0.325,-1.445,11.251,-2.988
1747685603.17,0.003,0.090,-0.020,0.968,-0.108,0.297,-0.871,11.221,-2.920
1747685603.18,-0.023,0.089,-0.036,0.977,-0.182,0.190,-0.294,11.141,-2.503
1747685603.19,-0.040,0.066,-0.103,0.995,-0.227,0.197,0.272,11.023,-2.493
1747685603.20,-0.032,0.063,-0.109,0.987,-0.191,0.102,0.848,10.899,-2.125
1747685603.21,-0.078,-0.035,-0.088,0.960,-0.138,0.037,1.401,10.808,-2.190
1747685603.22,-0.104,-0.046,-0.100,0.976,-0.094,-0.057,1.942,10.743,-1.899
1747685603.23,-0.162,-0.061,-0.056,0.922,-0.010,0.013,2.471,10.718,-2.007
1747685603.24,-0.080,-0.027,-0.021,0.908,0.073,0.011,2.987,10.740,-1.697
1747685603.25,-0.036,0.031,-0.030,0.880,0.063,0.003,3.488,10.788,-1.787
1747685603.26,-0.012,0.104,-0.047,0.886,0.026,-0.016,3.981,10.820,-1.508
1747685603.27,0.003,0.084,-0.013,0.882,-0.022,-0.015,4.478,10.828,-1.611
1747685603.28,0.042,0.123,-0.022,0.884,-0.124,-0.025,4.970,10.797,-1.328
1747685603.29,0.085,0.150,-0.073,0.901,-0.237,-0.114,5.464,10.703,-1.452
1747685603.30,0.085,0.079,-0.090,0.866,-0.302,-0.018,5.953,10.562,-1.208
1747685603.31,0.153,-0.004,-0.088,0.859,-0.321,-0.002,6.438,10.390,-1.303
1747685603.32,0.126,-0.071,-0.100,0.809,-0.249,0.007,6.908,10.236,-1.016
1747685603.33,0.056,-0.113,-0.079,0.745,-0.118,0.035,7.348,10.138,-1.102
1747685603.34,0.026,-0.073,-0.073,0.717,-0.000,0.058,7.764,10.110,-0.780
1747685603.35,-0.012,-0.059,-0.052,0.690,0.141,0.087,8.166,10.156,-0.418
1747685603.36,-0.014,0.005,-0.028,0.641,0.208,0.086,8.551,10.262,-0.436
1747685603.37,0.039,0.030,-0.071,0.598,0.156,0.081,8.906,10.370,-0.073
1747685603.38,0.081,0.019,-0.096,0.564,0.053,0.070,9.241,10.432,-0.091
1747685603.39,0.093,0.044,-0.099,0.506,-0.016,0.059,9.548,10.444,0.267
1747685603.40,0.104,0.004,-0.123,0.440,-0.095,0.068,9.821,10.417,0.253
1747685603.41,0.094,-0.066,-0.171,0.359,-0.127,0.069,10.051,10.351,0.619
1747685603.42,0.065,-0.095,-0.229,0.290,-0.121,0.062,10.240,10.278,0.622
1747685603.43,-0.001,-0.102,-0.223,0.237,-0.067,0.050,10.393,10.220,0.979
1747685603.44,-0.040,-0.085,-0.204,0.164,0.009,0.028,10.512,10.203,0.982
1747685603.45,-0.037,-0.061,-0.194,0.075,0.069,-0.002,10.580,10.227,1.336
1747685603.46,-0.053,-0.073,-0.149,-0.020,0.127,-0.022,10.595,10.287,1.326
1747685603.47,-0.039,-0.090,-0.131,-0.123,0.131,-0.028,10.553,10.362,1.664
1747685603.48,0.026,-0.072,-0.177,-0.228,0.097,-0.032,10.452,10.429,1.665
1747685603.49,0.066,-0.052,-0.223,-0.331,0.046,-0.034,10.291,10.468,2.025
1747685603.50,0.065,-0.082,-0.236,-0.420,-0.000,-0.029,10.077,10.477,2.047
1747685603.51,0.059,-0.095,-0.266,-0.522,-0.021,-0.020,9.810,10.463,2.423
1747685603.52,0.054,-0.089,-0.274,-0.614,0.020,-0.003,9.490,10.451,2.476
1747685603.53,0.015,-0.080,-0.220,-0.706,0.091,0.012,9.120,10.472,2.888
1747685603.54,-0.007,-0.065,-0.186,-0.802,0.117,0.024,8.699,10.520,2.979
1747685603.55,0.020,-0.064,-0.186,-0.904,0.110,0.050,8.224,10.568,3.419
1747685603.56,0.050,-0.087,-0.173,-0.986,0.091,0.072,7.698,10.607,3.553
1747685603.57,0.043,-0.100,-0.161,-1.062,0.070,0.075,7.133,10.633,4.029
1747685603.58,0.031,-0.088,-0.161,-1.126,0.056,0.079,6.526,10.649,4.189
1747685603.59,0.043,-0.071,-0.162,-1.198,0.074,0.052,5.881,10.671,4.678
1747685603.60,0.025,-0.035,-0.155,-1.219,0.081,0.076,5.211,10.698,4.844
1747685603.61,-0.012,-0.041,-0.147,-1.263,0.108,0.076,4.525,10.737,5.328
1747685603.62,-0.066,-0.028,-0.124,-1.319,0.155,-0.010,3.801,10.804,5.485
1747685603.63,-0.056,-0.030,-0.129,-1.317,0.116,0.030,3.066,10.874,5.907
1747685603.64,-0.019,-0.047,-0.111,-1.406,0.090,-0.094,2.299,10.921,6.039
1747685603.65,0.002,-0.034,-0.070,-1.400,0.011,-0.111,1.500,10.946,6.388
1747685603.66,0.035,-0.058,-0.061,-1.426,-0.057,-0.121,0.697,10.935,6.481
1747685603.67,-0.002,-0.031,-0.043,-1.437,-0.065,-0.150,-0.121,10.896,6.817
1747685603.68,0.005,-0.016,-0.057,-1.443,-0.002,-0.155,-0.944,10.875,6.886
1747685603.69,-0.010,0.012,-0.048,-1.451,0.013,-0.167,-1.774,10.878,7.196
1747685603.70,-0.024,0.020,-0.070,-1.476,0.070,-0.194,-2.614,10.902,7.256
1747685603.71,-0.033,0.013,-0.031,-1.447,0.075,-0.203,-3.457,10.948,7.527
1747685603.72,-0.011,-0.009,-0.045,-1.475,0.064,-0.216,-4.297,10.990,7.573
1747685603.73,0.010,-0.042,-0.035,-1.509,0.063,-0.248,-5.157,11.028,7.834
1747685603.74,0.010,-0.051,-0.001,-1.513,0.034,-0.185,-6.027,11.059,7.876
1747685603.75,0.041,-0.061,-0.020,-1.565,0.054,-0.143,-6.908,11.090,8.145
1747685603.76,0.064,-0.037,-0.035,-1.586,0.109,-0.100,-7.806,11.150,8.252
1747685603.77,0.072,-0.004,-0.018,-1.598,0.158,-0.077,-8.707,11.245,8.568
1747685603.78,0.061,0.020,-0.005,-1.604,0.199,-0.075,-9.613,11.371,8.707
1747685603.79,0.055,0.033,-0.012,-1.623,0.254,-0.111,-10.525,11.521,9.023
1747685603.80,0.019,0.048,0.033,-1.591,0.216,-0.105,-11.435,11.679,9.149
1747685603.81,-0.015,0.028,0.009,-1.618,0.182,-0.119,-12.345,11.821,9.447
1747685603.82,-0.034,0.007,-0.008,-1.641,0.133,-0.109,-13.271,11.939,9.578
1747685603.83,-0.005,-0.014,-0.016,-1.674,0.099,-0.066,-14.207,12.042,9.869
1747685603.84,0.040,-0.029,-0.033,-1.699,0.086,-0.037,-15.155,12.138,10.049
1747685603.85,0.055,-0.036,-0.037,-1.708,0.129,-0.064,-16.112,12.249,10.370
1747685603.86,0.033,-0.040,-0.011,-1.659,0.166,-0.073,-17.058,12.380,10.544
1747685603.87,-0.008,-0.076,0.025,-1.645,0.256,-0.113,-17.990,12.547,10.833
1747685603.88,-0.070,-0.099,0.064,-1.657,0.355,-0.157,-18.932,12.770,10.968
1747685603.89,-0.095,-0.110,0.053,-1.661,0.389,-0.127,-19.871,13.028,11.222
1747685603.90,-0.093,-0.112,0.093,-1.677,0.448,-0.113,-20.815,13.323,11.383
1747685603.91,-0.050,-0.079,0.096,-1.700,0.474,-0.107,-21.768,13.652,11.643
1747685603.92,-0.004,-0.026,0.057,-1.705,0.436,-0.106,-22.727,13.983,11.831
1747685603.93,0.003,0.035,0.056,-1.670,0.366,-0.095,-23.679,14.285,12.083
1747685603.94,0.032,0.088,0.041,-1.641,0.318,-0.089,-24.607,14.565,12.287
1747685603.95,0.045,0.110,0.035,-1.604,0.250,-0.123,-25.519,14.809,12.542
1747685603.96,0.039,0.109,0.034,-1.520,0.162,-0.157,-26.403,15.004,12.713
1747685603.97,0.017,0.069,0.023,-1.483,0.118,-0.187,-27.255,15.142,12.854
1747685603.98,0.014,0.007,0.019,-1.487,0.151,-0.188,-28.100,15.281,12.987
1747685603.99,0.034,-0.059,0.018,-1.484,0.136,-0.191,-28.948,15.430,13.125
1747685604.00,0.018,-0.103,0.046,-1.467,0.113,-0.217,-29.791,15.563,13.255
1747685604.01,-0.005,-0.129,0.075,-1.472,0.089,-0.212,-30.635,15.692,13.377
1747685604.02,-0.008,-0.149,0.008,-1.440,0.050,-0.235,-31.466,15.794,13.498
1747685604.03,-0.034,-0.125,-0.058,-1.453,0.041,-0.241,-32.299,15.878,13.592
1747685604.04,-0.046,-0.112,-0.022,-1.454,0.003,-0.139,-33.131,15.969,13.731
1747685604.05,-0.001,-0.158,-0.004,-1.424,0.010,-0.063,-33.933,16.087,13.933
1747685604.06,0.005,-0.154,0.029,-1.436,-0.022,-0.070,-34.729,16.220,14.167
1747685604.07,-0.033,-0.098,0.076,-1.433,-0.079,-0.141,-35.532,16.313,14.364
1747685604.08,-0.043,-0.039,0.053,-1.425,-0.097,-0.185,-36.341,16.361,14.534
1747685604.09,0.005,-0.017,-0.009,-1.449,-0.149,-0.184,-37.160,16.391,14.688
1747685604.10,0.033,0.006,-0.035,-1.415,-0.183,-0.156,-37.975,16.399,14.862
1747685604.11,0.043,-0.001,-0.008,-1.373,-0.169,-0.130,-38.761,16.415,14.979
1747685604.12,0.046,-0.022,0.019,-1.366,-0.164,-0.124,-39.533,16.446,15.176
1747685604.13,0.013,-0.027,-0.000,-1.323,-0.206,-0.154,-40.293,16.460,15.276
1747685604.14,-0.039,-0.040,-0.008,-1.284,-0.193,-0.197,-41.033,16.443,15.318
1747685604.15,-0.079,-0.044,-0.011,-1.276,-0.137,-0.230,-41.767,16.426,15.438
1747685604.16,-0.111,-0.037,-0.025,-1.306,-0.067,-0.257,-42.513,16.436,15.417
1747685604.17,-0.143,-0.024,-0.006,-1.367,-0.048,-0.255,-43.287,16.474,15.521
1747685604.18,-0.167,0.010,0.018,-1.403,-0.049,-0.249,-44.088,16.530,15.507
1747685604.19,-0.150,0.028,0.051,-1.402,-0.051,-0.207,-44.893,16.604,15.652
1747685604.20,-0.060,0.024,0.067,-1.435,-0.033,-0.158,-45.700,16.713,15.697
1747685604.21,0.079,0.042,0.055,-1.436,0.045,-0.123,-46.508,16.885,15.929
1747685604.22,0.206,0.018,0.062,-1.432,0.058,-0.116,-47.311,17.106,16.024
1747685604.23,0.246,-0.008,0.050,-1.413,-0.029,-0.156,-48.110,17.300,16.272
1747685604.24,0.199,-0.015,0.021,-1.396,-0.132,-0.204,-48.906,17.413,16.309
1747685604.25,0.119,-0.028,0.029,-1.424,-0.226,-0.232,-49.712,17.449,16.494
1747685604.26,0.039,-0.004,0.035,-1.485,-0.255,-0.191,-50.541,17.467,16.533
1747685604.27,-0.005,0.020,0.059,-1.524,-0.296,-0.104,-51.389,17.528,16.814
1747685604.28,0.004,0.034,0.059,-1.513,-0.354,-0.033,-52.228,17.632,17.012
1747685604.29,0.045,0.043,0.046,-1.528,-0.373,0.000,-53.059,17.757,17.433
1747685604.30,0.096,0.069,0.057,-1.467,-0.350,-0.001,-53.874,17.908,17.696
1747685604.31,0.126,0.058,0.051,-1.407,-0.391,-0.043,-54.657,18.038,18.114
1747685604.32,0.116,0.031,0.014,-1.374,-0.498,-0.102,-55.424,18.083,18.297
1747685604.33,0.099,-0.003,-0.019,-1.365,-0.588,-0.150,-56.190,18.025,18.606
1747685604.34,0.078,-0.042,-0.003,-1.357,-0.627,-0.185,-56.961,17.900,18.689
1747685604.35,0.050,-0.062,0.036,-1.301,-0.601,-0.198,-57.718,17.748,18.926
1747685604.36,0.000,-0.063,0.055,-1.241,-0.572,-0.204,-58.445,17.591,18.940
1747685604.37,-0.062,-0.051,0.046,-1.219,-0.540,-0.205,-59.149,17.439,19.132
1747685604.38,-0.115,-0.033,0.033,-1.245,-0.513,-0.214,-59.854,17.302,19.125
1747685604.39,-0.134,-0.020,0.010,-1.298,-0.450,-0.229,-60.586,17.183,19.306
1747685604.40,-0.118,-0.014,-0.005,-1.329,-0.376,-0.164,-61.340,17.153,19.335
1747685604.41,-0.102,-0.002,0.001,-1.265,-0.252,-0.116,-62.075,17.243,19.641
1747685604.42,-0.085,-0.008,0.006,-1.141,-0.110,-0.141,-62.750,17.404,19.724
1747685604.43,-0.082,-0.018,0.006,-1.081,-0.058,-0.259,-63.385,17.520,19.907
1747685604.43,-0.064,-0.020,-0.045,-1.055,0.022,-0.340,-64.023,17.548,19.744
1747685604.45,-0.003,-0.027,-0.046,-1.028,0.032,-0.344,-64.644,17.543,19.715
1747685604.45,0.051,-0.049,0.058,-1.161,-0.040,-0.284,-65.292,17.573,19.533
1747685604.46,0.068,-0.041,0.109,-1.209,-0.079,-0.239,-65.988,17.681,19.690
1747685604.47,0.076,-0.011,0.051,-1.175,-0.156,-0.234,-66.679,17.794,19.652
1747685604.48,0.053,0.012,0.055,-1.133,-0.215,-0.214,-67.345,17.872,19.854
1747685604.49,0.034,0.031,0.077,-1.101,-0.240,-0.182,-67.987,17.960,19.860
1747685604.50,0.039,0.035,0.033,-1.100,-0.346,-0.174,-68.614,18.042,20.124
1747685604.51,0.041,0.014,-0.031,-1.135,-0.510,-0.179,-69.252,18.065,20.164
1747685604.52,0.041,-0.026,-0.036,-1.130,-0.617,-0.187,-69.901,18.015,20.457
1747685604.53,0.075,-0.071,-0.044,-1.087,-0.644,-0.191,-70.538,17.915,20.490
1747685604.54,0.108,-0.089,-0.076,-1.056,-0.661,-0.222,-71.155,17.760,20.721
1747685604.55,0.087,-0.092,-0.048,-1.118,-0.703,-0.250,-71.785,17.547,20.661
1747685604.56,0.039,-0.079,0.034,-1.220,-0.696,-0.232,-72.465,17.354,20.881
1747685604.57,0.016,-0.050,0.049,-1.241,-0.658,-0.183,-73.175,17.286,20.958
1747685604.58,0.027,-0.027,0.011,-1.198,-0.652,-0.125,-73.865,17.328,21.390
1747685604.59,0.058,-0.009,0.001,-1.163,-0.703,-0.057,-74.524,17.479,21.692
1747685604.60,0.083,-0.001,-0.003,-1.102,-0.691,-0.007,-75.146,17.742,22.378
1747685604.61,0.106,0.001,-0.000,-1.100,-0.698,0.026,-75.738,18.111,22.911
1747685604.62,0.123,-0.001,0.012,-1.197,-0.767,0.056,-76.353,18.611,23.857
1747685604.63,0.151,-0.027,-0.000,-1.245,-0.819,0.062,-77.002,19.259,24.738
1747685604.64,0.184,-0.073,-0.011,-1.258,-0.927,0.025,-77.668,19.938,25.941
1747685604.65,0.197,-0.096,-0.051,-1.238,-1.173,0.006,-78.335,20.539,26.918
1747685604.66,0.191,-0.100,-0.105,-1.189,-1.415,-0.006,-78.983,21.025,28.169
1747685604.67,0.165,-0.080,-0.095,-1.173,-1.599,-0.038,-79.615,21.392,29.161
1747685604.68,0.109,-0.025,-0.076,-1.171,-1.741,-0.082,-80.253,21.645,30.390
1747685604.69,0.019,0.056,-0.065,-1.093,-1.782,-0.182,-80.884,21.671,31.193
1747685604.70,-0.132,0.130,-0.068,-0.924,-1.710,-0.322,-81.475,21.152,31.686
1747685604.71,-0.313,0.149,-0.116,-0.732,-1.396,-0.398,-81.990,20.067,31.263
1747685604.72,-0.473,0.091,-0.134,-0.604,-0.987,-0.445,-82.427,18.643,30.514
1747685604.73,-0.622,0.025,-0.157,-0.480,-0.571,-0.491,-82.803,16.972,29.049
1747685604.74,-0.766,-0.020,-0.233,-0.402,-0.148,-0.552,-83.124,14.991,27.262
1747685604.75,-0.857,-0.039,-0.235,-0.417,0.313,-0.575,-83.426,12.844,24.833
1747685604.76,-0.848,-0.049,-0.178,-0.470,0.843,-0.508,-83.739,10.905,22.556
1747685604.77,-0.695,-0.094,-0.104,-0.538,1.555,-0.334,-84.063,9.818,20.564
1747685604.78,-0.433,-0.151,0.027,-0.644,2.202,-0.114,-84.417,10.233,19.891
1747685604.79,-0.186,-0.167,0.097,-0.723,2.394,0.073,-84.804,12.280,20.384
1747685604.80,0.003,-0.126,0.048,-0.761,2.225,0.198,-85.197,15.658,22.445
1747685604.81,0.204,-0.050,0.001,-0.778,1.923,0.257,-85.577,20.099,25.479
1747685604.82,0.418,0.015,-0.004,-0.741,1.607,0.246,-85.923,25.170,29.553
1747685604.83,0.587,0.058,-0.021,-0.650,1.280,0.192,-86.218,30.309,33.773
1747685604.84,0.673,0.081,-0.049,-0.513,0.836,0.103,-86.453,34.899,37.766
1747685604.85,0.643,0.083,-0.096,-0.362,0.378,-0.067,-86.645,37.854,40.380
1747685604.86,0.528,0.101,-0.105,-0.319,0.005,-0.262,-86.853,38.739,41.162
1747685604.87,0.378,0.101,-0.064,-0.321,-0.313,-0.443,-87.122,37.790,40.299
1747685604.88,0.201,0.052,-0.046,-0.314,-0.587,-0.560,-87.440,34.872,37.640
1747685604.89,0.066,-0.023,-0.035,-0.300,-0.707,-0.580,-87.765,30.120,33.260
1747685604.90,0.010,-0.078,0.009,-0.304,-0.649,-0.514,-88.062,24.146,27.676
1747685604.91,-0.001,-0.093,0.071,-0.339,-0.481,-0.405,-88.328,18.109,21.963
1747685604.92,-0.017,-0.076,0.133,-0.367,-0.273,-0.284,-88.575,12.875,16.943
1747685604.93,-0.070,-0.053,0.143,-0.391,-0.096,-0.170,-88.810,9.025,13.195
1747685604.94,-0.157,-0.027,0.103,-0.484,0.086,-0.097,-89.066,6.899,11.072
1747685604.95,-0.240,0.008,0.077,-0.586,0.265,-0.063,-89.376,6.308,10.380
1747685604.96,-0.299,0.017,0.052,-0.617,0.444,-0.081,-89.725,6.269,10.139
1747685604.97,-0.314,-0.006,0.038,-0.588,0.604,-0.123,-89.921,-158.988,-155.420
1747685604.98,-0.256,-0.027,0.037,-0.569,0.713,-0.152,-89.585,-164.798,-161.606
1747685604.99,-0.146,-0.024,0.044,-0.551,0.801,-0.150,-89.253,-164.502,-161.744
1747685605.00,-0.034,-0.006,0.052,-0.497,0.842,-0.147,-88.941,-164.015,-161.728
1747685605.01,0.037,0.015,0.058,-0.443,0.767,-0.138,-88.661,-163.422,-161.601
1747685605.02,0.073,0.035,0.047,-0.423,0.581,-0.147,-88.402,-162.804,-161.370
1747685605.03,0.083,0.033,0.029,-0.403,0.403,-0.154,-88.151,-162.189,-161.033
1747685605.04,0.093,0.004,0.030,-0.369,0.298,-0.214,-87.909,-161.106,-160.148
1747685605.05,0.100,-0.023,0.037,-0.337,0.223,-0.188,-87.680,-159.822,-159.008
1747685605.06,0.103,-0.030,0.053,-0.312,0.198,-0.137,-87.474,-159.200,-158.507
1747685605.07,0.091,-0.052,0.072,-0.294,0.141,-0.129,-87.287,-158.919,-158.323
1747685605.08,0.064,-0.047,0.076,-0.292,0.079,-0.134,-87.104,-158.651,-158.118
1747685605.09,0.046,-0.021,0.070,-0.288,0.009,-0.118,-86.923,-158.471,-157.964
1747685605.10,0.026,-0.000,0.048,-0.297,-0.116,-0.119,-86.744,-158.473,-157.936
1747685605.11,-0.006,0.011,0.002,-0.288,-0.211,-0.139,-86.561,-158.479,-157.844
1747685605.12,-0.025,0.009,-0.022,-0.257,-0.181,-0.153,-86.385,-158.276,-157.524
1747685605.13,-0.028,0.003,-0.019,-0.226,-0.102,-0.144,-86.226,-157.922,-157.088
1747685605.14,-0.039,0.006,-0.014,-0.229,0.010,-0.134,-86.077,-157.574,-156.712
1747685605.15,-0.056,0.013,0.005,-0.210,0.099,-0.120,-85.933,-157.280,-156.449
1747685605.16,-0.074,0.018,0.002,-0.179,0.157,-0.103,-85.805,-156.982,-156.225
1747685605.17,-0.081,0.031,-0.005,-0.194,0.180,-0.073,-85.689,-156.803,-156.142
1747685605.18,-0.079,0.032,0.002,-0.226,0.218,-0.027,-85.568,-156.962,-156.414
1747685605.19,-0.073,-0.001,0.024,-0.249,0.277,-0.020,-85.438,-157.343,-156.938
1747685605.20,-0.074,-0.026,0.028,-0.270,0.273,-0.038,-85.294,-157.718,-157.472
1747685605.21,-0.066,-0.032,0.014,-0.265,0.241,-0.062,-85.140,-157.929,-157.831
1747685605.22,-0.038,-0.036,0.019,-0.232,0.253,-0.047,-84.995,-158.075,-158.117
1747685605.23,0.009,-0.034,0.043,-0.183,0.268,-0.027,-84.878,-158.214,-158.406
1747685605.24,0.049,-0.014,0.062,-0.143,0.245,-0.035,-84.785,-158.276,-158.616
1747685605.25,0.076,0.014,0.051,-0.097,0.226,-0.045,-84.713,-158.204,-158.677
1747685605.26,0.097,0.023,0.026,-0.067,0.199,-0.070,-84.658,-157.939,-158.534
1747685605.27,0.099,0.014,0.017,-0.075,0.085,-0.089,-84.604,-157.563,-158.241
1747685605.28,0.076,0.000,-0.008,-0.091,-0.064,-0.090,-84.540,-157.249,-157.930
1747685605.29,0.054,-0.013,-0.028,-0.088,-0.185,-0.083,-84.472,-157.047,-157.656
1747685605.30,0.046,-0.021,-0.033,-0.051,-0.284,-0.061,-84.418,-156.958,-157.431
1747685605.31,0.040,-0.015,-0.027,-0.027,-0.329,-0.042,-84.387,-156.952,-157.247
1747685605.32,0.032,0.008,-0.003,-0.029,-0.302,-0.033,-84.365,-157.000,-157.112
1747685605.33,0.020,0.023,0.025,-0.015,-0.227,-0.027,-84.346,-157.048,-157.007
1747685605.34,0.001,0.022,0.031,0.021,-0.154,-0.022,-84.343,-157.023,-156.875
1747685605.35,-0.029,0.012,0.026,0.018,-0.146,-0.020,-84.350,-156.945,-156.712
1747685605.36,-0.057,-0.003,0.023,0.002,-0.152,-0.014,-84.354,-156.967,-156.647
1747685605.37,-0.068,-0.014,0.010,0.001,-0.155,-0.011,-84.355,-157.019,-156.612
1747685605.38,-0.072,-0.008,-0.010,0.029,-0.170,-0.013,-84.362,-157.028,-156.527
1747685605.39,-0.065,-0.001,-0.023,0.044,-0.104,0.003,-84.383,-157.007,-156.423
1747685605.40,-0.040,0.001,0.003,0.038,0.036,0.028,-84.408,-157.035,-156.430
1747685605.41,-0.020,-0.003,0.029,0.021,0.137,0.053,-84.432,-157.152,-156.599
1747685605.42,-0.017,-0.005,0.033,0.009,0.183,0.079,-84.453,-157.399,-156.940
1747685605.43,-0.014,-0.012,0.040,0.010,0.177,0.083,-84.473,-157.706,-157.355
1747685605.44,-0.018,-0.023,0.030,0.015,0.107,0.063,-84.490,-157.947,-157.681
1747685605.45,-0.025,-0.030,0.007,0.033,0.036,0.053,-84.509,-158.072,-157.848
1747685605.46,-0.009,-0.033,-0.015,0.063,-0.028,0.052,-84.542,-158.115,-157.895
1747685605.47,0.025,-0.026,-0.038,0.078,-0.096,0.060,-84.592,-158.162,-157.908
1747685605.48,0.055,0.002,-0.049,0.081,-0.151,0.055,-84.643,-158.321,-157.995
1747685605.49,0.075,0.040,-0.049,0.111,-0.175,0.041,-84.699,-158.464,-158.045
1747685605.50,0.076,0.058,-0.046,0.169,-0.209,0.024,-84.777,-158.444,-157.914
1747685605.51,0.060,0.046,-0.046,0.222,-0.221,0.022,-84.883,-158.235,-157.580
1747685605.52,0.040,0.019,-0.038,0.230,-0.212,0.031,-85.006,-157.949,-157.167
1747685605.53,0.025,-0.004,-0.013,0.187,-0.174,0.062,-85.124,-157.796,-156.904
1747685605.54,0.012,-0.022,0.023,0.150,-0.144,0.099,-85.230,-157.952,-156.969
1747685605.55,-0.015,-0.036,0.030,0.143,-0.120,0.110,-85.334,-158.353,-157.296
1747685605.56,-0.048,-0.034,0.012,0.156,-0.100,0.103,-85.443,-158.783,-157.665
1747685605.57,-0.068,-0.019,-0.008,0.148,-0.063,0.096,-85.551,-159.170,-158.003
1747685605.58,-0.061,-0.002,-0.003,0.128,-0.011,0.072,-85.647,-159.470,-158.283
1747685605.59,-0.041,0.019,0.006,0.156,0.026,0.051,-85.739,-159.564,-158.381
1747685605.60,-0.011,0.032,0.002,0.184,0.080,0.049,-85.844,-159.447,-158.295
1747685605.61,0.015,0.024,0.020,0.162,0.089,0.045,-85.948,-159.268,-158.167
1747685605.62,0.014,0.005,0.032,0.141,0.031,0.045,-86.035,-159.170,-158.104
1747685605.63,-0.002,-0.012,0.018,0.136,-0.029,0.034,-86.113,-159.055,-157.991
1747685605.64,-0.015,-0.021,0.012,0.121,-0.082,0.026,-86.183,-158.864,-157.767
1747685605.65,-0.014,-0.028,0.025,0.139,-0.113,0.039,-86.254,-158.645,-157.492
1747685605.66,0.007,-0.035,0.021,0.174,-0.083,0.048,-86.341,-158.412,-157.201
1747685605.67,0.032,-0.022,0.025,0.205,-0.078,0.049,-86.446,-158.124,-156.869
1747685605.68,0.042,0.001,0.010,0.246,-0.098,0.051,-86.574,-157.802,-156.494
1747685605.69,0.044,0.016,-0.008,0.277,-0.117,0.051,-86.720,-157.411,-156.042
1747685605.70,0.039,0.024,-0.007,0.290,-0.169,0.061,-86.877,-156.949,-155.498
1747685605.71,0.021,0.018,-0.003,0.313,-0.209,0.093,-87.047,-156.563,-155.003
1747685605.72,-0.002,0.011,-0.001,0.343,-0.183,0.111,-87.239,-156.240,-154.565
1747685605.73,-0.021,0.012,0.019,0.342,-0.139,0.125,-87.437,-155.972,-154.205
1747685605.74,-0.038,0.011,0.039,0.341,-0.110,0.128,-87.634,-155.851,-154.013
1747685605.75,-0.051,-0.009,0.038,0.344,-0.066,0.126,-87.833,-155.855,-153.966
1747685605.76,-0.053,-0.035,0.045,0.359,-0.010,0.126,-88.045,-155.372,-153.462
1747685605.77,-0.052,-0.054,0.048,0.390,0.029,0.133,-88.270,-154.614,-152.710
1747685605.78,-0.052,-0.044,0.041,0.427,0.043,0.160,-88.517,-153.632,-151.749
1747685605.79,-0.048,0.001,0.025,0.484,0.065,0.190,-88.793,-152.436,-150.583
1747685605.80,-0.037,0.043,0.007,0.572,0.107,0.197,-89.110,-149.680,-147.875
1747685605.81,-0.012,0.049,0.008,0.614,0.175,0.208,-89.458,-141.794,-140.068
1747685605.82,0.021,0.040,0.030,0.585,0.233,0.228,-89.773,-111.284,-109.677
1747685605.83,0.044,0.017,0.064,0.592,0.166,0.264,-89.738,-15.851,-14.362
1747685605.84,0.030,-0.006,0.052,0.616,0.040,0.305,-89.395,8.754,10.185
1747685605.85,-0.021,-0.029,0.051,0.611,-0.017,0.316,-89.012,15.931,17.360
1747685605.86,-0.078,-0.049,0.079,0.599,-0.008,0.271,-88.632,18.748,20.187
1747685605.87,-0.118,-0.050,0.083,0.580,0.081,0.223,-88.267,19.571,20.991
1747685605.88,-0.119,-0.038,0.104,0.566,0.163,0.205,-87.919,19.778,21.127
1747685605.89,-0.085,-0.019,0.102,0.598,0.166,0.190,-87.570,19.726,20.979
1747685605.90,-0.031,0.023,0.062,0.621,0.061,0.181,-87.205,19.441,20.624
1747685605.91,0.028,0.053,0.028,0.649,-0.112,0.153,-86.833,18.879,20.075
1747685605.92,0.082,0.045,0.006,0.685,-0.222,0.130,-86.445,18.007,19.300
1747685605.93,0.126,0.022,0.037,0.691,-0.287,0.128,-86.049,17.111,18.547
1747685605.94,0.124,-0.003,0.074,0.747,-0.390,0.159,-85.634,16.373,18.002
1747685605.95,0.064,-0.025,0.039,0.802,-0.456,0.186,-85.180,15.786,17.657
1747685605.96,-0.021,-0.024,0.018,0.800,-0.485,0.191,-84.708,15.303,17.442
1747685605.97,-0.117,0.010,-0.000,0.787,-0.485,0.169,-84.244,14.852,17.272
1747685605.98,-0.209,0.029,-0.022,0.803,-0.308,0.088,-83.786,14.225,16.875
1747685605.99,-0.252,0.017,-0.003,0.826,-0.005,-0.002,-83.329,13.349,16.085
1747685606.00,-0.235,-0.017,0.023,0.809,0.239,-0.031,-82.875,12.451,15.108
1747685606.01,-0.183,-0.050,0.015,0.775,0.395,0.016,-82.435,11.852,14.077
1747685606.02,-0.108,-0.060,0.001,0.799,0.497,0.079,-81.991,11.637,13.600
1747685606.03,-0.024,-0.046,-0.009,0.855,0.539,0.129,-81.516,11.681,13.107
1747685606.04,0.044,-0.022,0.001,0.902,0.582,0.164,-81.008,11.864,12.968
1747685606.05,0.095,-0.010,0.029,0.952,0.583,0.200,-80.468,12.151,12.694
1747685606.06,0.110,-0.010,0.014,0.939,0.543,0.188,-79.913,12.447,12.665
1747685606.07,0.096,-0.004,-0.030,0.866,0.481,0.167,-79.387,12.669,12.363
1747685606.08,0.074,-0.005,-0.048,0.795,0.407,0.136,-78.907,12.822,12.261
1747685606.09,0.056,-0.014,-0.034,0.815,0.399,0.100,-78.447,12.868,11.856
1747685606.10,0.052,-0.024,-0.012,0.866,0.351,0.076,-77.966,12.806,11.570
1747685606.11,0.034,-0.010,-0.008,0.900,0.216,0.069,-77.464,12.642,11.037
1747685606.12,0.018,0.013,-0.028,0.950,0.137,0.068,-76.940,12.401,10.693
1747685606.13,0.023,0.028,-0.038,0.976,0.237,0.045,-76.395,12.143,10.130
1747685606.14,0.038,0.020,0.010,1.011,0.378,0.001,-75.838,11.900,9.696
1747685606.15,0.020,-0.008,0.015,1.068,0.364,-0.036,-75.259,11.607,8.974
1747685606.16,-0.031,-0.033,-0.030,1.021,0.213,-0.057,-74.674,11.230,8.411
1747685606.17,-0.088,-0.035,-0.037,0.939,0.136,-0.045,-74.133,10.837,7.741
1747685606.18,-0.139,-0.038,-0.033,0.962,0.250,-0.030,-73.605,10.524,7.305
1747685606.19,-0.183,-0.034,-0.036,0.990,0.344,-0.030,-73.058,10.309,6.724
1747685606.20,-0.209,0.003,-0.065,0.954,0.342,-0.050,-72.513,10.110,6.314
1747685606.21,-0.185,0.037,-0.057,0.921,0.535,-0.078,-71.995,9.947,5.725
1747685606.22,-0.085,0.017,0.035,1.008,0.736,-0.090,-71.465,9.887,5.273
1747685606.23,0.003,-0.019,0.042,1.160,0.713,-0.117,-70.864,9.827,4.599
1747685606.24,0.001,-0.028,-0.038,1.217,0.663,-0.169,-70.204,9.663,4.013
1747685606.25,-0.040,-0.014,-0.045,1.162,0.734,-0.218,-69.548,9.455,3.213
1747685606.26,-0.095,0.004,-0.005,1.085,0.838,-0.232,-68.938,9.292,2.560
1747685606.27,-0.164,0.005,0.014,1.045,0.891,-0.228,-68.360,9.208,1.783
1747685606.28,-0.211,-0.001,0.039,1.004,0.915,-0.217,-67.803,9.178,1.196
1747685606.29,-0.200,-0.003,0.037,0.993,0.931,-0.224,-67.260,9.192,0.503
1747685606.30,-0.145,0.006,0.016,0.957,0.898,-0.231,-66.730,9.198,-0.057
1747685606.31,-0.051,0.003,0.018,0.973,0.816,-0.208,-66.210,9.202,-0.737
1747685606.32,0.057,-0.004,0.008,1.063,0.750,-0.194,-65.655,9.189,-1.241
1747685606.33,0.149,-0.003,0.016,1.149,0.646,-0.164,-65.046,9.145,-1.865
1747685606.34,0.189,-0.004,0.042,1.187,0.494,-0.098,-64.398,9.085,-2.289
1747685606.35,0.170,-0.004,0.052,1.197,0.440,-0.051,-63.731,9.045,-2.753
1747685606.36,0.100,-0.002,0.084,1.161,0.406,-0.074,-63.070,9.009,-3.066
1747685606.37,-0.014,-0.001,0.073,1.091,0.351,-0.131,-62.443,8.921,-3.474
1747685606.38,-0.067,-0.004,-0.006,1.026,0.378,-0.196,-61.859,8.773,-3.870
1747685606.39,-0.020,-0.009,-0.050,0.949,0.406,-0.231,-61.320,8.611,-4.311
1747685606.40,0.090,-0.027,-0.015,0.932,0.403,-0.142,-60.808,8.503,-4.700
1747685606.41,0.223,-0.053,0.033,0.969,0.323,0.022,-60.278,8.510,-4.934
1747685606.42,0.312,-0.052,0.057,1.041,0.194,0.174,-59.703,8.611,-4.988
1747685606.43,0.324,-0.032,0.066,1.138,0.076,0.230,-59.070,8.726,-4.943
1747685606.44,0.267,0.009,0.042,1.150,-0.026,0.204,-58.401,8.779,-4.895
1747685606.45,0.152,0.042,0.036,1.106,-0.051,0.124,-57.751,8.746,-4.906
1747685606.46,0.039,0.048,0.006,1.072,-0.045,0.146,-57.124,8.678,-4.953
1747685606.47,-0.022,0.012,-0.033,1.014,0.008,0.222,-56.517,8.687,-4.928
1747685606.48,-0.049,-0.020,0.015,0.926,0.138,0.278,-55.949,8.813,-4.825
1747685606.49,-0.022,-0.043,0.042,0.909,0.162,0.311,-55.407,9.030,-4.673
1747685606.50,0.016,-0.058,-0.034,0.927,0.052,0.309,-54.861,9.228,-4.510
1747685606.51,0.017,-0.065,-0.055,0.931,-0.032,0.300,-54.311,9.352,-4.360
1747685606.52,0.017,-0.054,-0.002,0.996,0.001,0.280,-53.741,9.443,-4.233
1747685606.53,0.014,-0.027,0.062,1.060,0.073,0.239,-53.136,9.534,-4.148
1747685606.54,-0.043,0.017,0.091,1.080,0.059,0.200,-52.511,9.601,-4.113
1747685606.55,-0.116,0.058,0.019,1.071,0.052,0.176,-51.888,9.634,-4.110
1747685606.56,-0.148,0.071,-0.021,1.019,0.065,0.220,-51.278,9.675,-4.099
1747685606.57,-0.117,0.055,-0.054,0.934,0.149,0.348,-50.701,9.810,-3.996
1747685606.58,-0.044,0.022,-0.025,0.864,0.311,0.411,-50.157,10.096,-3.798
1747685606.59,0.006,-0.016,0.038,0.975,0.104,0.260,-49.606,10.333,-3.639
1747685606.60,0.047,-0.030,0.038,1.012,-0.008,0.198,-49.022,10.376,-3.611
1747685606.61,0.147,-0.062,0.081,1.003,-0.030,0.264,-48.432,10.391,-3.576
1747685606.62,0.180,-0.071,0.070,0.997,-0.092,0.303,-47.841,10.425,-3.486
1747685606.63,0.147,-0.047,-0.021,1.001,-0.151,0.213,-47.252,10.397,-3.426
1747685606.64,0.073,-0.024,-0.040,0.960,-0.220,0.264,-46.676,10.321,-3.385
1747685606.65,0.029,-0.023,-0.001,0.923,-0.236,0.358,-46.116,10.270,-3.270
1747685606.66,0.009,-0.008,0.030,0.929,-0.200,0.425,-45.557,10.270,-3.092
1747685606.67,0.024,0.003,0.035,0.955,-0.167,0.516,-44.980,10.349,-2.843
1747685606.68,0.036,0.022,0.039,1.022,-0.135,0.476,-44.372,10.438,-2.589
1747685606.69,0.067,0.046,0.020,1.079,-0.105,0.344,-43.739,10.491,-2.418
1747685606.70,0.085,0.037,0.001,1.085,-0.122,0.248,-43.097,10.475,-2.349
1747685606.71,0.056,-0.013,0.005,1.056,-0.137,0.260,-42.471,10.428,-2.311
1747685606.72,0.060,-0.054,0.035,1.028,-0.175,0.312,-41.856,10.387,-2.242
1747685606.73,0.024,-0.081,0.030,0.991,-0.237,0.419,-41.250,10.367,-2.096
1747685606.74,-0.004,-0.077,0.015,0.987,-0.226,0.340,-40.657,10.330,-1.944
1747685606.75,-0.023,-0.056,0.010,0.978,-0.193,0.340,-40.069,10.283,-1.829
1747685606.76,-0.013,-0.048,0.005,0.956,-0.100,0.349,-39.493,10.284,-1.706
1747685606.77,-0.010,0.006,0.002,0.959,-0.128,0.433,-38.914,10.320,-1.546
1747685606.78,0.000,0.050,-0.009,0.971,-0.180,0.447,-38.326,10.352,-1.353
1747685606.79,-0.022,0.106,0.032,0.988,-0.175,0.393,-37.733,10.356,-1.177
1747685606.80,-0.036,0.132,0.068,1.033,-0.151,0.272,-37.132,10.329,-1.072
1747685606.81,-0.078,0.118,0.049,1.081,-0.132,0.188,-36.515,10.264,-1.043
1747685606.82,-0.122,0.085,0.015,1.099,-0.098,0.080,-35.887,10.173,-1.093
1747685606.83,-0.172,0.048,-0.022,1.098,-0.023,0.053,-35.264,10.088,-1.180
1747685606.84,-0.189,-0.004,-0.037,1.102,-0.006,0.144,-34.633,10.034,-1.260
1747685606.85,-0.201,-0.040,-0.045,1.078,0.060,0.180,-34.004,10.037,-1.273
1747685606.86,-0.172,-0.028,0.015,1.133,0.163,-0.012,-33.375,10.063,-1.344
1747685606.87,-0.157,-0.034,0.025,1.159,0.229,-0.093,-32.733,10.078,-1.526
1747685606.88,-0.067,-0.055,0.065,1.141,0.200,-0.011,-32.093,10.106,-1.703
1747685606.89,0.008,-0.041,0.079,1.162,0.109,-0.015,-31.447,10.121,-1.842
1747685606.90,0.066,-0.000,0.077,1.224,0.049,-0.019,-30.780,10.087,-1.993
1747685606.91,0.146,0.027,0.069,1.271,0.004,-0.032,-30.080,10.022,-2.152
1747685606.92,0.159,0.046,0.037,1.300,-0.024,-0.063,-29.361,9.929,-2.325
1747685606.93,0.136,0.054,0.015,1.293,-0.048,-0.054,-28.635,9.815,-2.515
1747685606.94,0.109,0.031,-0.021,1.251,-0.033,0.006,-27.921,9.721,-2.666
1747685606.95,0.028,-0.005,-0.045,1.216,0.055,0.021,-27.225,9.666,-2.793
1747685606.96,-0.030,-0.060,-0.015,1.184,0.175,0.104,-26.544,9.693,-2.883
1747685606.97,-0.033,-0.058,-0.001,1.157,0.219,0.175,-25.872,9.790,-2.922
1747685606.98,-0.036,-0.028,-0.003,1.157,0.212,0.166,-25.205,9.907,-2.937
1747685606.99,0.027,0.014,0.025,1.172,0.138,0.120,-24.537,9.991,-2.976
1747685607.00,0.112,0.050,0.057,1.196,0.037,0.123,-23.859,10.019,-3.029
1747685607.01,0.167,0.067,0.080,1.280,-0.054,0.056,-23.155,9.981,-3.110
1747685607.02,0.173,0.056,0.072,1.383,-0.109,-0.027,-22.402,9.884,-3.242
1747685607.03,0.119,0.029,0.032,1.394,-0.106,-0.034,-21.619,9.751,-3.414
1747685607.04,0.097,0.011,0.018,1.445,-0.001,0.097,-20.820,9.682,-3.543
1747685607.05,0.012,-0.069,0.012,1.470,0.019,0.159,-19.983,9.656,-3.608
1747685607.06,-0.021,-0.122,0.013,1.382,0.074,0.184,-19.159,9.667,-3.655
1747685607.07,0.075,-0.073,-0.011,1.227,0.083,0.249,-18.404,9.712,-3.657
1747685607.08,0.084,-0.023,-0.011,1.181,0.046,0.304,-17.705,9.761,-3.614
1747685607.09,0.036,0.012,0.013,1.202,0.064,0.366,-17.001,9.816,-3.534
1747685607.10,0.032,0.052,0.050,1.223,0.165,0.220,-16.287,9.893,-3.233
1747685607.11,-0.020,0.062,0.073,1.198,0.085,0.238,-15.584,9.971,-3.236
1747685607.12,0.046,0.024,0.037,1.164,0.026,0.349,-14.890,10.013,-2.945
1747685607.13,0.076,0.040,0.027,1.218,0.044,0.341,-14.187,10.055,-2.862
1747685607.14,0.031,-0.012,-0.015,1.237,0.068,0.342,-13.459,10.102,-2.542
1747685607.15,0.037,-0.047,-0.008,1.215,0.057,0.355,-12.731,10.160,-2.475
1747685607.16,0.058,0.033,0.018,1.218,0.015,0.363,-12.015,10.197,-2.122
1747685607.17,0.025,0.103,0.037,1.222,0.052,0.360,-11.291,10.232,-2.041
1747685607.18,-0.026,0.111,0.050,1.212,0.068,0.348,-10.572,10.283,-1.692
1747685607.19,-0.076,0.097,0.040,1.227,0.096,0.327,-9.851,10.341,-1.627
1747685607.20,-0.075,0.058,0.016,1.248,0.115,0.269,-9.124,10.413,-1.319
1747685607.21,-0.040,-0.004,-0.036,1.190,0.030,0.277,-8.411,10.459,-1.289
1747685607.22,0.048,-0.029,-0.116,1.164,-0.055,0.264,-7.723,10.456,-0.969
1747685607.23,0.084,-0.008,-0.134,1.149,-0.186,0.234,-7.047,10.387,-0.953
1747685607.24,0.047,-0.046,-0.089,1.106,-0.238,0.220,-6.391,10.265,-0.654
1747685607.25,0.026,0.033,-0.048,1.128,-0.244,0.211,-5.742,10.127,-0.327
1747685607.26,-0.015,0.073,0.007,1.138,-0.205,0.202,-5.085,9.997,-0.325
1747685607.27,-0.042,0.085,0.028,1.149,-0.155,0.180,-4.423,9.895,-0.008
1747685607.28,-0.043,0.081,0.009,1.168,-0.078,0.236,-3.753,9.830,-0.001
1747685607.29,-0.015,0.104,0.049,1.171,-0.051,0.205,-3.069,9.794,0.339
1747685607.30,-0.024,0.085,-0.001,1.142,-0.037,0.168,-2.400,9.770,0.329
1747685607.31,-0.009,0.040,-0.060,1.152,-0.078,0.134,-1.740,9.741,0.640
1747685607.32,-0.008,-0.046,-0.082,1.129,-0.105,0.112,-1.086,9.687,0.598
1747685607.33,0.054,-0.125,-0.093,1.104,-0.170,0.061,-0.447,9.610,0.858
1747685607.34,0.081,-0.058,-0.094,1.074,-0.218,0.106,0.173,9.498,0.804
1747685607.35,0.050,-0.009,-0.049,1.072,-0.205,0.119,0.788,9.375,1.086
1747685607.36,-0.039,0.072,-0.014,1.083,-0.164,0.120,1.406,9.271,1.055
1747685607.37,-0.081,0.116,0.025,1.077,-0.114,0.120,2.027,9.193,1.348
1747685607.38,-0.046,0.079,0.017,1.050,-0.094,0.126,2.636,9.136,1.319
1747685607.39,0.036,0.066,-0.050,1.056,-0.116,0.099,3.241,9.077,1.607
1747685607.40,0.033,-0.038,-0.055,1.056,-0.092,0.086,3.848,9.017,1.567
1747685607.41,0.009,0.011,-0.061,1.046,-0.016,0.031,4.446,8.991,1.825
1747685607.42,-0.041,0.055,-0.083,1.027,0.038,0.010,5.035,9.004,1.743
1747685607.43,-0.095,0.042,-0.072,1.018,0.129,-0.018,5.612,9.062,1.963
1747685607.44,-0.081,-0.007,-0.073,0.979,0.183,-0.026,6.173,9.164,1.860
1747685607.45,-0.035,-0.010,-0.072,0.979,0.157,-0.065,6.718,9.277,2.057
1747685607.46,-0.004,0.053,-0.089,0.963,0.064,-0.004,7.263,9.357,1.950
1747685607.47,0.067,0.130,-0.084,0.961,-0.054,-0.003,7.806,9.371,2.156
1747685607.48,0.067,0.149,-0.080,0.935,-0.136,-0.015,8.339,9.328,2.062
1747685607.49,0.055,0.110,-0.079,0.912,-0.187,-0.023,8.858,9.250,2.260
1747685607.50,0.052,0.084,-0.107,0.898,-0.240,-0.048,9.365,9.143,2.158
1747685607.51,0.023,0.016,-0.116,0.871,-0.208,-0.090,9.857,9.031,2.341
1747685607.52,-0.018,-0.095,-0.126,0.830,-0.150,-0.057,10.330,8.950,2.213
1747685607.53,-0.022,-0.096,-0.121,0.805,-0.081,-0.048,10.787,8.901,2.415
1747685607.54,-0.049,-0.075,-0.099,0.748,0.049,-0.069,11.221,8.910,2.312
1747685607.55,-0.051,-0.060,-0.083,0.701,0.135,-0.066,11.623,8.984,2.508
1747685607.56,-0.039,-0.011,-0.065,0.652,0.178,-0.065,12.000,9.093,2.406
1747685607.57,0.008,-0.001,-0.062,0.594,0.179,-0.066,12.346,9.216,2.596
1747685607.58,0.061,-0.001,-0.087,0.550,0.148,-0.065,12.663,9.331,2.505
1747685607.59,0.059,0.015,-0.105,0.486,0.078,-0.089,12.947,9.416,2.687
1747685607.60,0.031,-0.029,-0.131,0.437,0.047,-0.152,13.195,9.474,2.579
1747685607.61,0.008,-0.087,-0.150,0.351,0.037,-0.097,13.405,9.526,2.755
1747685607.62,0.051,-0.086,-0.182,0.276,0.042,-0.098,13.574,9.566,2.669
1747685607.63,0.035,-0.126,-0.203,0.161,0.078,-0.091,13.689,9.618,2.873
1747685607.64,0.011,-0.175,-0.215,0.046,0.122,-0.073,13.739,9.689,2.815
1747685607.65,0.008,-0.182,-0.219,-0.080,0.182,-0.057,13.724,9.787,3.068
1747685607.65,0.035,-0.149,-0.225,-0.193,0.142,-0.049,13.643,9.885,3.050
1747685607.67,0.034,-0.125,-0.231,-0.310,0.123,-0.050,13.495,9.958,3.317
1747685607.68,0.002,-0.110,-0.190,-0.411,0.155,-0.056,13.286,10.036,3.324
1747685607.68,-0.001,-0.095,-0.191,-0.514,0.151,-0.070,13.019,10.122,3.609
1747685607.70,0.009,-0.105,-0.225,-0.607,0.134,-0.079,12.697,10.202,3.624
1747685607.70,0.037,-0.127,-0.233,-0.711,0.076,-0.073,12.320,10.258,3.897
1747685607.72,0.065,-0.136,-0.250,-0.820,0.054,-0.062,11.884,10.286,3.938
1747685607.72,0.069,-0.132,-0.245,-0.919,0.045,-0.046,11.388,10.301,4.257
1747685607.73,0.043,-0.103,-0.247,-1.021,0.086,-0.018,10.840,10.320,4.337
1747685607.74,0.040,-0.075,-0.251,-1.112,0.072,-0.011,10.240,10.345,4.689
1747685607.76,0.048,-0.079,-0.224,-1.219,0.175,-0.015,9.587,10.387,4.812
1747685607.77,0.024,-0.082,-0.157,-1.299,0.175,0.034,8.873,10.468,5.171
1747685607.77,0.056,-0.090,-0.168,-1.372,0.181,0.107,8.135,10.543,5.361
1747685607.78,0.069,-0.076,-0.139,-1.466,0.209,0.093,7.350,10.628,5.811
1747685607.79,0.079,-0.034,-0.131,-1.498,0.198,0.099,6.529,10.718,6.020
1747685607.80,0.113,-0.031,-0.130,-1.569,0.185,0.096,5.681,10.803,6.471
1747685607.81,0.085,-0.010,-0.121,-1.612,0.180,0.101,4.800,10.883,6.698
1747685607.82,0.077,-0.023,-0.136,-1.683,0.205,0.094,3.890,10.974,7.154
1747685607.83,0.020,-0.016,-0.117,-1.722,0.219,0.093,2.942,11.081,7.383
1747685607.85,0.031,-0.025,-0.126,-1.761,0.175,0.120,1.978,11.184,7.842
1747685607.85,0.009,-0.001,-0.137,-1.814,0.155,0.097,0.993,11.267,8.107
1747685607.86,-0.018,0.032,-0.110,-1.835,0.158,0.067,-0.024,11.355,8.539
1747685607.87,0.004,0.015,-0.089,-1.859,0.154,0.059,-1.047,11.444,8.784
1747685607.88,-0.007,-0.015,-0.069,-1.887,0.154,-0.020,-2.097,11.541,9.190
1747685607.89,-0.049,-0.011,-0.018,-1.848,0.168,-0.062,-3.144,11.639,9.381
1747685607.90,-0.065,-0.011,0.038,-1.860,0.206,-0.119,-4.190,11.757,9.728
1747685607.91,-0.079,0.007,-0.005,-1.901,0.259,-0.181,-5.260,11.901,9.865
1747685607.92,-0.083,0.017,-0.038,-1.925,0.299,-0.165,-6.349,12.073,10.157
1747685607.93,-0.063,-0.005,-0.031,-1.967,0.338,-0.147,-7.455,12.272,10.307
1747685607.94,-0.025,-0.001,-0.017,-1.982,0.369,-0.161,-8.575,12.499,10.621
1747685607.95,0.028,0.007,0.004,-1.987,0.332,-0.213,-9.708,12.728,10.764
1747685607.96,0.057,-0.007,-0.013,-1.989,0.279,-0.223,-10.841,12.925,11.049
1747685607.97,0.079,-0.054,-0.038,-2.023,0.227,-0.224,-11.986,13.096,11.184
1747685607.98,0.080,-0.074,-0.041,-2.043,0.205,-0.163,-13.143,13.251,11.471
1747685607.99,0.114,-0.090,-0.047,-2.070,0.187,-0.071,-14.300,13.414,11.684
1747685608.00,0.127,-0.074,-0.037,-2.067,0.204,-0.016,-15.456,13.590,12.062
1747685608.01,0.111,-0.025,0.015,-2.069,0.255,0.003,-16.603,13.800,12.419
1747685608.02,0.070,0.013,0.062,-2.052,0.303,-0.019,-17.748,14.047,12.712
1747685608.03,0.009,0.032,0.088,-2.049,0.322,-0.053,-18.887,14.315,13.056
1747685608.04,-0.030,0.025,0.074,-2.057,0.297,-0.059,-20.031,14.585,13.333
1747685608.05,-0.031,-0.001,0.019,-2.082,0.252,-0.050,-21.187,14.845,13.668
1747685608.06,0.010,-0.022,-0.014,-2.122,0.223,-0.019,-22.352,15.099,13.985
