Time,AccX,AccY,AccZ,GyroX,GyroY,GyroZ,Pitch,Roll,Yaw
1747651569.24,0.025,0.001,0.001,0.007,0.034,-0.052,-81.988,31.267,6.966
1747651569.25,-0.009,0.005,-0.006,0.013,-0.003,-0.054,-81.995,31.062,6.751
1747651569.26,-0.034,0.003,-0.004,0.004,-0.009,-0.064,-82.005,30.807,6.498
1747651569.27,-0.047,-0.002,0.006,-0.005,0.003,-0.075,-82.026,30.545,6.236
1747651569.28,-0.047,-0.003,0.014,-0.014,0.015,-0.088,-82.056,30.273,5.955
1747651569.29,-0.039,-0.002,0.012,-0.013,0.029,-0.089,-82.093,29.991,5.659
1747651569.30,-0.025,0.002,0.003,-0.007,0.047,-0.084,-82.125,29.732,5.376
1747651569.31,-0.007,0.002,-0.006,0.002,0.083,-0.077,-82.149,29.519,5.124
1747651569.32,0.007,-0.002,-0.014,0.011,0.134,-0.068,-82.166,29.323,4.862
1747651569.33,0.008,0.003,-0.008,0.011,0.155,-0.055,-82.177,29.161,4.615
1747651569.34,0.002,0.005,-0.004,0.007,0.140,-0.056,-82.189,29.003,4.369
1747651569.35,-0.002,0.014,-0.009,0.006,0.118,-0.046,-82.203,28.850,4.142
1747651569.36,0.006,0.007,-0.016,0.003,0.111,-0.027,-82.214,28.751,3.975
1747651569.37,0.019,-0.004,-0.003,-0.009,0.096,-0.014,-82.223,28.722,3.887
1747651569.38,0.025,-0.010,0.006,-0.016,0.065,-0.013,-82.234,28.726,3.844
1747651569.39,0.022,-0.011,0.007,-0.010,0.022,-0.022,-82.246,28.700,3.793
1747651569.40,0.016,-0.015,0.011,-0.003,-0.001,-0.028,-82.253,28.618,3.705
1747651569.41,0.006,-0.019,0.015,-0.012,-0.010,-0.028,-82.263,28.516,3.606
1747651569.42,0.006,-0.028,0.018,-0.015,0.016,-0.032,-82.278,28.441,3.527
1747651569.43,0.005,-0.017,0.016,-0.013,0.008,-0.039,-82.294,28.344,3.423
1747651569.44,-0.007,0.009,-0.000,0.007,0.013,-0.046,-82.304,28.194,3.266
1747651569.45,-0.009,0.019,-0.006,0.022,0.023,-0.040,-82.305,28.039,3.099
1747651569.46,-0.007,0.017,-0.011,0.020,0.030,-0.034,-82.302,27.900,2.943
1747651569.47,-0.008,0.001,-0.007,0.005,0.035,-0.035,-82.303,27.793,2.815
1747651569.48,-0.008,-0.015,0.007,-0.016,0.033,-0.034,-82.316,27.710,2.712
1747651569.49,-0.005,-0.023,0.009,-0.034,0.046,-0.019,-82.337,27.692,2.673
1747651569.50,-0.002,-0.023,0.011,-0.036,0.088,0.000,-82.359,27.785,2.726
1747651569.51,-0.005,-0.020,0.013,-0.018,0.096,0.024,-82.371,27.955,2.844
1747651569.52,-0.018,-0.018,0.004,-0.008,0.098,0.036,-82.370,28.153,2.989
1747651569.53,-0.034,-0.006,0.001,-0.002,0.130,0.011,-82.365,28.318,3.090
1747651569.54,-0.036,0.021,0.011,0.006,0.152,-0.004,-82.363,28.386,3.076
1747651569.55,-0.016,0.036,0.012,0.016,0.128,-0.012,-82.360,28.404,3.013
1747651569.56,0.001,0.031,-0.007,0.035,0.106,-0.032,-82.354,28.331,2.872
1747651569.57,0.016,0.021,-0.014,0.039,0.090,-0.036,-82.346,28.174,2.659
1747651569.58,0.034,0.010,-0.005,0.017,0.077,-0.026,-82.341,28.043,2.479
1747651569.59,0.047,0.000,0.006,-0.001,0.061,-0.024,-82.347,27.975,2.371
1747651569.60,0.047,-0.009,0.003,-0.003,0.048,-0.025,-82.356,27.911,2.275
1747651569.61,0.041,-0.017,-0.000,-0.018,0.031,-0.021,-82.369,27.845,2.187
1747651569.62,0.035,-0.023,-0.001,-0.026,0.040,-0.020,-82.388,27.808,2.130
1747651569.63,0.033,-0.026,-0.002,-0.046,0.057,-0.018,-82.412,27.834,2.128
1747651569.64,0.035,-0.016,0.012,-0.065,0.043,-0.010,-82.444,27.923,2.188
1747651569.65,0.033,0.003,0.005,-0.047,0.008,-0.015,-82.476,28.014,2.266
1747651569.66,0.029,0.017,-0.015,-0.026,-0.026,-0.019,-82.497,28.037,2.293
1747651569.67,0.028,0.023,-0.022,-0.034,-0.071,-0.026,-82.517,28.007,2.289
1747651569.68,0.029,0.009,-0.017,-0.042,-0.109,-0.021,-82.542,27.976,2.310
1747651569.69,0.026,-0.012,-0.010,-0.029,-0.116,-0.009,-82.561,27.966,2.364
1747651569.70,0.021,-0.025,0.007,-0.013,-0.117,-0.003,-82.570,27.951,2.416
1747651569.71,0.010,-0.023,0.003,-0.014,-0.135,-0.007,-82.574,27.912,2.447
1747651569.72,-0.009,-0.025,-0.006,-0.006,-0.160,-0.009,-82.580,27.865,2.485
1747651569.73,-0.021,-0.041,-0.008,0.025,-0.173,-0.014,-82.576,27.744,2.458
1747651569.74,-0.022,-0.043,-0.032,0.050,-0.173,-0.019,-82.558,27.517,2.329
1747651569.75,-0.013,-0.017,-0.035,0.068,-0.175,-0.019,-82.530,27.237,2.148
1747651569.75,-0.002,0.014,-0.038,0.108,-0.180,-0.012,-82.486,26.925,1.934
1747651569.76,0.003,0.041,-0.064,0.134,-0.201,-0.018,-82.425,26.542,1.658
1747651569.77,0.003,0.046,-0.070,0.151,-0.195,-0.006,-82.355,26.125,1.353
1747651569.78,0.007,0.030,-0.047,0.158,-0.142,0.011,-82.275,25.763,1.086
1747651569.79,0.009,0.006,-0.019,0.156,-0.106,0.017,-82.188,25.465,0.856
1747651569.80,-0.006,-0.012,0.002,0.147,-0.111,0.018,-82.105,25.197,0.644
1747651569.82,-0.029,-0.015,-0.001,0.147,-0.152,-0.001,-82.026,24.883,0.405
1747651569.82,-0.049,-0.014,-0.016,0.146,-0.154,-0.014,-81.950,24.509,0.116
1747651569.83,-0.049,-0.017,-0.007,0.141,-0.116,-0.020,-81.876,24.127,-0.191
1747651569.84,-0.039,-0.017,0.010,0.131,-0.083,-0.025,-81.806,23.762,-0.502
1747651569.85,-0.032,-0.005,0.018,0.117,-0.090,-0.036,-81.743,23.394,-0.825
1747651569.86,-0.029,0.015,0.016,0.111,-0.122,-0.042,-81.689,23.011,-1.153
1747651569.87,-0.014,0.024,0.006,0.120,-0.162,-0.033,-81.636,22.623,-1.461
1747651569.88,0.011,0.019,0.002,0.124,-0.157,-0.018,-81.579,22.256,-1.737
1747651569.89,0.033,0.003,0.012,0.123,-0.132,-0.007,-81.517,21.932,-1.982
1747651569.90,0.040,-0.003,0.029,0.136,-0.114,-0.009,-81.451,21.623,-2.223
1747651569.91,0.013,0.012,0.033,0.145,-0.117,-0.020,-81.380,21.283,-2.500
1747651569.92,-0.028,0.045,0.027,0.143,-0.133,-0.035,-81.312,20.900,-2.814
1747651569.93,-0.081,0.064,0.035,0.146,-0.122,-0.052,-81.246,20.475,-3.168
1747651569.94,-0.114,0.047,0.056,0.131,-0.049,-0.063,-81.184,20.043,-3.555
1747651569.95,-0.104,0.006,0.089,0.096,0.041,-0.060,-81.135,19.682,-3.919
1747651569.96,-0.070,-0.031,0.101,0.073,0.102,-0.049,-81.101,19.438,-4.207
1747651569.97,-0.036,-0.044,0.092,0.068,0.134,-0.035,-81.073,19.284,-4.432
1747651569.98,-0.007,-0.020,0.083,0.079,0.155,-0.013,-81.040,19.208,-4.593
1747651569.99,0.016,0.019,0.071,0.106,0.161,0.009,-80.991,19.191,-4.703
1747651570.00,0.024,0.040,0.051,0.145,0.159,0.019,-80.922,19.181,-4.806
1747651570.01,0.020,0.039,0.034,0.184,0.158,0.024,-80.831,19.143,-4.936
1747651570.02,0.016,0.018,0.038,0.208,0.147,0.031,-80.721,19.081,-5.087
1747651570.03,0.010,-0.009,0.046,0.209,0.105,0.044,-80.605,19.023,-5.220
1747651570.04,0.002,-0.032,0.037,0.203,0.033,0.061,-80.487,18.995,-5.287
1747651570.05,-0.002,-0.037,0.015,0.198,-0.047,0.068,-80.370,18.978,-5.301
1747651570.06,-0.003,-0.029,-0.003,0.205,-0.105,0.060,-80.253,18.921,-5.314
1747651570.07,0.014,-0.019,-0.001,0.240,-0.145,0.050,-80.126,18.787,-5.378
1747651570.08,0.056,-0.013,0.010,0.283,-0.181,0.061,-79.976,18.600,-5.473
1747651570.09,0.086,-0.009,0.007,0.334,-0.208,0.073,-79.798,18.382,-5.582
1747651570.10,0.086,-0.004,0.002,0.387,-0.231,0.083,-79.591,18.140,-5.701
1747651570.11,0.055,0.003,-0.011,0.461,-0.241,0.092,-79.348,17.859,-5.849
1747651570.12,0.007,0.016,-0.025,0.519,-0.235,0.100,-79.065,17.552,-6.023
1747651570.13,-0.050,0.032,-0.026,0.556,-0.202,0.100,-78.755,17.243,-6.211
1747651570.14,-0.113,0.041,-0.014,0.576,-0.141,0.088,-78.430,16.926,-6.432
1747651570.15,-0.172,0.034,-0.002,0.587,0.013,0.079,-78.098,16.644,-6.678
1747651570.16,-0.198,0.013,0.030,0.580,0.193,0.080,-77.766,16.461,-6.927
1747651570.17,-0.190,-0.006,0.065,0.594,0.322,0.098,-77.430,16.398,-7.143
1747651570.18,-0.156,-0.020,0.062,0.630,0.384,0.120,-77.077,16.429,-7.321
1747651570.19,-0.098,-0.025,0.043,0.686,0.399,0.148,-76.695,16.510,-7.467
1747651570.20,-0.025,-0.028,0.020,0.756,0.398,0.180,-76.274,16.621,-7.588
1747651570.21,0.043,-0.020,0.012,0.797,0.375,0.230,-75.815,16.781,-7.652
1747651570.22,0.085,0.002,0.018,0.852,0.327,0.270,-75.325,16.985,-7.648
1747651570.23,0.076,0.022,0.017,0.908,0.244,0.293,-74.796,17.176,-7.620
1747651570.24,0.034,0.027,0.026,0.927,0.180,0.290,-74.244,17.312,-7.603
1747651570.25,-0.028,0.010,0.030,0.936,0.156,0.247,-73.691,17.365,-7.645
1747651570.26,-0.081,-0.019,0.018,0.956,0.171,0.199,-73.137,17.318,-7.789
1747651570.27,-0.088,-0.041,0.002,0.936,0.170,0.202,-72.586,17.248,-7.967
1747651570.28,-0.059,-0.050,0.008,0.903,0.084,0.211,-72.049,17.194,-8.105
1747651570.29,-0.048,-0.035,-0.021,0.905,-0.076,0.198,-71.523,17.075,-8.234
1747651570.30,-0.052,-0.016,-0.051,0.917,-0.202,0.198,-70.992,16.862,-8.370
1747651570.31,-0.027,-0.009,-0.028,0.939,-0.184,0.191,-70.453,16.618,-8.507
1747651570.32,0.013,-0.005,0.000,1.009,-0.072,0.179,-69.892,16.388,-8.671
1747651570.33,0.028,-0.014,0.009,1.098,0.020,0.186,-69.285,16.191,-8.869
1747651570.34,0.003,-0.022,-0.014,1.145,0.047,0.205,-68.636,16.027,-9.066
1747651570.35,-0.052,-0.029,-0.045,1.140,0.061,0.229,-67.974,15.902,-9.231
1747651570.36,-0.089,-0.039,-0.029,1.120,0.099,0.257,-67.316,15.839,-9.346
1747651570.37,-0.093,-0.040,0.007,1.080,0.174,0.301,-66.668,15.873,-9.395
1747651570.38,-0.072,-0.036,0.041,1.054,0.226,0.331,-66.033,16.007,-9.376
1747651570.39,-0.046,-0.031,0.061,1.061,0.223,0.340,-65.400,16.176,-9.334
1747651570.40,-0.022,-0.018,0.054,1.088,0.178,0.319,-64.759,16.314,-9.310
1747651570.41,0.018,-0.001,0.043,1.152,0.104,0.263,-64.100,16.358,-9.354
1747651570.42,0.060,0.018,0.021,1.222,0.006,0.212,-63.411,16.264,-9.492
1747651570.43,0.081,0.024,-0.009,1.237,-0.007,0.186,-62.703,16.085,-9.688
1747651570.44,0.080,0.016,-0.005,1.219,0.053,0.163,-62.002,15.914,-9.897
1747651570.45,0.043,0.005,0.043,1.187,0.017,0.171,-61.314,15.758,-10.103
1747651570.46,-0.023,-0.010,0.047,1.118,-0.054,0.178,-60.653,15.599,-10.271
1747651570.47,-0.049,-0.023,0.051,1.067,-0.025,0.213,-60.024,15.465,-10.395
1747651570.48,0.007,-0.030,0.062,1.021,0.065,0.275,-59.412,15.438,-10.441
1747651570.49,0.087,-0.024,0.111,0.982,0.069,0.292,-58.819,15.490,-10.430
1747651570.50,0.129,0.001,0.115,1.007,-0.051,0.315,-58.227,15.521,-10.403
1747651570.51,0.142,0.017,0.009,1.041,-0.162,0.282,-57.617,15.472,-10.387
1747651570.52,0.151,0.036,-0.016,1.055,-0.246,0.262,-56.999,15.341,-10.406
1747651570.53,0.152,0.043,0.000,1.068,-0.314,0.228,-56.377,15.142,-10.451
1747651570.54,0.128,0.042,0.022,1.062,-0.331,0.209,-55.756,14.899,-10.519
1747651570.55,0.083,0.037,0.049,1.039,-0.248,0.208,-55.146,14.674,-10.586
1747651570.56,0.048,0.029,0.051,1.047,-0.149,0.234,-54.541,14.522,-10.636
1747651570.57,0.022,0.015,0.031,1.052,-0.092,0.257,-53.923,14.437,-10.660
1747651570.58,-0.018,0.006,0.019,1.045,-0.097,0.271,-53.306,14.381,-10.665
1747651570.59,-0.049,0.001,0.017,1.032,-0.078,0.272,-52.693,14.334,-10.659
1747651570.60,-0.059,-0.006,0.045,1.021,-0.077,0.240,-52.089,14.288,-10.664
1747651570.61,-0.067,-0.006,0.016,1.003,-0.081,0.196,-51.499,14.213,-10.700
1747651570.62,-0.066,-0.001,-0.019,1.018,-0.036,0.161,-50.916,14.127,-10.767
1747651570.63,-0.051,-0.000,0.004,1.038,0.000,0.141,-50.325,14.043,-10.863
1747651570.64,-0.026,-0.007,0.020,1.001,0.058,0.178,-49.737,13.993,-10.949
1747651570.65,0.021,-0.015,0.053,0.921,0.135,0.226,-49.176,14.025,-10.981
1747651570.66,0.069,-0.005,0.069,0.847,0.125,0.284,-48.652,14.123,-10.953
1747651570.67,0.084,0.033,0.029,0.823,0.031,0.347,-48.147,14.237,-10.864
1747651570.68,0.064,0.079,0.018,0.861,-0.064,0.326,-47.635,14.304,-10.758
1747651570.69,0.032,0.119,0.016,0.937,-0.097,0.270,-47.098,14.299,-10.700
1747651570.70,0.001,0.116,0.006,1.014,-0.128,0.211,-46.521,14.230,-10.708
1747651570.71,-0.046,0.089,-0.014,1.047,-0.117,0.141,-45.924,14.111,-10.774
1747651570.72,-0.092,0.044,-0.031,1.003,-0.107,0.093,-45.337,13.969,-10.886
1747651570.73,-0.114,-0.021,-0.046,0.909,-0.087,0.090,-44.793,13.829,-11.004
1747651570.74,-0.108,-0.068,-0.021,0.806,-0.024,0.138,-44.303,13.742,-11.081
1747651570.75,-0.067,-0.077,0.033,0.738,0.062,0.211,-43.853,13.747,-11.089
1747651570.76,0.002,-0.037,0.080,0.713,0.056,0.252,-43.420,13.816,-11.044
1747651570.77,0.068,0.043,0.075,0.765,-0.021,0.237,-42.980,13.862,-10.994
1747651570.78,0.115,0.124,0.035,0.861,-0.123,0.197,-42.500,13.829,-10.980
1747651570.79,0.098,0.160,0.001,0.950,-0.219,0.122,-41.975,13.700,-11.026
1747651570.80,0.033,0.147,-0.018,0.984,-0.291,0.054,-41.423,13.479,-11.137
1747651570.81,-0.031,0.107,-0.049,0.979,-0.304,-0.015,-40.876,13.204,-11.295
1747651570.82,-0.077,0.032,-0.059,0.964,-0.279,-0.055,-40.340,12.912,-11.430
1747651570.83,-0.101,-0.045,-0.044,0.925,-0.144,-0.053,-39.819,12.661,-11.628
1747651570.84,-0.070,-0.092,-0.013,0.891,-0.027,-0.024,-39.319,12.503,-11.749
1747651570.85,-0.020,-0.123,0.009,0.883,0.016,0.011,-38.826,12.410,-11.830
1747651570.86,0.004,-0.130,0.013,0.909,0.238,0.003,-38.329,12.373,-11.952
1747651570.87,-0.011,-0.123,0.010,0.819,-0.014,-0.061,-37.832,12.321,-12.103
1747651570.88,-0.014,-0.109,0.012,0.813,0.010,0.160,-37.378,12.268,-12.182
1747651570.89,0.111,-0.021,0.041,0.819,0.030,0.143,-36.902,12.276,-12.145
1747651570.90,0.088,0.059,0.003,0.848,-0.075,0.115,-36.420,12.244,-12.180
1747651570.91,0.078,0.094,0.007,0.875,-0.178,0.063,-35.929,12.130,-12.219
1747651570.92,0.087,0.111,0.019,0.859,-0.279,0.077,-35.434,11.948,-12.301
1747651570.93,0.089,0.083,0.026,0.828,-0.315,0.105,-34.954,11.744,-12.331
1747651570.94,0.090,0.049,0.025,0.840,-0.352,0.112,-34.475,11.528,-12.373
1747651570.95,0.075,0.018,-0.023,0.810,-0.358,0.148,-33.997,11.310,-12.369
1747651570.96,0.055,-0.002,-0.040,0.762,-0.342,0.188,-33.537,11.115,-12.360
1747651570.97,0.034,-0.015,-0.047,0.743,-0.320,0.193,-33.095,10.943,-12.312
1747651570.98,0.024,-0.003,-0.029,0.741,-0.252,0.191,-32.658,10.795,-12.280
1747651570.99,0.017,0.039,0.013,0.735,-0.215,0.191,-32.223,10.685,-12.222
1747651571.00,-0.007,0.073,0.031,0.729,-0.236,0.175,-31.793,10.573,-12.192
1747651571.01,-0.047,0.079,0.013,0.746,-0.270,0.143,-31.363,10.437,-12.161
1747651571.02,-0.066,0.063,-0.018,0.789,-0.286,0.095,-30.919,10.272,-12.175
1747651571.03,-0.088,0.020,-0.030,0.802,-0.303,0.042,-30.464,10.080,-12.216
1747651571.04,-0.095,-0.034,-0.047,0.799,-0.307,-0.001,-30.012,9.864,-12.295
1747651571.05,-0.058,-0.074,-0.052,0.788,-0.245,-0.012,-29.565,9.657,-12.396
1747651571.06,0.022,-0.108,-0.012,0.740,-0.161,0.003,-29.135,9.499,-12.484
1747651571.07,0.093,-0.111,0.017,0.709,-0.117,0.043,-28.725,9.391,-12.556
1747651571.08,0.146,-0.095,0.007,0.684,-0.171,0.117,-28.326,9.301,-12.579
1747651571.09,0.165,-0.069,-0.026,0.666,-0.252,0.186,-27.932,9.193,-12.578
1747651571.10,0.156,-0.026,-0.026,0.667,-0.300,0.209,-27.539,9.062,-12.518
1747651571.11,0.125,0.013,0.009,0.688,-0.305,0.207,-27.139,8.917,-12.474
1747651571.12,0.076,0.031,0.024,0.718,-0.245,0.200,-26.724,8.786,-12.414
1747651571.13,0.020,0.031,0.030,0.731,-0.193,0.194,-26.295,8.685,-12.378
1747651571.14,-0.034,0.003,0.009,0.713,-0.179,0.212,-25.869,8.601,-12.320
1747651571.15,-0.046,-0.014,0.006,0.707,-0.101,0.198,-25.452,8.549,-12.266
1747651571.16,-0.031,-0.003,0.028,0.715,-0.050,0.169,-25.034,8.525,-12.218
1747651571.17,-0.024,0.015,0.040,0.699,-0.037,0.157,-24.620,8.518,-12.201
1747651571.18,0.010,0.035,0.004,0.675,-0.101,0.185,-24.218,8.496,-12.160
1747651571.19,0.058,0.051,-0.048,0.646,-0.177,0.229,-23.826,8.442,-12.121
1747651571.20,0.105,0.073,-0.057,0.613,-0.230,0.254,-23.451,8.363,-12.029
1747651571.21,0.131,0.096,-0.064,0.603,-0.302,0.257,-23.086,8.251,-11.969
1747651571.22,0.089,0.099,-0.059,0.620,-0.303,0.242,-22.721,8.114,-11.870
1747651571.23,0.001,0.076,0.009,0.639,-0.275,0.217,-22.346,7.981,-11.813
1747651571.24,-0.076,0.031,0.043,0.666,-0.203,0.166,-21.961,7.866,-11.750
1747651571.25,-0.125,-0.013,0.048,0.683,-0.110,0.100,-21.566,7.785,-11.772
1747651571.26,-0.153,-0.070,0.033,0.655,-0.045,0.059,-21.182,7.740,-11.780
1747651571.27,-0.150,-0.118,-0.018,0.634,-0.014,0.032,-20.814,7.713,-11.839
1747651571.28,-0.129,-0.126,-0.071,0.588,0.041,-0.004,-20.466,7.708,-11.881
1747651571.29,-0.078,-0.083,-0.065,0.564,0.024,-0.043,-20.143,7.707,-11.972
1747651571.30,-0.012,-0.018,-0.045,0.562,-0.056,-0.045,-19.828,7.675,-12.046
1747651571.31,0.053,0.034,-0.028,0.581,-0.215,-0.029,-19.508,7.576,-12.154
1747651571.32,0.103,0.046,-0.053,0.581,-0.329,-0.008,-19.180,7.398,-12.210
1747651571.33,0.116,0.040,-0.021,0.572,-0.329,0.011,-18.854,7.193,-12.304
1747651571.34,0.085,0.036,0.019,0.594,-0.248,0.025,-18.522,7.015,-12.337
1747651571.35,0.005,0.020,0.012,0.605,-0.131,0.037,-18.179,6.899,-12.411
1747651571.36,-0.073,-0.005,-0.031,0.597,-0.013,0.042,-17.836,6.852,-12.429
1747651571.37,-0.101,-0.015,-0.033,0.558,0.113,0.027,-17.505,6.876,-12.504
1747651571.38,-0.070,0.002,-0.013,0.533,0.116,0.001,-17.197,6.937,-12.535
1747651571.39,-0.026,0.009,-0.067,0.512,0.054,-0.015,-16.901,6.972,-12.633
1747651571.40,0.015,0.007,-0.090,0.488,-0.003,-0.027,-16.618,6.972,-12.682
1747651571.41,0.056,0.012,-0.059,0.462,-0.096,-0.037,-16.354,6.929,-12.786
1747651571.42,0.073,0.005,-0.032,0.469,-0.136,-0.043,-16.093,6.845,-12.843
1747651571.43,0.061,0.022,0.024,0.469,-0.124,-0.050,-15.829,6.754,-12.954
1747651571.44,0.006,0.077,0.061,0.479,-0.122,-0.043,-15.565,6.667,-13.014
1747651571.45,-0.083,0.124,0.056,0.485,-0.037,-0.069,-15.293,6.602,-13.133
1747651571.46,-0.154,0.136,0.014,0.484,0.055,-0.122,-15.024,6.585,-13.222
1747651571.47,-0.162,0.085,-0.063,0.461,0.104,-0.146,-14.762,6.602,-13.396
1747651571.48,-0.117,0.025,-0.090,0.442,0.078,-0.181,-14.517,6.626,-13.522
1747651571.49,-0.041,-0.003,-0.091,0.413,0.001,-0.188,-14.287,6.614,-13.720
1747651571.50,0.054,-0.027,-0.074,0.384,-0.061,-0.177,-14.074,6.564,-13.854
1747651571.51,0.114,-0.017,-0.040,0.373,-0.133,-0.162,-13.870,6.479,-14.041
1747651571.52,0.107,-0.014,-0.029,0.353,-0.223,-0.143,-13.674,6.350,-14.154
1747651571.53,0.061,0.005,-0.037,0.359,-0.244,-0.126,-13.481,6.189,-14.321
1747651571.54,0.026,0.028,0.019,0.388,-0.173,-0.125,-13.277,6.045,-14.417
1747651571.55,0.009,0.048,0.074,0.411,-0.090,-0.124,-13.057,5.948,-14.584
1747651571.56,-0.006,0.039,0.031,0.402,-0.032,-0.106,-12.832,5.893,-14.676
1747651571.57,-0.031,-0.001,-0.042,0.377,0.055,-0.085,-12.616,5.881,-14.825
1747651571.58,-0.034,-0.031,-0.055,0.331,0.141,-0.065,-12.419,5.924,-14.890
1747651571.59,-0.002,-0.040,-0.061,0.293,0.125,-0.050,-12.246,5.992,-15.010
1747651571.60,0.064,-0.044,-0.114,0.260,0.061,-0.048,-12.093,6.036,-15.055
1747651571.61,0.135,-0.041,-0.105,0.252,-0.018,-0.049,-11.951,6.041,-15.175
1747651571.62,0.182,-0.033,-0.055,0.260,-0.137,-0.043,-11.808,5.989,-15.218
1747651571.63,0.166,-0.014,-0.029,0.263,-0.223,-0.014,-11.661,5.875,-15.319
1747651571.64,0.101,0.006,-0.003,0.291,-0.174,0.031,-11.504,5.754,-15.330
1747651571.65,0.015,0.036,0.035,0.281,-0.036,0.058,-11.337,5.695,-15.379
1747651571.66,-0.052,0.074,0.035,0.278,0.101,0.074,-11.174,5.721,-15.357
1747651571.67,-0.083,0.095,0.005,0.250,0.187,0.061,-11.018,5.809,-15.385
1747651571.68,-0.089,0.097,-0.030,0.208,0.191,0.025,-10.886,5.921,-15.373
1747651571.69,-0.049,0.057,-0.056,0.180,0.117,-0.005,-10.775,6.010,-15.451
1747651571.70,0.022,-0.015,-0.064,0.149,0.020,-0.013,-10.682,6.046,-15.467
1747651571.71,0.094,-0.056,-0.066,0.118,-0.098,-0.015,-10.607,6.021,-15.553
1747651571.72,0.125,-0.046,-0.081,0.092,-0.213,0.006,-10.549,5.928,-15.561
1747651571.73,0.100,-0.019,-0.068,0.078,-0.252,0.025,-10.500,5.793,-15.633
1747651571.74,0.044,0.023,-0.030,0.092,-0.189,0.039,-10.452,5.668,-15.619
1747651571.75,-0.027,0.074,0.033,0.100,-0.078,0.040,-10.393,5.595,-15.669
1747651571.76,-0.096,0.107,0.074,0.107,0.023,0.029,-10.334,5.581,-15.655
1747651571.77,-0.130,0.096,0.055,0.120,0.097,0.018,-10.269,5.617,-15.724
1747651571.78,-0.110,0.045,0.009,0.120,0.119,-0.011,-10.199,5.681,-15.728
1747651571.79,-0.065,-0.017,-0.026,0.099,0.083,-0.051,-10.139,5.737,-15.830
1747651571.80,-0.001,-0.064,-0.060,0.093,0.004,-0.081,-10.088,5.756,-15.875
1747651571.81,0.046,-0.083,-0.074,0.109,-0.051,-0.107,-10.037,5.732,-16.011
1747651571.82,0.054,-0.058,-0.056,0.154,-0.101,-0.127,-9.969,5.675,-16.085
1747651571.83,0.017,-0.025,-0.026,0.143,-0.119,-0.143,-9.893,5.595,-16.252
1747651571.84,-0.030,-0.005,-0.004,0.151,-0.088,-0.133,-9.819,5.517,-16.341
1747651571.85,-0.039,0.004,0.018,0.141,-0.020,-0.120,-9.743,5.472,-16.496
1747651571.86,-0.047,0.033,0.050,0.141,0.037,-0.107,-9.669,5.464,-16.570
1747651571.87,-0.029,0.048,0.044,0.147,0.063,-0.096,-9.593,5.481,-16.702
1747651571.88,0.012,0.044,0.011,0.146,0.057,-0.089,-9.514,5.506,-16.764
1747651571.89,0.068,0.041,-0.028,0.136,0.013,-0.072,-9.438,5.520,-16.881
1747651571.90,0.111,0.029,-0.046,0.135,-0.073,-0.054,-9.364,5.497,-16.924
1747651571.91,0.105,0.018,-0.055,0.120,-0.113,-0.045,-9.293,5.438,-17.021
1747651571.92,0.075,-0.001,-0.046,0.087,-0.136,-0.047,-9.237,5.360,-17.054
1747651571.93,0.043,-0.013,-0.029,0.083,-0.123,-0.037,-9.192,5.279,-17.139
1747651571.94,0.001,0.004,-0.009,0.067,-0.080,-0.026,-9.152,5.216,-17.217
1747651571.95,-0.037,0.029,-0.007,0.046,-0.044,-0.030,-9.122,5.178,-17.236
1747651571.96,-0.042,0.037,-0.040,0.027,-0.032,-0.030,-9.105,5.155,-17.310
1747651571.97,-0.020,0.028,-0.064,-0.008,-0.041,-0.034,-9.100,5.134,-17.328
1747651571.98,0.004,0.018,-0.090,-0.050,-0.081,-0.034,-9.119,5.100,-17.407
1747651571.99,0.033,-0.011,-0.122,-0.093,-0.142,-0.021,-9.162,5.036,-17.420
1747651572.00,0.075,-0.059,-0.125,-0.120,-0.150,-0.000,-9.224,4.953,-17.484
1747651572.01,0.121,-0.064,-0.085,-0.180,-0.192,0.032,-9.305,4.862,-17.468
1747651572.02,0.135,-0.042,-0.092,-0.227,-0.224,0.083,-9.421,4.747,-17.478
1747651572.03,0.111,-0.030,-0.101,-0.260,-0.147,0.118,-9.554,4.649,-17.407
1747651572.04,0.068,-0.013,-0.051,-0.306,-0.060,0.127,-9.710,4.606,-17.366
1747651572.05,0.021,0.002,-0.067,-0.336,-0.035,0.140,-9.887,4.594,-17.274
1747651572.06,-0.006,0.009,-0.101,-0.383,-0.021,0.152,-10.085,4.595,-17.220
1747651572.07,-0.011,0.018,-0.094,-0.435,-0.004,0.142,-10.310,4.607,-17.115
1747651572.08,-0.017,0.019,-0.116,-0.474,-0.005,0.117,-10.562,4.622,-17.051
1747651572.09,-0.042,-0.001,-0.139,-0.519,-0.004,0.109,-10.838,4.636,-16.963
1747651572.10,-0.071,-0.018,-0.108,-0.572,-0.001,0.092,-11.143,4.652,-16.911
1747651572.11,-0.072,-0.023,-0.081,-0.612,-0.014,0.057,-11.477,4.661,-16.840
1747651572.12,-0.037,-0.019,-0.093,-0.628,-0.014,0.022,-11.828,4.661,-16.813
1747651572.13,-0.016,0.001,-0.078,-0.655,-0.008,-0.005,-12.192,4.663,-16.778
1747651572.14,-0.040,0.019,-0.063,-0.684,-0.025,-0.019,-12.575,4.658,-16.775
1747651572.15,-0.096,0.024,-0.066,-0.731,0.044,-0.037,-12.977,4.663,-16.757
1747651572.16,-0.125,0.030,-0.053,-0.791,0.158,-0.045,-13.412,4.724,-16.769
1747651572.17,-0.115,0.007,-0.088,-0.847,0.202,-0.036,-13.881,4.834,-16.752
1747651572.18,-0.087,-0.030,-0.122,-0.899,0.212,-0.037,-14.379,4.957,-16.743
1747651572.19,-0.032,-0.039,-0.101,-0.944,0.200,-0.064,-14.906,5.081,-16.726
1747651572.20,0.037,-0.034,-0.102,-0.956,0.139,-0.099,-15.451,5.179,-16.724
1747651572.21,0.064,-0.043,-0.091,-0.957,0.077,-0.095,-15.999,5.237,-16.732
1747651572.22,0.057,-0.070,-0.045,-1.006,0.057,-0.076,-16.559,5.276,-16.733
1747651572.23,0.058,-0.099,-0.065,-1.033,0.041,-0.049,-17.145,5.309,-16.714
1747651572.24,0.056,-0.124,-0.086,-1.050,0.050,-0.002,-17.736,5.346,-16.657
1747651572.25,0.040,-0.126,-0.045,-1.100,0.139,0.033,-18.347,5.419,-16.587
1747651572.26,0.026,-0.108,-0.034,-1.136,0.239,0.041,-18.981,5.557,-16.477
1747651572.27,-0.002,-0.080,-0.045,-1.150,0.289,0.023,-19.629,5.739,-16.388
1747651572.28,-0.048,-0.035,-0.025,-1.169,0.318,-0.002,-20.286,5.941,-16.280
1747651572.29,-0.064,0.006,-0.022,-1.198,0.295,0.004,-20.958,6.144,-16.204
1747651572.30,-0.019,0.034,-0.014,-1.218,0.253,0.029,-21.642,6.332,-16.070
1747651572.31,0.058,0.046,-0.014,-1.226,0.249,0.050,-22.333,6.515,-15.960
1747651572.32,0.126,0.044,-0.023,-1.246,0.255,0.048,-23.031,6.706,-15.783
1747651572.33,0.144,0.031,-0.048,-1.257,0.205,0.047,-23.738,6.888,-15.662
1747651572.34,0.110,-0.006,-0.082,-1.242,0.121,0.049,-24.443,7.033,-15.474
1747651572.35,0.055,-0.053,-0.084,-1.294,0.087,0.030,-25.156,7.142,-15.349
1747651572.36,0.004,-0.086,-0.041,-1.339,0.115,0.005,-25.902,7.247,-15.157
1747651572.37,-0.029,-0.109,-0.020,-1.382,0.145,-0.003,-26.671,7.371,-15.047
1747651572.38,-0.051,-0.103,0.008,-1.457,0.146,0.025,-27.475,7.512,-14.844
1747651572.39,-0.046,-0.072,0.035,-1.509,0.128,0.060,-28.313,7.663,-14.691
1747651572.40,-0.012,-0.035,0.004,-1.529,0.106,0.091,-29.166,7.818,-14.417
1747651572.41,0.031,0.002,-0.013,-1.533,0.086,0.097,-30.026,7.972,-14.216
1747651572.42,0.067,0.033,-0.013,-1.519,0.052,0.070,-30.884,8.111,-13.911
1747651572.43,0.095,0.046,-0.034,-1.483,0.014,0.023,-31.729,8.220,-13.737
1747651572.44,0.095,0.033,-0.043,-1.434,0.025,-0.038,-32.555,8.303,-13.473
1747651572.45,0.063,0.001,-0.047,-1.404,-0.004,-0.050,-33.358,8.370,-13.364
1747651572.46,0.036,-0.046,-0.052,-1.436,-0.053,-0.045,-34.163,8.415,-13.127
1747651572.47,0.013,-0.084,-0.041,-1.501,-0.096,-0.022,-34.994,8.442,-13.003
1747651572.48,0.008,-0.120,0.007,-1.579,-0.058,0.036,-35.864,8.489,-12.759
1747651572.49,0.048,-0.151,0.069,-1.595,0.048,0.074,-36.758,8.608,-12.553
1747651572.50,0.071,-0.151,0.085,-1.566,0.158,0.101,-37.642,8.807,-12.320
1747651572.51,0.083,-0.106,0.065,-1.535,0.217,0.127,-38.507,9.075,-12.062
1747651572.52,0.056,-0.050,0.025,-1.516,0.213,0.115,-39.355,9.369,-11.793
1747651572.53,-0.010,-0.000,-0.040,-1.519,0.137,0.076,-40.199,9.636,-11.536
1747651572.54,-0.089,0.020,-0.067,-1.525,0.053,0.017,-41.050,9.835,-11.218
1747651572.55,-0.137,0.030,-0.069,-1.555,0.096,-0.040,-41.918,10.000,-11.025
1747651572.56,-0.105,0.035,-0.022,-1.567,0.180,-0.096,-42.804,10.188,-10.866
1747651572.57,-0.060,0.029,0.039,-1.569,0.241,-0.126,-43.696,10.401,-10.733
1747651572.58,-0.032,0.027,0.074,-1.574,0.243,-0.102,-44.590,10.636,-10.596
1747651572.59,-0.001,0.007,0.058,-1.587,0.179,-0.067,-45.486,10.879,-10.425
1747651572.60,0.022,-0.007,0.014,-1.612,0.135,-0.045,-46.389,11.114,-10.216
1747651572.61,0.037,-0.006,0.022,-1.605,0.164,-0.074,-47.297,11.356,-10.001
1747651572.62,0.044,0.005,0.062,-1.569,0.196,-0.120,-48.198,11.598,-9.813
1747651572.63,0.021,0.020,0.055,-1.527,0.190,-0.171,-49.080,11.821,-9.665
1747651572.64,-0.013,0.038,0.031,-1.513,0.118,-0.229,-49.952,11.991,-9.560
1747651572.65,-0.044,0.047,-0.023,-1.517,0.032,-0.279,-50.828,12.080,-9.500
1747651572.66,-0.048,0.034,-0.080,-1.565,-0.021,-0.301,-51.722,12.110,-9.465
1747651572.67,-0.021,0.004,-0.045,-1.609,-0.037,-0.318,-52.645,12.114,-9.437
1747651572.68,0.009,-0.023,0.008,-1.626,-0.011,-0.330,-53.589,12.115,-9.418
1747651572.69,0.031,-0.045,0.041,-1.602,0.009,-0.314,-54.529,12.133,-9.396
1747651572.70,0.045,-0.062,0.050,-1.590,0.021,-0.289,-55.456,12.175,-9.356
1747651572.71,0.050,-0.063,0.020,-1.599,0.020,-0.239,-56.377,12.256,-9.274
1747651572.72,0.053,-0.053,-0.004,-1.618,0.017,-0.223,-57.301,12.372,-9.148
1747651572.73,0.050,-0.032,-0.011,-1.653,0.007,-0.236,-58.242,12.497,-9.009
1747651572.73,0.039,-0.011,-0.007,-1.644,-0.034,-0.267,-59.193,12.598,-8.885
1747651572.75,0.035,0.003,-0.021,-1.635,-0.085,-0.317,-60.142,12.636,-8.799
1747651572.75,0.041,0.009,-0.009,-1.631,-0.101,-0.367,-61.096,12.604,-8.774
1747651572.77,0.042,-0.001,0.003,-1.608,-0.138,-0.409,-62.048,12.508,-8.806
1747651572.77,0.039,-0.031,-0.032,-1.600,-0.182,-0.419,-62.992,12.348,-8.883
1747651572.79,0.050,-0.067,-0.041,-1.648,-0.183,-0.396,-63.946,12.181,-8.951
1747651572.79,0.066,-0.088,-0.028,-1.680,-0.137,-0.380,-64.923,12.051,-8.993
1747651572.80,0.060,-0.098,-0.024,-1.672,-0.119,-0.358,-65.905,11.965,-9.008
1747651572.81,0.023,-0.097,-0.008,-1.638,-0.107,-0.347,-66.870,11.894,-9.014
1747651572.82,-0.013,-0.084,-0.007,-1.608,-0.030,-0.355,-67.818,11.841,-9.027
1747651572.84,-0.034,-0.067,0.003,-1.577,0.080,-0.347,-68.750,11.831,-9.052
1747651572.84,-0.038,-0.050,-0.030,-1.540,0.239,-0.350,-69.662,11.892,-9.083
1747651572.86,-0.045,-0.034,-0.065,-1.515,0.343,-0.315,-70.553,12.043,-9.105
1747651572.86,-0.051,-0.025,-0.007,-1.560,0.349,-0.281,-71.445,12.299,-9.045
1747651572.87,-0.072,-0.022,0.059,-1.618,0.318,-0.283,-72.368,12.616,-8.913
1747651572.88,-0.081,-0.017,0.078,-1.579,0.312,-0.344,-73.300,12.888,-8.814
1747651572.89,-0.059,-0.010,0.046,-1.483,0.322,-0.382,-74.200,13.041,-8.842
1747651572.90,-0.018,-0.004,0.017,-1.400,0.350,-0.359,-75.049,13.155,-8.924
1747651572.91,0.010,-0.014,-0.005,-1.349,0.357,-0.312,-75.856,13.336,-8.947
1747651572.92,0.001,-0.046,-0.051,-1.323,0.363,-0.313,-76.637,13.566,-8.922
1747651572.93,-0.028,-0.084,-0.060,-1.311,0.443,-0.337,-77.412,13.781,-8.934
1747651572.94,-0.034,-0.105,-0.043,-1.336,0.523,-0.324,-78.189,14.040,-8.954
1747651572.95,-0.010,-0.096,-0.015,-1.415,0.476,-0.284,-78.993,14.450,-8.831
1747651572.96,0.005,-0.057,0.028,-1.410,0.404,-0.278,-79.818,14.978,-8.550
1747651572.97,0.010,-0.005,0.033,-1.273,0.313,-0.286,-80.602,15.453,-8.277
1747651572.98,0.018,0.042,-0.004,-1.178,0.247,-0.333,-81.319,15.715,-8.171
1747651572.99,0.005,0.062,0.010,-1.184,0.215,-0.368,-82.019,15.769,-8.249
1747651573.00,-0.029,0.068,0.052,-1.244,0.148,-0.359,-82.744,15.782,-8.342
1747651573.01,-0.086,0.066,0.052,-1.290,0.151,-0.359,-83.496,15.869,-8.332
1747651573.02,-0.148,0.031,0.042,-1.277,0.353,-0.396,-84.264,15.953,-8.388
1747651573.03,-0.153,-0.021,0.025,-1.248,0.628,-0.431,-85.019,15.901,-8.722
1747651573.04,-0.110,-0.064,0.010,-1.310,0.826,-0.425,-85.785,15.855,-9.188
1747651573.05,-0.040,-0.075,0.045,-1.432,0.872,-0.386,-86.602,16.229,-9.305
1747651573.06,0.054,-0.065,0.070,-1.497,0.783,-0.332,-87.465,17.639,-8.372
1747651573.07,0.139,-0.049,0.026,-1.418,0.573,-0.267,-88.313,21.223,-5.179
1747651573.08,0.186,-0.039,-0.048,-1.196,0.318,-0.217,-89.052,30.236,3.580
1747651573.09,0.195,-0.044,-0.098,-0.918,0.143,-0.183,-89.574,59.522,32.743
1747651573.10,0.170,-0.050,-0.111,-0.736,0.123,-0.201,-89.641,134.257,107.404
1747651573.11,0.129,-0.042,-0.062,-0.688,0.051,-0.221,-89.332,168.249,141.344
1747651573.12,0.078,-0.034,-0.056,-0.664,-0.063,-0.222,-88.958,179.441,152.541
1747651573.13,0.018,-0.037,-0.107,-0.573,-0.148,-0.225,-88.597,-175.094,158.067
1747651573.14,-0.042,-0.023,-0.166,-0.413,-0.208,-0.203,-88.300,-171.929,161.338
1747651573.15,-0.103,0.024,-0.230,-0.218,-0.219,-0.197,-88.105,-169.393,163.999
1747651573.16,-0.177,0.071,-0.201,-0.131,-0.220,-0.196,-87.990,-166.861,166.659
1747651573.17,-0.212,0.090,-0.090,-0.185,-0.135,-0.172,-87.878,-164.699,168.929
1747651573.18,-0.184,0.070,0.005,-0.261,0.069,-0.107,-87.734,-163.616,170.035
1747651573.19,-0.123,0.021,0.055,-0.298,0.360,-0.034,-87.568,-163.669,169.861
1747651573.20,-0.079,-0.029,0.074,-0.530,0.205,-0.251,-87.359,-163.797,169.508
1747651573.21,-0.069,0.052,0.025,-0.876,0.885,-0.831,-86.819,-159.674,173.383
1747651573.22,-0.177,0.131,0.146,-0.495,0.846,-0.324,-86.324,-156.179,176.356
1747651573.23,0.019,-0.199,0.039,-0.197,0.901,0.175,-86.138,-156.549,175.496
1747651573.24,0.131,-0.119,-0.076,-0.069,0.941,0.182,-86.117,-157.954,173.550
1747651573.25,0.047,0.016,0.042,-0.048,0.718,0.057,-86.112,-158.567,172.455
1747651573.26,-0.009,0.082,0.041,-0.044,0.474,-0.030,-86.089,-158.463,172.220
1747651573.27,-0.004,0.074,0.050,-0.009,0.278,-0.060,-86.064,-157.962,172.509
1747651573.28,0.043,0.029,0.057,0.004,0.106,-0.069,-86.050,-157.357,173.008
1747651573.29,0.081,-0.011,0.043,-0.039,0.013,-0.072,-86.026,-156.832,173.503
1747651573.30,0.101,-0.030,0.050,-0.081,-0.040,-0.054,-85.980,-156.550,173.792
1747651573.31,0.098,-0.041,0.067,-0.126,-0.113,-0.027,-85.916,-156.618,173.767
1747651573.32,0.078,-0.042,0.088,-0.146,-0.194,-0.006,-85.841,-157.027,173.446
1747651573.33,0.045,-0.030,0.102,-0.131,-0.240,-0.008,-85.766,-157.540,173.058
1747651573.34,0.001,-0.011,0.103,-0.126,-0.269,-0.026,-85.695,-157.928,172.815
1747651573.35,-0.042,0.003,0.101,-0.134,-0.237,-0.047,-85.618,-158.175,172.715
1747651573.36,-0.064,-0.001,0.105,-0.131,-0.136,-0.065,-85.535,-158.268,172.731
1747651573.37,-0.069,-0.009,0.087,-0.104,-0.038,-0.072,-85.458,-158.170,172.877
1747651573.38,-0.069,-0.006,0.058,-0.073,0.011,-0.063,-85.396,-157.959,173.094
1747651573.39,-0.069,0.004,0.025,-0.047,0.022,-0.036,-85.354,-157.788,173.256
1747651573.40,-0.065,0.004,0.005,-0.038,0.038,-0.021,-85.327,-157.697,173.331
1747651573.41,-0.059,-0.001,0.020,-0.056,0.068,-0.023,-85.296,-157.679,173.319
1747651573.42,-0.047,0.001,0.047,-0.063,0.103,-0.019,-85.258,-157.669,173.279
1747651573.43,-0.033,0.007,0.047,-0.047,0.101,-0.012,-85.224,-157.662,173.226
1747651573.44,-0.023,0.011,0.029,-0.026,0.074,-0.011,-85.199,-157.648,173.189
1747651573.45,-0.013,0.003,0.011,-0.000,0.039,-0.011,-85.188,-157.568,173.236
1747651573.46,0.006,-0.009,-0.001,0.027,-0.015,-0.009,-85.191,-157.441,173.356
1747651573.47,0.027,-0.012,-0.011,0.045,-0.053,0.005,-85.207,-157.322,173.496
1747651573.48,0.044,-0.005,-0.006,0.073,-0.086,0.041,-85.241,-157.301,173.556
1747651573.49,0.047,0.015,0.002,0.106,-0.128,0.078,-85.299,-157.473,173.445
1747651573.50,0.027,0.033,0.008,0.130,-0.159,0.089,-85.378,-157.776,173.224
1747651573.51,-0.005,0.028,0.010,0.124,-0.156,0.067,-85.460,-158.031,173.059
1747651573.52,-0.035,0.003,0.019,0.093,-0.126,0.037,-85.527,-158.159,173.013
1747651573.53,-0.037,-0.024,0.039,0.062,-0.083,0.035,-85.574,-158.240,172.991
1747651573.54,-0.018,-0.041,0.049,0.053,-0.066,0.040,-85.611,-158.403,172.870
1747651573.55,0.007,-0.036,0.042,0.066,-0.047,0.051,-85.652,-158.615,172.688
1747651573.56,0.025,-0.009,0.034,0.101,-0.059,0.072,-85.710,-158.895,172.438
1747651573.57,0.025,0.016,0.030,0.156,-0.102,0.087,-85.797,-159.222,172.155
1747651573.58,0.006,0.026,0.021,0.179,-0.155,0.094,-85.906,-159.541,171.911
1747651573.59,-0.017,0.020,0.023,0.171,-0.183,0.089,-86.017,-159.829,171.720
1747651573.60,-0.039,0.007,0.040,0.173,-0.174,0.072,-86.120,-160.022,171.629
1747651573.61,-0.057,-0.004,0.043,0.170,-0.180,0.043,-86.217,-160.038,171.714
1747651573.62,-0.066,-0.005,0.033,0.170,-0.190,0.034,-86.311,-159.944,171.915
1747651573.63,-0.059,-0.005,0.022,0.172,-0.170,0.037,-86.405,-159.837,172.126
1747651573.64,-0.037,-0.011,0.028,0.176,-0.129,0.054,-86.504,-159.817,172.233
1747651573.65,-0.010,-0.017,0.043,0.190,-0.079,0.070,-86.611,-159.896,172.214
1747651573.66,0.009,-0.008,0.062,0.204,-0.081,0.085,-86.729,-160.024,172.129
1747651573.67,0.014,0.008,0.071,0.223,-0.118,0.102,-86.858,-160.229,171.979
1747651573.68,0.011,0.013,0.078,0.270,-0.178,0.123,-87.006,-160.509,171.782
1747651573.69,0.003,0.001,0.069,0.295,-0.272,0.136,-87.177,-160.881,171.537
1747651573.70,-0.016,-0.010,0.043,0.307,-0.342,0.123,-87.356,-161.248,171.348
1747651573.71,-0.035,-0.013,0.025,0.326,-0.361,0.101,-87.540,-161.408,171.390
1747651573.72,-0.040,-0.008,0.014,0.364,-0.357,0.094,-87.745,-161.379,171.626
1747651573.73,-0.037,0.009,0.006,0.424,-0.319,0.090,-87.974,-160.925,172.275
1747651573.74,-0.024,0.028,-0.001,0.465,-0.263,0.090,-88.232,-159.942,173.424
1747651573.75,-0.013,0.032,0.010,0.465,-0.231,0.108,-88.502,-158.617,174.889
1747651573.76,-0.007,0.010,0.045,0.444,-0.223,0.128,-88.767,-157.315,176.321
1747651573.77,0.000,-0.022,0.062,0.428,-0.235,0.138,-89.026,-155.949,177.816
1747651573.78,-0.005,-0.029,0.054,0.433,-0.296,0.150,-89.281,-154.163,179.753
1747651573.79,-0.023,-0.023,0.032,0.473,-0.319,0.151,-89.550,-149.997,-175.904
1747651573.80,-0.033,-0.020,0.008,0.515,-0.263,0.143,-89.823,-127.472,-153.210
1747651573.81,-0.028,-0.015,-0.002,0.526,-0.190,0.141,-89.802,-17.545,-43.154
1747651573.82,-0.018,-0.012,0.007,0.542,-0.128,0.142,-89.506,2.257,-23.263
1747651573.83,-0.005,-0.013,0.022,0.587,-0.124,0.148,-89.178,7.069,-18.380
1747651573.84,0.013,-0.015,0.010,0.651,-0.148,0.165,-88.815,9.168,-16.201
1747651573.85,0.042,-0.019,-0.013,0.745,-0.134,0.191,-88.406,10.416,-14.873
1747651573.86,0.076,-0.029,-0.023,0.832,-0.098,0.215,-87.941,11.261,-13.961
1747651573.87,0.099,-0.024,-0.037,0.906,-0.054,0.237,-87.428,11.874,-13.303
1747651573.88,0.101,0.004,-0.052,1.001,-0.027,0.272,-86.865,12.403,-12.754
1747651573.89,0.071,0.034,-0.038,1.075,-0.125,0.316,-86.249,12.924,-12.194
1747651573.90,-0.012,0.071,-0.032,1.086,-0.291,0.334,-85.603,13.397,-11.600
1747651573.91,-0.139,0.093,-0.012,1.049,-0.324,0.262,-84.969,13.542,-11.272
1747651573.92,-0.245,0.062,0.016,1.025,-0.147,0.130,-84.369,13.108,-11.565
1747651573.93,-0.264,-0.012,0.055,1.019,0.184,0.058,-83.787,12.349,-12.336
1747651573.94,-0.184,-0.094,0.132,0.960,0.448,0.073,-83.226,11.796,-13.083
1747651573.95,-0.056,-0.133,0.163,0.917,0.467,0.155,-82.691,11.696,-13.456
1747651573.96,0.051,-0.118,0.075,0.969,0.377,0.235,-82.144,11.943,-13.449
1747651573.97,0.120,-0.064,-0.003,1.053,0.378,0.261,-81.548,12.291,-13.311
1747651573.98,0.159,0.018,0.041,1.096,0.351,0.249,-80.916,12.572,-13.242
1747651573.99,0.135,0.096,0.085,1.142,0.176,0.232,-80.263,12.688,-13.279
1747651574.00,0.047,0.111,0.027,1.188,0.050,0.226,-79.584,12.637,-13.391
1747651574.01,-0.016,0.070,0.011,1.166,0.063,0.225,-78.898,12.554,-13.504
1747651574.02,-0.026,0.027,0.085,1.077,0.108,0.188,-78.245,12.490,-13.621
1747651574.03,-0.041,0.006,0.106,1.010,0.102,0.145,-77.646,12.389,-13.787
1747651574.04,-0.056,-0.020,0.063,1.026,0.118,0.126,-77.063,12.234,-14.008
1747651574.05,-0.043,-0.048,0.062,1.058,0.197,0.130,-76.465,12.089,-14.247
1747651574.06,-0.012,-0.071,0.091,1.059,0.239,0.149,-75.857,12.021,-14.450
1747651574.07,0.005,-0.076,0.076,1.060,0.192,0.192,-75.244,12.028,-14.572
1747651574.08,-0.003,-0.050,0.012,1.084,0.139,0.221,-74.621,12.082,-14.613
1747651574.09,-0.033,0.000,-0.033,1.100,0.086,0.197,-73.984,12.100,-14.662
1747651574.10,-0.061,0.059,-0.022,1.080,0.034,0.169,-73.353,12.032,-14.768
1747651574.11,-0.059,0.095,-0.011,1.041,0.047,0.187,-72.739,11.960,-14.863
1747651574.12,-0.034,0.093,0.028,0.992,0.129,0.212,-72.148,11.987,-14.888
1747651574.13,-0.019,0.057,0.071,0.961,0.152,0.219,-71.576,12.084,-14.874
1747651574.14,-0.020,0.006,0.066,0.916,0.120,0.248,-71.024,12.209,-14.823
1747651574.15,-0.007,-0.051,0.046,0.898,0.099,0.287,-70.487,12.383,-14.705
1747651574.16,0.041,-0.098,0.036,0.914,0.061,0.328,-69.946,12.596,-14.528
1747651574.17,0.106,-0.101,-0.022,0.942,0.032,0.347,-69.386,12.815,-14.321
1747651574.18,0.156,-0.075,-0.071,0.968,0.013,0.341,-68.811,13.012,-14.123
1747651574.19,0.180,-0.047,-0.054,1.027,-0.017,0.332,-68.213,13.160,-13.965
1747651574.20,0.169,-0.022,-0.051,1.029,-0.099,0.315,-67.597,13.241,-13.844
1747651574.21,0.112,-0.003,-0.033,1.027,-0.116,0.289,-66.988,13.253,-13.758
1747651574.22,0.037,-0.007,-0.037,1.047,-0.013,0.301,-66.372,13.274,-13.692
1747651574.23,-0.006,-0.028,-0.029,0.988,-0.001,0.339,-65.762,13.372,-13.588
1747651574.24,-0.060,-0.050,-0.038,0.890,-0.111,0.374,-65.194,13.501,-13.410
1747651574.25,-0.115,-0.066,-0.088,0.842,-0.117,0.386,-64.665,13.636,-13.183
1747651574.26,-0.086,-0.069,-0.055,0.877,0.018,0.364,-64.140,13.800,-12.967
1747651574.27,-0.012,-0.051,0.021,0.939,0.115,0.328,-63.588,13.980,-12.814
1747651574.28,0.031,-0.013,0.010,0.997,0.107,0.252,-63.013,14.100,-12.753
1747651574.29,0.021,0.022,-0.047,1.056,0.074,0.180,-62.416,14.104,-12.807
1747651574.30,-0.004,0.014,-0.058,1.134,0.048,0.146,-61.786,14.020,-12.940
1747651574.31,-0.011,-0.017,-0.051,1.118,0.090,0.165,-61.135,13.926,-13.089
1747651574.32,-0.009,-0.045,-0.040,0.985,0.196,0.229,-60.525,13.942,-13.162
1747651574.33,-0.023,-0.068,0.020,0.878,0.244,0.296,-59.976,14.104,-13.125
1747651574.34,-0.043,-0.087,0.041,0.832,0.178,0.333,-59.458,14.321,-13.017
1747651574.35,-0.022,-0.082,0.017,0.814,0.102,0.369,-58.954,14.527,-12.868
1747651574.36,0.071,-0.062,0.040,0.822,0.065,0.376,-58.450,14.724,-12.695
1747651574.37,0.167,-0.019,0.088,0.901,-0.044,0.337,-57.926,14.852,-12.555
1747651574.38,0.199,0.024,0.029,1.037,-0.201,0.245,-57.348,14.813,-12.518
1747651574.39,0.165,0.049,-0.055,1.105,-0.251,0.138,-56.727,14.598,-12.613
1747651574.40,0.085,0.038,0.002,1.127,-0.220,0.072,-56.095,14.308,-12.798
1747651574.41,-0.024,0.005,0.055,1.090,-0.218,0.018,-55.471,13.994,-13.031
1747651574.42,-0.133,-0.016,-0.041,0.961,-0.264,-0.005,-54.901,13.657,-13.273
1747651574.43,-0.189,-0.036,-0.113,0.819,-0.198,0.028,-54.407,13.358,-13.469
1747651574.44,-0.149,-0.032,-0.047,0.717,-0.045,0.123,-53.972,13.205,-13.574
1747651574.45,-0.045,-0.001,0.050,0.695,0.045,0.223,-53.560,13.216,-13.563
1747651574.46,0.043,0.037,0.098,0.775,0.080,0.276,-53.121,13.307,-13.491
1747651574.47,0.113,0.085,0.084,0.889,0.051,0.282,-52.622,13.407,-13.416
1747651574.48,0.159,0.106,0.015,0.961,-0.019,0.265,-52.070,13.454,-13.368
1747651574.49,0.150,0.108,-0.033,0.980,-0.053,0.267,-51.493,13.452,-13.340
1747651574.50,0.118,0.080,0.009,0.972,-0.014,0.275,-50.915,13.461,-13.305
1747651574.51,0.075,0.046,0.029,0.955,-0.036,0.255,-50.343,13.471,-13.276
1747651574.52,0.016,0.032,-0.028,0.892,-0.106,0.235,-49.797,13.447,-13.254
1747651574.53,-0.024,0.019,-0.017,0.867,-0.137,0.220,-49.281,13.386,-13.240
1747651574.54,-0.035,0.018,0.022,0.882,-0.138,0.231,-48.766,13.319,-13.224
1747651574.55,-0.036,0.000,0.027,0.911,-0.144,0.224,-48.238,13.253,-13.208
1747651574.56,-0.051,-0.010,0.011,0.937,-0.185,0.203,-47.697,13.159,-13.211
1747651574.57,-0.094,-0.002,-0.021,0.977,-0.188,0.162,-47.141,13.023,-13.243
1747651574.58,-0.131,-0.001,-0.020,1.039,-0.052,0.090,-46.565,12.891,-13.326
1747651574.59,-0.147,-0.008,0.018,1.042,0.106,0.001,-45.977,12.792,-13.483
1747651574.60,-0.156,-0.012,0.052,1.009,0.204,-0.052,-45.409,12.735,-13.692
1747651574.61,-0.148,-0.032,0.028,0.976,0.180,-0.045,-44.862,12.694,-13.910
1747651574.62,-0.117,-0.068,-0.035,0.874,0.132,0.032,-44.345,12.661,-14.082
1747651574.63,-0.057,-0.081,-0.044,0.793,0.134,0.076,-43.877,12.665,-14.183
1747651574.64,0.040,-0.082,-0.007,0.807,0.115,0.036,-43.419,12.702,-14.284
1747651574.65,0.101,-0.059,0.019,0.798,0.064,0.141,-42.967,12.705,-14.353
1747651574.66,0.157,0.015,0.079,0.871,-0.001,0.158,-42.482,12.707,-14.379
1747651574.67,0.123,0.084,0.042,0.994,-0.137,0.104,-41.947,12.631,-14.435
1747651574.68,0.044,0.120,0.030,1.113,-0.255,0.026,-41.350,12.432,-14.563
1747651574.69,-0.012,0.127,0.004,1.148,-0.284,-0.030,-40.717,12.156,-14.691
1747651574.70,-0.041,0.089,-0.008,1.157,-0.329,-0.093,-40.082,11.837,-14.914
1747651574.71,-0.074,0.034,-0.027,1.147,-0.330,-0.118,-39.446,11.483,-15.128
1747651574.72,-0.094,-0.051,-0.032,1.043,-0.221,-0.098,-38.845,11.171,-15.367
1747651574.73,-0.066,-0.098,-0.001,0.980,-0.150,-0.071,-38.288,10.946,-15.463
1747651574.74,-0.025,-0.117,-0.003,0.924,-0.114,-0.021,-37.761,10.771,-15.627
1747651574.75,-0.015,-0.081,0.063,0.926,-0.091,0.070,-37.242,10.647,-15.649
1747651574.76,-0.003,-0.026,0.088,0.952,-0.071,0.077,-36.706,10.560,-15.715
1747651574.77,0.012,0.059,0.059,1.009,-0.078,0.049,-36.150,10.470,-15.727
1747651574.78,0.019,0.120,0.032,1.058,-0.102,0.003,-35.565,10.353,-15.840
1747651574.79,0.007,0.142,-0.013,1.084,-0.205,-0.048,-34.964,10.182,-15.938
1747651574.80,-0.027,0.115,-0.034,1.055,-0.369,-0.073,-34.367,9.920,-16.111
1747651574.81,-0.054,0.061,-0.034,1.016,-0.491,-0.059,-33.792,9.579,-16.220
1747651574.82,-0.023,-0.029,0.000,0.984,-0.518,0.009,-33.230,9.211,-16.351
1747651574.83,0.051,-0.100,0.017,0.934,-0.391,0.119,-32.684,8.915,-16.361
1747651574.84,0.146,-0.108,0.025,0.879,-0.240,0.201,-32.160,8.745,-16.347
1747651574.85,0.204,-0.064,-0.003,0.944,-0.020,0.129,-31.642,8.673,-16.256
1747651574.86,0.163,-0.004,-0.019,0.872,-0.256,0.234,-31.121,8.585,-16.236
1747651574.87,0.135,0.049,-0.002,0.936,-0.370,0.257,-30.587,8.449,-16.121
1747651574.88,0.061,0.083,-0.058,0.960,-0.435,0.171,-30.035,8.239,-16.070
1747651574.89,-0.021,0.055,-0.018,0.981,-0.354,0.133,-29.473,8.014,-16.034
1747651574.90,-0.020,-0.004,0.011,0.942,-0.226,0.117,-28.918,7.844,-16.042
1747651574.91,-0.035,-0.077,0.029,0.895,-0.143,0.106,-28.390,7.735,-16.027
1747651574.92,-0.050,-0.089,0.015,0.861,-0.093,0.102,-27.886,7.666,-16.037
1747651574.93,-0.061,-0.065,-0.025,0.812,-0.077,0.117,-27.402,7.618,-16.035
1747651574.94,-0.059,-0.022,-0.046,0.775,-0.101,0.125,-26.945,7.575,-16.025
1747651574.95,-0.026,0.036,-0.033,0.781,-0.081,0.115,-26.497,7.530,-16.003
1747651574.96,0.046,0.098,-0.016,0.798,-0.097,0.073,-26.043,7.480,-16.010
1747651574.97,0.066,0.147,0.004,0.832,-0.175,0.040,-25.578,7.390,-16.043
1747651574.98,0.038,0.156,-0.013,0.825,-0.240,0.020,-25.103,7.249,-16.092
1747651574.99,-0.009,0.133,-0.000,0.812,-0.257,0.032,-24.638,7.087,-16.148
1747651575.00,-0.061,0.082,0.018,0.790,-0.273,0.048,-24.180,6.919,-16.186
1747651575.01,-0.093,0.017,0.004,0.756,-0.189,0.072,-23.739,6.773,-16.215
1747651575.02,-0.049,0.000,0.006,0.724,-0.037,0.093,-23.314,6.709,-16.219
1747651575.03,0.036,-0.003,-0.007,0.705,-0.048,0.106,-22.903,6.695,-16.227
1747651575.04,0.118,-0.011,-0.096,0.678,-0.114,0.092,-22.501,6.654,-16.216
1747651575.05,0.180,-0.020,-0.099,0.629,-0.178,0.083,-22.126,6.572,-16.238
1747651575.06,0.205,-0.044,-0.063,0.639,-0.214,0.093,-21.763,6.461,-16.230
1747651575.07,0.184,-0.082,-0.034,0.664,-0.204,0.145,-21.385,6.350,-16.214
1747651575.08,0.141,-0.094,0.002,0.673,-0.146,0.199,-20.995,6.271,-16.154
1747651575.09,0.113,-0.056,0.054,0.661,-0.063,0.249,-20.602,6.245,-16.077
1747651575.10,0.108,0.014,0.088,0.652,-0.022,0.311,-20.213,6.265,-15.951
1747651575.11,0.071,0.104,0.092,0.655,0.007,0.357,-19.822,6.316,-15.829
1747651575.12,-0.014,0.182,0.060,0.672,0.021,0.351,-19.424,6.381,-15.659
1747651575.13,-0.085,0.174,-0.029,0.657,0.055,0.304,-19.025,6.452,-15.521
1747651575.14,-0.095,0.098,-0.091,0.654,0.105,0.166,-18.638,6.528,-15.423
1747651575.15,-0.100,-0.005,-0.104,0.637,0.151,0.033,-18.265,6.605,-15.440
1747651575.16,-0.117,-0.076,-0.082,0.626,0.139,-0.031,-17.907,6.676,-15.486
1747651575.17,-0.167,-0.101,-0.053,0.573,0.098,-0.051,-17.569,6.725,-15.589
1747651575.18,-0.207,-0.099,-0.016,0.518,0.063,-0.055,-17.265,6.750,-15.658
1747651575.19,-0.149,-0.031,0.017,0.516,0.051,-0.061,-16.977,6.760,-15.754
1747651575.20,-0.046,0.064,0.039,0.557,0.023,-0.069,-16.676,6.761,-15.829
1747651575.21,0.036,0.126,0.036,0.592,-0.019,-0.077,-16.355,6.736,-15.945
1747651575.22,0.063,0.135,0.004,0.584,0.007,-0.075,-16.027,6.707,-16.031
1747651575.23,0.046,0.103,-0.039,0.613,0.081,-0.082,-15.695,6.707,-16.164
1747651575.24,-0.024,0.055,-0.061,0.607,0.160,-0.090,-15.352,6.752,-16.257
1747651575.25,-0.093,0.008,-0.076,0.573,0.203,-0.110,-15.025,6.833,-16.403
1747651575.26,-0.093,-0.027,-0.093,0.545,0.188,-0.136,-14.715,6.916,-16.555
1747651575.27,-0.021,-0.030,-0.066,0.515,0.112,-0.127,-14.425,6.976,-16.671
1747651575.28,0.075,-0.006,-0.026,0.500,-0.060,-0.130,-14.146,6.965,-16.826
1747651575.29,0.132,0.030,-0.025,0.494,-0.238,-0.132,-13.875,6.852,-16.938
1747651575.30,0.159,0.038,-0.025,0.506,-0.329,-0.110,-13.599,6.659,-17.097
1747651575.31,0.143,0.021,0.004,0.503,-0.285,-0.074,-13.319,6.458,-17.184
1747651575.32,0.082,0.008,0.009,0.504,-0.162,-0.046,-13.037,6.315,-17.307
1747651575.33,-0.013,-0.007,-0.007,0.466,0.003,-0.027,-12.760,6.257,-17.359
1747651575.34,-0.079,-0.047,-0.020,0.422,0.185,-0.037,-12.512,6.303,-17.473
1747651575.35,-0.062,-0.078,-0.043,0.411,0.236,-0.026,-12.277,6.418,-17.520
1747651575.36,0.010,-0.121,-0.091,0.361,0.179,0.020,-12.058,6.534,-17.617
1747651575.37,0.102,-0.109,-0.057,0.328,0.056,0.013,-11.862,6.601,-17.628
1747651575.38,0.169,-0.015,-0.011,0.338,-0.087,-0.005,-11.674,6.588,-17.714
1747651575.39,0.172,0.030,-0.013,0.342,-0.174,0.004,-11.480,6.505,-17.739
1747651575.40,0.102,0.036,-0.023,0.342,-0.145,0.012,-11.286,6.406,-17.822
1747651575.41,0.006,0.031,-0.005,0.341,-0.050,0.022,-11.090,6.347,-17.834
1747651575.42,-0.055,0.028,-0.007,0.329,0.041,0.035,-10.898,6.343,-17.908
1747651575.43,-0.065,0.016,-0.038,0.293,0.116,0.048,-10.716,6.389,-17.904
1747651575.44,-0.021,0.001,-0.034,0.246,0.114,0.058,-10.561,6.462,-17.955
1747651575.45,0.058,-0.002,-0.057,0.223,0.001,0.069,-10.424,6.502,-17.934
1747651575.46,0.115,-0.004,-0.107,0.197,-0.129,0.091,-10.301,6.470,-17.967
1747651575.47,0.126,0.010,-0.076,0.190,-0.199,0.087,-10.186,6.381,-17.926
1747651575.48,0.076,0.067,-0.014,0.196,-0.179,0.060,-10.072,6.275,-17.963
1747651575.49,-0.026,0.103,0.018,0.197,-0.102,0.038,-9.956,6.196,-17.949
1747651575.50,-0.131,0.066,0.013,0.205,-0.025,0.037,-9.840,6.161,-18.015
1747651575.51,-0.177,0.013,0.007,0.228,0.065,0.005,-9.716,6.173,-18.016
1747651575.52,-0.149,0.014,0.023,0.253,0.110,-0.040,-9.579,6.222,-18.124
1747651575.53,-0.083,0.024,0.013,0.252,0.077,-0.085,-9.438,6.269,-18.178
1747651575.54,-0.035,0.010,-0.029,0.230,0.002,-0.107,-9.307,6.280,-18.318
1747651575.55,0.019,-0.022,-0.067,0.208,-0.089,-0.093,-9.189,6.243,-18.391
1747651575.56,0.083,-0.036,-0.082,0.187,-0.165,-0.049,-9.081,6.160,-18.507
1747651575.57,0.115,-0.017,-0.054,0.174,-0.197,-0.028,-8.981,6.051,-18.540
1747651575.58,0.070,0.024,-0.011,0.195,-0.163,-0.013,-8.877,5.943,-18.635
1747651575.59,-0.004,0.039,0.008,0.197,-0.086,0.010,-8.765,5.867,-18.648
1747651575.60,-0.058,0.007,0.011,0.205,0.013,0.024,-8.651,5.844,-18.706
1747651575.61,-0.055,-0.036,0.006,0.223,0.097,0.016,-8.528,5.876,-18.707
1747651575.62,-0.013,-0.057,0.005,0.213,0.112,-0.007,-8.405,5.936,-18.787
1747651575.63,0.029,-0.066,-0.027,0.215,0.103,-0.014,-8.284,5.994,-18.807
1747651575.64,0.064,-0.068,-0.040,0.178,0.087,0.000,-8.172,6.048,-18.897
1747651575.65,0.090,-0.048,-0.032,0.157,0.034,0.050,-8.074,6.087,-18.895
1747651575.66,0.111,-0.018,-0.054,0.113,-0.020,0.110,-7.993,6.098,-18.922
1747651575.67,0.107,0.025,-0.078,0.080,-0.089,0.149,-7.932,6.077,-18.854
1747651575.67,0.087,0.054,-0.090,0.044,-0.147,0.173,-7.887,6.020,-18.845
1747651575.69,0.066,0.072,-0.063,0.032,-0.146,0.165,-7.855,5.945,-18.749
1747651575.70,0.040,0.092,-0.017,0.037,-0.099,0.141,-7.826,5.886,-18.719
1747651575.70,-0.006,0.069,-0.001,0.031,-0.066,0.140,-7.794,5.851,-18.640
1747651575.72,-0.064,-0.002,-0.029,-0.013,-0.040,0.121,-7.779,5.832,-18.628
1747651575.72,-0.086,-0.066,-0.074,-0.049,0.004,0.090,-7.790,5.832,-18.566
1747651575.74,-0.058,-0.087,-0.108,-0.093,0.028,0.059,-7.824,5.850,-18.582
1747651575.75,-0.028,-0.059,-0.131,-0.141,0.015,0.031,-7.888,5.869,-18.548
1747651575.75,-0.035,-0.008,-0.132,-0.179,-0.009,0.003,-7.979,5.875,-18.592
1747651575.77,-0.064,0.020,-0.096,-0.217,-0.021,-0.008,-8.091,5.868,-18.581
1747651575.77,-0.055,0.037,-0.060,-0.263,-0.049,-0.016,-8.230,5.850,-18.641
1747651575.78,-0.001,0.057,-0.075,-0.283,-0.079,-0.009,-8.388,5.813,-18.633
1747651575.79,0.060,0.057,-0.078,-0.300,-0.063,0.000,-8.553,5.773,-18.677
1747651575.80,0.079,0.043,-0.073,-0.354,-0.045,0.006,-8.736,5.745,-18.656
1747651575.81,0.047,0.025,-0.096,-0.399,-0.027,0.007,-8.949,5.727,-18.685
1747651575.82,0.012,-0.001,-0.097,-0.447,0.014,-0.007,-9.188,5.726,-18.661
1747651575.83,0.015,-0.034,-0.082,-0.491,0.019,-0.021,-9.455,5.739,-18.691
1747651575.84,0.045,-0.078,-0.103,-0.528,-0.005,-0.042,-9.747,5.743,-18.680
1747651575.85,0.057,-0.094,-0.100,-0.582,-0.035,-0.072,-10.064,5.733,-18.730
1747651575.86,0.062,-0.080,-0.105,-0.643,-0.121,-0.081,-10.416,5.689,-18.740
1747651575.87,0.054,-0.070,-0.157,-0.703,-0.199,-0.065,-10.804,5.595,-18.785
1747651575.88,0.030,-0.047,-0.142,-0.737,-0.158,-0.053,-11.217,5.490,-18.778
1747651575.89,0.009,-0.014,-0.095,-0.745,-0.048,-0.064,-11.641,5.433,-18.802
1747651575.90,-0.024,0.011,-0.067,-0.787,0.014,-0.071,-12.080,5.426,-18.800
1747651575.91,-0.074,0.017,-0.072,-0.839,0.036,-0.064,-12.545,5.442,-18.815
1747651575.92,-0.092,0.015,-0.087,-0.898,0.037,-0.064,-13.042,5.465,-18.805
1747651575.93,-0.065,0.028,-0.051,-0.949,0.040,-0.092,-13.571,5.489,-18.807
1747651575.94,-0.019,0.040,-0.065,-0.988,0.003,-0.124,-14.128,5.500,-18.816
1747651575.95,0.009,0.028,-0.116,-1.033,-0.043,-0.120,-14.708,5.484,-18.833
1747651575.96,0.030,-0.008,-0.119,-1.080,-0.040,-0.114,-15.316,5.456,-18.842
1747651575.97,0.059,-0.042,-0.088,-1.108,0.010,-0.112,-15.945,5.443,-18.831
1747651575.98,0.075,-0.065,-0.061,-1.110,0.073,-0.091,-16.581,5.468,-18.829
1747651575.99,0.061,-0.075,-0.035,-1.130,0.105,-0.079,-17.222,5.524,-18.792
1747651576.00,-0.003,-0.061,-0.021,-1.171,0.103,-0.095,-17.880,5.588,-18.778
1747651576.01,-0.071,-0.044,-0.052,-1.214,0.144,-0.071,-18.563,5.663,-18.724
1747651576.02,-0.060,-0.031,-0.065,-1.254,0.201,-0.049,-19.267,5.776,-18.685
1747651576.03,-0.021,-0.017,-0.070,-1.282,0.168,-0.069,-19.992,5.899,-18.594
1747651576.04,-0.016,-0.007,-0.087,-1.291,0.092,-0.098,-20.728,5.985,-18.563
1747651576.05,-0.017,-0.011,-0.066,-1.302,0.055,-0.107,-21.470,6.032,-18.491
1747651576.06,0.003,-0.025,-0.019,-1.314,0.058,-0.109,-22.219,6.072,-18.472
1747651576.07,0.011,-0.043,-0.013,-1.330,0.020,-0.111,-22.977,6.103,-18.379
1747651576.08,-0.008,-0.058,-0.022,-1.332,-0.037,-0.109,-23.739,6.105,-18.359
1747651576.09,-0.017,-0.065,-0.001,-1.345,-0.069,-0.108,-24.506,6.083,-18.243
1747651576.10,-0.003,-0.073,-0.002,-1.372,-0.056,-0.104,-25.283,6.055,-18.219
1747651576.11,0.028,-0.089,-0.022,-1.405,0.017,-0.083,-26.077,6.058,-18.098
1747651576.12,0.049,-0.112,-0.033,-1.410,0.058,-0.045,-26.881,6.105,-18.045
1747651576.13,0.036,-0.130,-0.055,-1.437,0.053,0.005,-27.691,6.175,-17.859
1747651576.14,0.013,-0.143,-0.060,-1.474,0.044,0.047,-28.517,6.258,-17.739
1747651576.15,0.008,-0.150,-0.023,-1.504,0.067,0.085,-29.358,6.363,-17.484
1747651576.16,0.031,-0.146,0.022,-1.520,0.160,0.100,-30.210,6.511,-17.312
1747651576.17,0.062,-0.128,0.063,-1.530,0.249,0.098,-31.069,6.723,-17.022
1747651576.18,0.079,-0.096,0.083,-1.525,0.244,0.085,-31.929,6.963,-16.840
1747651576.19,0.074,-0.053,0.014,-1.545,0.111,0.094,-32.792,7.167,-16.535
1747651576.20,0.075,-0.016,-0.036,-1.560,-0.014,0.137,-33.663,7.308,-16.322
1747651576.21,0.101,0.018,-0.019,-1.597,-0.059,0.155,-34.547,7.418,-15.953
1747651576.22,0.109,0.046,0.011,-1.619,-0.033,0.175,-35.445,7.540,-15.691
1747651576.23,0.107,0.045,0.019,-1.617,-0.047,0.157,-36.350,7.676,-15.270
1747651576.24,0.036,0.033,0.015,-1.611,-0.077,0.131,-37.252,7.792,-15.015
1747651576.25,-0.013,0.051,-0.009,-1.630,-0.045,0.140,-38.158,7.913,-14.668
1747651576.26,-0.010,0.069,0.002,-1.623,0.031,0.132,-39.068,8.073,-14.403
1747651576.27,0.003,0.075,0.014,-1.603,0.089,0.096,-39.970,8.270,-14.150
1747651576.28,0.006,0.060,0.040,-1.583,0.089,0.064,-40.864,8.474,-13.917
1747651576.29,0.009,0.030,0.028,-1.563,0.040,0.042,-41.747,8.655,-13.700
1747651576.30,0.023,-0.004,-0.006,-1.566,0.014,0.024,-42.628,8.809,-13.491
1747651576.31,0.060,-0.031,0.011,-1.564,-0.002,0.001,-43.510,8.946,-13.294
1747651576.32,0.076,-0.052,-0.004,-1.549,0.003,-0.006,-44.389,9.078,-13.104
1747651576.33,0.059,-0.072,-0.021,-1.528,0.010,-0.002,-45.256,9.217,-12.912
1747651576.34,0.011,-0.083,-0.023,-1.541,0.019,0.012,-46.119,9.373,-12.704
1747651576.35,-0.049,-0.087,-0.003,-1.567,0.047,0.002,-46.995,9.551,-12.484
1747651576.36,-0.094,-0.085,0.004,-1.590,0.089,-0.024,-47.884,9.748,-12.269
1747651576.37,-0.115,-0.082,0.025,-1.611,0.152,-0.057,-48.789,9.965,-12.068
1747651576.38,-0.099,-0.078,0.031,-1.624,0.270,-0.082,-49.706,10.226,-11.879
1747651576.39,-0.047,-0.076,0.010,-1.613,0.313,-0.111,-50.626,10.533,-11.703
1747651576.40,0.009,-0.065,-0.009,-1.613,0.270,-0.119,-51.544,10.831,-11.536
1747651576.41,0.049,-0.052,-0.022,-1.594,0.215,-0.113,-52.457,11.107,-11.360
1747651576.42,0.091,-0.027,-0.003,-1.567,0.153,-0.127,-53.356,11.361,-11.175
1747651576.43,0.105,0.007,0.020,-1.531,0.081,-0.183,-54.238,11.549,-11.025
1747651576.44,0.077,0.042,0.036,-1.542,-0.029,-0.229,-55.121,11.651,-10.920
1747651576.45,0.041,0.057,0.025,-1.530,-0.138,-0.246,-56.010,11.667,-10.843
1747651576.46,0.009,0.051,-0.032,-1.492,-0.218,-0.241,-56.883,11.621,-10.774
1747651576.47,-0.022,0.024,-0.057,-1.495,-0.220,-0.250,-57.744,11.547,-10.710
1747651576.48,-0.033,-0.020,-0.013,-1.526,-0.139,-0.232,-58.616,11.500,-10.641
1747651576.49,-0.024,-0.065,0.015,-1.562,-0.028,-0.222,-59.506,11.539,-10.542
1747651576.50,-0.018,-0.086,0.017,-1.603,0.002,-0.202,-60.415,11.643,-10.418
1747651576.51,-0.023,-0.077,0.001,-1.635,0.015,-0.192,-61.344,11.788,-10.256
1747651576.52,-0.020,-0.042,0.004,-1.618,0.075,-0.229,-62.279,11.954,-10.096
1747651576.53,-0.013,0.013,0.027,-1.594,0.138,-0.293,-63.207,12.103,-9.997
1747651576.54,-0.009,0.063,0.060,-1.565,0.177,-0.319,-64.127,12.231,-9.958
1747651576.55,-0.000,0.084,0.090,-1.525,0.154,-0.322,-65.027,12.347,-9.937
1747651576.56,0.003,0.077,0.081,-1.533,0.079,-0.320,-65.918,12.433,-9.917
1747651576.57,0.003,0.048,0.066,-1.572,-0.002,-0.320,-66.823,12.483,-9.885
1747651576.58,0.020,0.002,0.044,-1.590,0.002,-0.334,-67.747,12.514,-9.847
1747651576.59,0.050,-0.049,0.022,-1.578,0.057,-0.354,-68.672,12.541,-9.835
1747651576.60,0.069,-0.095,0.005,-1.594,0.075,-0.341,-69.599,12.583,-9.833
1747651576.61,0.076,-0.132,-0.005,-1.610,0.035,-0.293,-70.532,12.676,-9.771
1747651576.62,0.059,-0.140,-0.020,-1.605,-0.081,-0.246,-71.463,12.825,-9.600
1747651576.63,0.014,-0.109,-0.068,-1.536,-0.145,-0.269,-72.370,12.937,-9.410
1747651576.64,-0.024,-0.051,-0.097,-1.462,-0.098,-0.325,-73.241,12.949,-9.321
1747651576.65,-0.021,0.006,-0.016,-1.462,-0.029,-0.350,-74.095,12.902,-9.335
1747651576.66,-0.017,0.063,0.083,-1.485,-0.016,-0.334,-74.960,12.883,-9.344
1747651576.67,-0.052,0.090,0.079,-1.404,0.063,-0.351,-75.811,12.882,-9.357
1747651576.68,-0.089,0.065,-0.014,-1.311,0.167,-0.394,-76.610,12.795,-9.514
1747651576.69,-0.091,-0.016,-0.028,-1.358,0.272,-0.350,-77.397,12.730,-9.707
1747651576.70,-0.059,-0.119,0.021,-1.440,0.421,-0.272,-78.218,12.957,-9.679
1747651576.71,-0.016,-0.187,0.031,-1.402,0.428,-0.235,-79.045,13.438,-9.443
1747651576.72,0.009,-0.187,-0.062,-1.298,0.263,-0.236,-79.826,13.906,-9.170
1747651576.73,0.009,-0.131,-0.145,-1.215,0.128,-0.248,-80.555,14.257,-8.923
1747651576.74,0.008,-0.045,-0.116,-1.163,0.130,-0.288,-81.249,14.444,-8.805
1747651576.75,0.010,0.043,-0.035,-1.139,0.182,-0.291,-81.928,14.568,-8.770
1747651576.76,-0.004,0.095,0.010,-1.064,0.195,-0.276,-82.580,14.707,-8.742
1747651576.77,-0.059,0.093,-0.038,-0.905,0.209,-0.306,-83.167,14.684,-8.876
1747651576.78,-0.112,0.039,-0.077,-0.780,0.347,-0.348,-83.678,14.296,-9.424
1747651576.79,-0.114,-0.020,-0.029,-0.693,0.517,-0.339,-84.133,13.693,-10.278
1747651576.80,-0.080,-0.053,-0.001,-0.634,0.621,-0.302,-84.543,13.111,-11.194
1747651576.81,-0.058,-0.049,0.010,-0.631,0.661,-0.241,-84.929,12.703,-11.973
1747651576.82,-0.053,-0.032,0.014,-0.615,0.659,-0.168,-85.304,12.651,-12.401
1747651576.83,-0.036,-0.029,0.021,-0.577,0.661,-0.081,-85.651,13.124,-12.307
1747651576.84,-0.012,-0.024,0.030,-0.567,0.604,-0.048,-85.976,14.065,-11.728
1747651576.85,-0.005,-0.030,0.018,-0.563,0.469,-0.064,-86.297,15.141,-10.960
1747651576.86,0.005,-0.034,-0.009,-0.506,0.324,-0.089,-86.604,16.027,-10.298
1747651576.87,0.038,-0.016,-0.041,-0.445,0.258,-0.114,-86.880,16.540,-9.948
1747651576.88,0.082,0.032,-0.030,-0.395,0.198,-0.139,-87.131,16.662,-9.958
1747651576.89,0.106,0.071,0.016,-0.338,0.094,-0.156,-87.356,16.237,-10.468
1747651576.90,0.099,0.073,0.057,-0.303,-0.015,-0.119,-87.554,15.702,-11.025
1747651576.91,0.066,0.056,0.085,-0.259,-0.128,-0.129,-87.726,15.073,-11.616
1747651576.92,0.013,0.028,0.081,-0.227,-0.269,-0.162,-87.881,13.751,-12.825
1747651576.93,-0.037,-0.003,0.056,-0.207,-0.327,-0.197,-88.024,11.515,-14.888
1747651576.94,-0.047,-0.023,0.048,-0.185,-0.230,-0.195,-88.155,8.592,-17.649
1747651576.95,-0.019,-0.031,0.064,-0.149,-0.044,-0.137,-88.262,5.840,-20.324
1747651576.96,0.000,-0.034,0.090,-0.128,0.095,-0.047,-88.344,4.322,-21.863
1747651576.97,-0.014,-0.030,0.113,-0.157,0.097,0.036,-88.423,4.522,-21.722
1747651576.98,-0.069,-0.019,0.102,-0.230,0.059,0.070,-88.531,6.158,-20.128
1747651576.99,-0.131,-0.016,0.044,-0.256,0.122,0.053,-88.666,8.415,-17.916
1747651577.00,-0.159,-0.008,0.001,-0.228,0.235,0.020,-88.801,10.484,-15.950
1747651577.01,-0.157,0.025,-0.008,-0.187,0.315,-0.005,-88.917,11.998,-14.593
1747651577.02,-0.130,0.055,-0.000,-0.134,0.363,-0.031,-89.010,12.749,-14.037
1747651577.03,-0.088,0.060,0.021,-0.070,0.340,-0.045,-89.071,12.399,-14.591
1747651577.04,-0.044,0.036,0.042,-0.037,0.253,-0.038,-89.105,11.427,-15.733
1747651577.05,-0.003,-0.004,0.048,-0.051,0.144,-0.007,-89.130,11.006,-16.270
1747651577.06,0.031,-0.052,0.057,-0.072,0.019,0.014,-89.164,11.721,-15.603
1747651577.07,0.045,-0.083,0.024,-0.065,-0.067,0.007,-89.203,12.774,-14.533
1747651577.08,0.057,-0.071,-0.009,-0.024,-0.107,0.007,-89.226,13.401,-13.855
1747651577.09,0.080,-0.034,-0.018,0.016,-0.119,0.027,-89.226,13.892,-13.299
1747651577.10,0.094,0.007,-0.006,0.052,-0.137,0.055,-89.202,15.034,-12.084
1747651577.11,0.090,0.037,0.027,0.070,-0.183,0.076,-89.158,16.734,-10.296
1747651577.12,0.082,0.047,0.045,0.046,-0.234,0.076,-89.112,18.795,-8.115
1747651577.13,0.055,0.033,0.043,0.011,-0.284,0.041,-89.086,20.372,-6.389
1747651577.14,0.020,-0.001,0.031,0.005,-0.353,0.014,-89.079,21.025,-5.554
1747651577.15,0.010,-0.041,-0.010,0.023,-0.352,0.007,-89.069,21.073,-5.302
1747651577.16,0.027,-0.049,-0.020,0.046,-0.296,0.011,-89.050,20.852,-5.336
1747651577.17,0.050,-0.025,-0.001,0.091,-0.220,0.030,-89.009,20.626,-5.415
1747651577.18,0.054,0.014,-0.008,0.154,-0.201,0.068,-88.932,20.762,-5.162
1747651577.19,0.026,0.047,-0.033,0.187,-0.240,0.105,-88.821,21.523,-4.275
1747651577.20,-0.033,0.059,-0.035,0.197,-0.284,0.094,-88.698,22.222,-3.426
1747651577.21,-0.107,0.048,-0.021,0.184,-0.268,0.051,-88.581,22.148,-3.337
1747651577.22,-0.155,0.017,-0.011,0.158,-0.166,0.002,-88.486,21.148,-4.212
1747651577.23,-0.151,-0.021,0.017,0.159,-0.037,-0.007,-88.403,19.834,-5.470
1747651577.24,-0.105,-0.050,0.040,0.182,0.080,0.015,-88.310,18.816,-6.501
1747651577.25,-0.044,-0.049,0.049,0.204,0.127,0.045,-88.200,18.270,-7.110
1747651577.26,0.006,-0.028,0.052,0.234,0.090,0.078,-88.071,18.169,-7.275
1747651577.27,0.033,-0.015,0.044,0.294,-0.000,0.101,-87.913,18.259,-7.211
1747651577.28,0.051,-0.008,-0.003,0.369,-0.057,0.094,-87.716,18.122,-7.330
1747651577.29,0.064,0.004,-0.033,0.459,-0.053,0.090,-87.476,17.560,-7.858
1747651577.30,0.087,0.029,-0.022,0.541,-0.053,0.124,-87.184,16.918,-8.472
1747651577.31,0.105,0.055,0.008,0.583,-0.130,0.182,-86.850,16.677,-8.664
1747651577.32,0.071,0.067,0.032,0.588,-0.248,0.206,-86.497,16.761,-8.471
1747651577.33,0.003,0.050,0.046,0.602,-0.295,0.175,-86.141,16.736,-8.335
1747651577.34,-0.057,-0.004,0.067,0.639,-0.247,0.127,-85.776,16.315,-8.601
1747651577.35,-0.082,-0.059,0.096,0.646,-0.177,0.099,-85.405,15.671,-9.126
1747651577.36,-0.076,-0.084,0.105,0.658,-0.128,0.094,-85.032,15.042,-9.671
1747651577.37,-0.064,-0.070,0.063,0.683,-0.127,0.104,-84.647,14.500,-10.144
1747651577.38,-0.054,-0.031,-0.000,0.744,-0.130,0.107,-84.239,13.994,-10.576
1747651577.39,-0.035,0.021,-0.027,0.809,-0.099,0.150,-83.790,13.574,-10.933
1747651577.40,0.003,0.055,0.021,0.837,-0.105,0.222,-83.308,13.447,-11.003
1747651577.41,0.024,0.051,0.066,0.847,-0.129,0.255,-82.808,13.560,-10.823
1747651577.42,0.001,0.021,0.051,0.871,-0.163,0.254,-82.298,13.682,-10.616
1747651577.43,-0.030,-0.007,0.006,0.914,-0.184,0.231,-81.770,13.686,-10.511
1747651577.44,-0.060,-0.025,-0.035,0.982,-0.121,0.187,-81.217,13.524,-10.582
1747651577.45,-0.086,-0.028,-0.040,1.101,0.060,0.140,-80.618,13.215,-10.877
1747651577.46,-0.097,-0.018,-0.007,1.179,0.157,0.106,-79.965,12.811,-11.355
1747651577.47,-0.102,-0.003,0.010,1.179,0.090,0.113,-79.292,12.406,-11.842
1747651577.48,-0.101,0.002,-0.030,1.130,0.016,0.162,-78.632,12.102,-12.179
1747651577.49,-0.082,-0.003,-0.021,1.126,0.046,0.236,-77.979,12.006,-12.290
1747651577.50,-0.035,-0.024,0.042,1.053,0.211,0.308,-77.334,12.176,-12.187
1747651577.51,0.025,-0.052,0.158,0.932,0.441,0.385,-76.739,12.674,-11.866
1747651577.52,0.090,-0.076,0.239,0.888,0.587,0.459,-76.182,13.467,-11.359
1747651577.53,0.160,-0.086,0.192,0.924,0.514,0.506,-75.615,14.364,-10.766
1747651577.54,0.198,-0.055,0.084,0.967,0.212,0.511,-75.018,15.132,-10.193
1747651577.55,0.203,0.008,-0.001,1.020,-0.129,0.460,-74.398,15.589,-9.740
1747651577.56,0.186,0.069,-0.033,1.132,-0.315,0.362,-73.745,15.675,-9.513
1747651577.57,0.138,0.092,-0.033,1.247,-0.378,0.247,-73.041,15.418,-9.573
1747651577.58,0.047,0.085,-0.019,1.276,-0.464,0.178,-72.312,14.941,-9.822
1747651577.59,-0.085,0.054,-0.007,1.279,-0.486,0.145,-71.583,14.375,-10.127
1747651577.60,-0.228,0.015,-0.053,1.247,-0.436,0.113,-70.862,13.801,-10.455
1747651577.61,-0.339,-0.023,-0.075,1.116,-0.355,0.090,-70.192,13.285,-10.759
1747651577.62,-0.375,-0.065,-0.069,1.027,-0.098,0.056,-69.588,12.881,-11.042
1747651577.63,-0.306,-0.093,-0.026,0.984,0.334,0.070,-69.021,12.698,-11.308
1747651577.64,-0.129,-0.090,0.074,0.952,0.701,0.159,-68.469,12.846,-11.474
1747651577.65,0.057,-0.052,0.147,0.972,0.831,0.278,-67.907,13.286,-11.481
1747651577.66,0.173,0.000,0.113,0.927,0.794,0.400,-67.330,13.898,-11.324
1747651577.67,0.227,0.037,0.141,0.865,0.697,0.468,-66.775,14.602,-11.024
1747651577.68,0.246,0.034,0.160,0.903,0.493,0.487,-66.218,15.261,-10.682
1747651577.69,0.238,0.017,0.015,0.950,0.219,0.447,-65.635,15.723,-10.397
1747651577.70,0.210,0.018,-0.070,0.976,0.035,0.379,-65.042,15.959,-10.212
1747651577.71,0.172,0.031,-0.039,1.025,-0.033,0.308,-64.440,16.025,-10.137
1747651577.72,0.100,0.045,0.010,1.093,-0.095,0.212,-63.818,15.942,-10.190
1747651577.73,-0.027,0.059,0.001,1.142,-0.201,0.104,-63.177,15.685,-10.385
1747651577.74,-0.164,0.062,-0.074,1.146,-0.246,-0.009,-62.540,15.262,-10.710
1747651577.75,-0.246,0.032,-0.095,1.160,-0.106,-0.072,-61.911,14.786,-11.129
1747651577.76,-0.246,-0.022,-0.021,1.125,0.096,-0.045,-61.286,14.410,-11.551
1747651577.77,-0.198,-0.066,0.080,0.989,0.321,0.069,-60.698,14.269,-11.848
1747651577.78,-0.139,-0.082,0.138,0.912,0.404,0.159,-60.157,14.364,-11.987
1747651577.79,-0.119,-0.057,0.028,0.815,0.337,0.219,-59.652,14.545,-12.024
1747651577.80,-0.083,-0.011,0.004,0.771,0.388,0.266,-59.183,14.782,-11.984
1747651577.81,0.019,0.026,0.080,0.830,0.478,0.274,-58.705,15.087,-11.920
1747651577.82,0.127,0.055,0.102,0.961,0.415,0.235,-58.175,15.360,-11.906
1747651577.83,0.146,0.083,0.037,1.078,0.249,0.161,-57.581,15.477,-11.993
1747651577.84,0.109,0.093,-0.070,1.131,0.117,0.077,-56.954,15.418,-12.184
1747651577.85,0.055,0.059,-0.116,1.163,0.108,0.025,-56.315,15.256,-12.452
1747651577.86,-0.004,-0.007,-0.071,1.157,0.099,0.002,-55.671,15.069,-12.750
1747651577.87,-0.053,-0.068,-0.042,1.071,0.133,-0.003,-55.053,14.891,-13.042
1747651577.88,-0.065,-0.109,-0.010,0.949,0.207,0.028,-54.495,14.787,-13.288
1747651577.89,-0.006,-0.132,-0.001,0.870,0.241,0.110,-53.984,14.784,-13.451
1747651577.90,0.103,-0.127,-0.019,0.806,0.235,0.216,-53.499,14.875,-13.507
1747651577.91,0.223,-0.102,0.045,0.801,0.168,0.318,-53.019,15.035,-13.456
1747651577.92,0.319,-0.082,0.077,0.864,0.016,0.375,-52.509,15.184,-13.339
1747651577.93,0.345,-0.064,0.038,0.926,-0.161,0.381,-51.957,15.236,-13.218
1747651577.94,0.317,-0.011,0.009,0.960,-0.267,0.365,-51.381,15.196,-13.111
1747651577.95,0.225,0.011,0.007,1.029,-0.306,0.301,-50.782,15.077,-13.053
1747651577.96,0.080,0.020,-0.005,1.046,-0.352,0.210,-50.170,14.875,-13.072
1747651577.97,-0.057,0.044,-0.055,0.994,-0.345,0.136,-49.578,14.604,-13.159
1747651577.98,-0.142,0.034,-0.127,0.883,-0.287,0.103,-49.043,14.346,-13.263
1747651577.99,-0.164,-0.002,-0.103,0.813,-0.255,0.133,-48.559,14.126,-13.348
1747651578.00,-0.134,-0.049,-0.036,0.759,-0.226,0.212,-48.099,13.973,-13.368
1747651578.01,-0.066,-0.052,0.036,0.765,-0.170,0.268,-47.646,13.891,-13.324
1747651578.02,-0.001,0.015,0.081,0.808,-0.110,0.299,-47.169,13.864,-13.250
1747651578.03,0.050,0.062,0.068,0.828,-0.051,0.300,-46.673,13.876,-13.169
1747651578.04,0.054,0.096,0.078,0.845,0.010,0.283,-46.167,13.915,-13.099
1747651578.05,0.027,0.119,0.108,0.879,0.035,0.222,-45.656,13.953,-13.069
1747651578.06,-0.013,0.149,0.066,0.886,-0.059,0.173,-45.138,13.935,-13.089
1747651578.07,-0.055,0.145,-0.029,0.865,-0.183,0.147,-44.632,13.833,-13.132
1747651578.08,-0.084,0.107,-0.080,0.875,-0.240,0.105,-44.131,13.663,-13.200
1747651578.09,-0.097,0.030,-0.053,0.886,-0.278,0.081,-43.631,13.451,-13.292
1747651578.10,-0.095,-0.073,-0.016,0.912,-0.282,0.062,-43.122,13.215,-13.401
1747651578.11,-0.078,-0.115,-0.037,0.912,-0.248,0.039,-42.610,12.975,-13.521
1747651578.12,-0.068,-0.120,-0.017,0.959,-0.161,-0.036,-42.089,12.752,-13.681
1747651578.13,-0.095,-0.090,0.014,0.992,-0.075,-0.083,-41.552,12.544,-13.892
1747651578.14,-0.106,-0.068,0.069,0.997,0.019,-0.108,-41.009,12.375,-14.126
1747651578.15,-0.100,-0.028,0.040,0.971,0.058,-0.124,-40.472,12.238,-14.371
1747651578.16,-0.083,0.018,-0.029,0.900,0.014,-0.099,-39.963,12.114,-14.601
1747651578.17,-0.047,0.043,-0.063,0.851,-0.122,-0.045,-39.484,11.964,-14.789
1747651578.18,0.010,0.056,-0.051,0.851,-0.201,0.025,-39.010,11.784,-14.926
1747651578.19,0.082,0.069,0.020,0.889,-0.216,0.062,-38.519,11.603,-15.020
1747651578.20,0.143,0.092,0.058,0.968,-0.205,0.045,-37.995,11.426,-15.113
1747651578.21,0.135,0.103,0.079,1.049,-0.230,0.002,-37.426,11.225,-15.240
1747651578.22,0.096,0.072,0.076,1.085,-0.263,-0.018,-36.828,10.989,-15.394
1747651578.23,0.076,0.013,0.022,1.072,-0.269,-0.020,-36.225,10.741,-15.502
1747651578.24,0.074,-0.055,0.005,1.015,-0.259,-0.015,-35.638,10.501,-15.650
1747651578.25,0.068,-0.095,-0.009,0.957,-0.225,-0.003,-35.087,10.285,-15.711
1747651578.26,0.065,-0.121,0.007,0.896,-0.165,0.037,-34.564,10.114,-15.814
1747651578.27,0.075,-0.096,-0.008,0.812,-0.109,0.086,-34.077,10.005,-15.820
1747651578.28,0.082,-0.035,0.008,0.760,-0.151,0.148,-33.625,9.927,-15.836
1747651578.29,0.070,0.041,0.029,0.752,-0.212,0.187,-33.181,9.845,-15.756
1747651578.30,0.066,0.116,0.049,0.791,-0.251,0.262,-32.729,9.747,-15.691
1747651578.31,0.093,0.172,0.042,0.848,-0.313,0.230,-32.244,9.628,-15.572
1747651578.32,0.078,0.180,-0.012,0.939,-0.395,0.162,-31.722,9.446,-15.541
1747651578.33,0.058,0.147,-0.012,1.002,-0.478,0.102,-31.162,9.184,-15.524
1747651578.34,0.031,0.073,-0.007,0.984,-0.458,0.063,-30.591,8.888,-15.573
1747651578.35,-0.004,-0.042,0.026,0.888,-0.363,0.028,-30.058,8.617,-15.604
1747651578.36,-0.040,-0.121,-0.017,0.799,-0.219,0.047,-29.579,8.421,-15.666
1747651578.37,-0.079,-0.163,-0.020,0.697,-0.173,0.157,-29.149,8.310,-15.646
1747651578.38,-0.086,-0.128,0.021,0.648,-0.162,0.293,-28.753,8.256,-15.562
1747651578.39,-0.002,-0.018,0.052,0.669,-0.181,0.336,-28.356,8.231,-15.394
1747651578.40,0.103,0.102,0.023,0.764,-0.240,0.280,-27.928,8.174,-15.261
1747651578.41,0.146,0.178,-0.007,0.883,-0.322,0.187,-27.443,8.050,-15.174
1747651578.42,0.105,0.167,0.029,0.979,-0.426,0.110,-26.902,7.843,-15.164
1747651578.43,-0.006,0.072,0.026,1.001,-0.367,0.065,-26.333,7.597,-15.183
1747651578.44,-0.103,-0.049,0.010,0.995,-0.241,-0.004,-25.765,7.392,-15.248
1747651578.45,-0.216,-0.139,-0.066,0.959,-0.068,-0.017,-25.211,7.268,-15.337
1747651578.46,-0.303,-0.176,-0.106,0.870,0.089,0.010,-24.692,7.243,-15.412
1747651578.47,-0.305,-0.140,-0.072,0.795,0.267,0.013,-24.220,7.323,-15.480
1747651578.48,-0.218,-0.058,-0.050,0.759,0.369,-0.022,-23.782,7.483,-15.543
1747651578.49,-0.087,0.076,-0.027,0.754,0.311,-0.084,-23.359,7.648,-15.641
1747651578.50,-0.001,0.174,-0.028,0.783,0.059,-0.137,-22.934,7.706,-15.769
1747651578.51,0.030,0.170,-0.075,0.829,-0.176,-0.185,-22.491,7.604,-15.945
1747651578.52,0.055,0.100,-0.035,0.836,-0.289,-0.200,-22.031,7.396,-16.127
1747651578.53,0.052,0.028,0.012,0.845,-0.314,-0.251,-21.572,7.147,-16.342
1747651578.54,0.014,-0.039,-0.004,0.832,-0.253,-0.244,-21.113,6.904,-16.558
1747651578.55,-0.041,-0.070,0.014,0.803,-0.126,-0.218,-20.665,6.721,-16.757
1747651578.56,-0.080,-0.025,-0.001,0.750,-0.007,-0.162,-20.238,6.627,-16.936
1747651578.57,-0.088,0.039,-0.044,0.696,0.044,-0.110,-19.837,6.593,-17.069
1747651578.58,-0.073,0.105,-0.039,0.694,0.039,-0.082,-19.450,6.581,-17.188
1747651578.59,-0.030,0.146,0.016,0.680,0.043,-0.040,-19.065,6.576,-17.271
1747651578.60,0.047,0.137,0.029,0.683,0.046,0.006,-18.680,6.584,-17.356
1747651578.61,0.126,0.096,-0.010,0.707,0.062,-0.061,-18.288,6.595,-17.416
1747651578.62,0.162,0.038,0.011,0.703,0.033,-0.084,-17.892,6.596,-17.533
1747651578.63,0.157,-0.028,0.035,0.711,-0.043,-0.072,-17.496,6.563,-17.629
1747651578.64,0.109,-0.078,0.022,0.696,-0.041,-0.048,-17.099,6.511,-17.741
1747651578.65,0.076,-0.104,0.014,0.676,0.000,-0.030,-16.714,6.481,-17.810
1747651578.66,0.078,-0.098,-0.012,0.644,0.010,-0.023,-16.340,6.469,-17.899
1747651578.67,0.065,-0.062,-0.051,0.597,0.025,0.018,-15.988,6.467,-17.943
1747651578.68,0.038,-0.004,-0.070,0.538,0.003,0.083,-15.663,6.474,-18.004
1747651578.69,0.015,0.038,-0.067,0.499,-0.011,0.142,-15.362,6.478,-17.971
1747651578.70,0.044,0.054,-0.043,0.487,-0.002,0.170,-15.072,6.492,-17.956
1747651578.71,0.130,0.048,-0.033,0.488,-0.039,0.177,-14.785,6.500,-17.887
1747651578.72,0.188,0.031,-0.050,0.486,-0.132,0.190,-14.495,6.471,-17.858
1747651578.73,0.172,0.016,-0.030,0.470,-0.206,0.188,-14.212,6.393,-17.779
1747651578.74,0.103,0.024,0.008,0.491,-0.202,0.192,-13.928,6.292,-17.740
1747651578.75,0.004,0.039,0.036,0.501,-0.129,0.207,-13.633,6.215,-17.654
1747651578.76,-0.080,0.058,0.021,0.496,-0.036,0.187,-13.337,6.188,-17.612
1747651578.77,-0.126,0.064,-0.006,0.489,0.049,0.153,-13.046,6.209,-17.544
1747651578.77,-0.139,0.036,-0.033,0.476,0.084,0.095,-12.765,6.258,-17.557
1747651578.78,-0.142,0.004,-0.054,0.460,0.090,0.028,-12.496,6.310,-17.551
1747651578.80,-0.116,-0.035,-0.065,0.432,0.049,-0.021,-12.243,6.347,-17.618
1747651578.80,-0.043,-0.077,-0.112,0.397,-0.013,-0.035,-12.008,6.347,-17.661
1747651578.82,0.049,-0.079,-0.108,0.340,-0.077,-0.063,-11.802,6.311,-17.769
1747651578.82,0.106,-0.026,-0.045,0.342,-0.167,-0.075,-11.615,6.229,-17.832
1747651578.83,0.063,0.041,-0.036,0.349,-0.173,-0.046,-11.420,6.115,-17.948
1747651578.84,-0.060,0.093,0.009,0.346,-0.055,-0.034,-11.227,6.038,-17.991
1747651578.85,-0.146,0.107,0.033,0.355,0.116,-0.055,-11.030,6.047,-18.088
1747651578.86,-0.133,0.095,0.011,0.363,0.235,-0.086,-10.831,6.138,-18.151
1747651578.87,-0.068,0.057,-0.016,0.357,0.244,-0.108,-10.632,6.265,-18.283
1747651578.88,0.006,0.014,-0.066,0.329,0.152,-0.115,-10.444,6.365,-18.369
1747651578.89,0.057,-0.017,-0.096,0.291,0.049,-0.130,-10.275,6.404,-18.521
1747651578.90,0.083,-0.026,-0.085,0.237,-0.027,-0.156,-10.134,6.392,-18.621
1747651578.91,0.088,-0.024,-0.082,0.221,-0.089,-0.149,-10.014,6.340,-18.779
1747651578.92,0.055,-0.026,-0.071,0.222,-0.099,-0.122,-9.898,6.267,-18.871
1747651578.93,0.020,-0.015,-0.026,0.231,-0.055,-0.107,-9.777,6.208,-19.004
1747651578.94,0.028,0.018,0.008,0.255,0.024,-0.092,-9.646,6.187,-19.078
1747651578.95,0.061,0.061,0.026,0.237,0.073,-0.055,-9.508,6.208,-19.183
1747651578.96,0.062,0.077,0.010,0.215,0.053,-0.007,-9.383,6.240,-19.216
1747651578.97,0.041,0.052,-0.066,0.257,0.079,0.038,-9.250,6.274,-19.271
1747651578.98,0.049,0.014,-0.087,0.273,0.110,0.027,-9.096,6.331,-19.267
1747651578.99,0.080,0.018,-0.090,0.259,0.082,-0.003,-8.946,6.386,-19.336
1747651579.00,0.104,0.010,-0.103,0.313,0.128,-0.017,-8.784,6.438,-19.360
1747651579.01,0.099,0.004,-0.056,0.303,0.175,-0.056,-8.609,6.524,-19.461
1747651579.02,0.058,0.009,0.003,0.261,0.096,-0.051,-8.451,6.595,-19.514
1747651579.03,-0.009,-0.091,0.016,0.226,0.066,-0.008,-8.317,6.633,-19.605
1747651579.04,-0.028,-0.041,0.025,0.181,0.061,0.027,-8.200,6.667,-19.613
1747651579.05,-0.049,0.001,-0.019,0.148,0.067,0.060,-8.105,6.704,-19.663
1747651579.06,-0.056,0.013,-0.029,0.129,0.102,0.033,-8.023,6.755,-19.642
1747651579.07,-0.042,0.032,-0.020,0.116,0.113,-0.025,-7.954,6.820,-19.715
1747651579.08,-0.027,0.012,-0.013,0.100,0.048,-0.064,-7.896,6.867,-19.750
1747651579.09,-0.019,-0.042,-0.027,0.074,-0.043,-0.079,-7.852,6.866,-19.851
1747651579.10,0.001,-0.084,-0.062,0.040,-0.113,-0.079,-7.826,6.817,-19.901
1747651579.11,0.019,-0.085,-0.051,0.028,-0.141,-0.066,-7.808,6.735,-19.999
1747651579.12,0.019,-0.009,-0.005,0.029,-0.121,-0.062,-7.795,6.652,-20.037
1747651579.13,-0.013,0.070,0.036,0.020,-0.082,-0.053,-7.785,6.586,-20.129
1747651579.14,-0.054,0.089,0.017,0.013,-0.042,-0.031,-7.779,6.543,-20.155
1747651579.15,-0.073,0.041,-0.023,-0.004,-0.002,-0.034,-7.781,6.526,-20.243
1747651579.16,-0.055,-0.008,-0.041,-0.024,0.015,-0.057,-7.792,6.528,-20.267
1747651579.17,0.008,-0.034,-0.068,-0.057,-0.022,-0.081,-7.817,6.520,-20.368
1747651579.18,0.064,-0.044,-0.063,-0.081,-0.048,-0.078,-7.857,6.496,-20.412
1747651579.19,0.106,-0.036,-0.035,-0.116,-0.102,-0.046,-7.911,6.452,-20.502
1747651579.20,0.132,-0.025,-0.056,-0.161,-0.182,0.005,-7.991,6.371,-20.504
1747651579.21,0.122,-0.015,-0.092,-0.171,-0.238,0.046,-8.087,6.253,-20.526
1747651579.22,0.059,0.001,-0.101,-0.226,-0.223,0.066,-8.198,6.123,-20.482
1747651579.23,-0.016,0.002,-0.120,-0.274,-0.139,0.072,-8.338,6.023,-20.475
1747651579.24,-0.028,-0.034,-0.146,-0.325,-0.023,0.070,-8.504,5.984,-20.418
1747651579.25,0.009,-0.062,-0.116,-0.357,0.014,0.077,-8.692,5.993,-20.416
1747651579.26,0.048,-0.064,-0.078,-0.399,-0.009,0.069,-8.900,6.008,-20.350
1747651579.27,0.074,-0.039,-0.062,-0.430,-0.025,0.065,-9.130,6.010,-20.342
1747651579.28,0.082,-0.006,-0.065,-0.436,-0.027,0.077,-9.372,6.007,-20.274
1747651579.29,0.048,0.020,-0.080,-0.484,-0.012,0.060,-9.625,6.008,-20.261
1747651579.30,-0.023,0.043,-0.099,-0.534,0.044,0.022,-9.913,6.026,-20.207
1747651579.31,-0.074,0.020,-0.147,-0.583,0.107,0.017,-10.228,6.078,-20.211
1747651579.32,-0.094,-0.032,-0.136,-0.644,0.152,0.006,-10.576,6.161,-20.167
1747651579.33,-0.080,-0.053,-0.088,-0.691,0.166,-0.016,-10.958,6.259,-20.167
1747651579.34,-0.017,-0.044,-0.053,-0.735,0.151,-0.026,-11.364,6.358,-20.134
1747651579.35,0.036,-0.017,-0.042,-0.780,0.114,-0.038,-11.795,6.441,-20.131
1747651579.36,0.032,-0.010,-0.079,-0.841,0.058,-0.030,-12.256,6.496,-20.098
1747651579.37,-0.006,-0.033,-0.130,-0.939,0.058,-0.037,-12.763,6.535,-20.092
1747651579.38,-0.053,-0.052,-0.145,-1.018,0.076,-0.062,-13.323,6.580,-20.057
1747651579.39,-0.073,-0.072,-0.159,-1.074,0.079,-0.073,-13.921,6.634,-20.054
1747651579.40,-0.054,-0.088,-0.141,-1.164,0.027,-0.061,-14.559,6.674,-20.017
1747651579.41,-0.011,-0.088,-0.094,-1.233,-0.044,-0.039,-15.244,6.684,-19.991
1747651579.42,0.055,-0.082,-0.078,-1.248,-0.087,-0.025,-15.950,6.662,-19.923
1747651579.43,0.115,-0.060,-0.049,-1.258,-0.087,-0.042,-16.663,6.631,-19.877
1747651579.44,0.106,-0.021,-0.019,-1.273,-0.105,-0.069,-17.384,6.592,-19.823
1747651579.45,0.028,0.001,-0.034,-1.283,-0.088,-0.080,-18.115,6.548,-19.780
1747651579.46,-0.052,-0.004,-0.045,-1.325,-0.025,-0.084,-18.859,6.526,-19.741
1747651579.47,-0.076,-0.022,-0.055,-1.357,0.056,-0.078,-19.626,6.551,-19.677
1747651579.48,-0.043,-0.042,-0.065,-1.385,0.090,-0.053,-20.408,6.613,-19.622
1747651579.49,0.008,-0.058,-0.062,-1.393,0.119,-0.013,-21.198,6.699,-19.516
1747651579.50,0.051,-0.066,-0.049,-1.413,0.147,-0.003,-21.992,6.812,-19.419
1747651579.51,0.062,-0.058,-0.019,-1.430,0.147,-0.020,-22.801,6.934,-19.264
1747651579.52,0.026,-0.051,0.006,-1.394,0.121,-0.045,-23.603,7.046,-19.177
1747651579.53,-0.035,-0.048,-0.002,-1.402,0.101,-0.064,-24.396,7.139,-19.032
1747651579.54,-0.072,-0.052,-0.028,-1.447,0.068,-0.073,-25.208,7.217,-18.963
1747651579.55,-0.062,-0.066,-0.057,-1.487,0.035,-0.069,-26.045,7.276,-18.799
1747651579.56,-0.020,-0.080,-0.054,-1.490,0.058,-0.049,-26.892,7.339,-18.716
1747651579.57,0.041,-0.084,-0.028,-1.493,0.078,-0.025,-27.740,7.425,-18.522
1747651579.58,0.096,-0.080,-0.014,-1.506,0.080,-0.004,-28.590,7.522,-18.406
1747651579.59,0.131,-0.073,0.031,-1.506,0.145,0.006,-29.443,7.648,-18.176
1747651579.60,0.147,-0.060,0.068,-1.493,0.199,0.009,-30.290,7.818,-18.038
1747651579.61,0.117,-0.043,0.046,-1.480,0.194,0.002,-31.131,8.003,-17.790
1747651579.62,0.046,-0.031,0.020,-1.495,0.111,-0.018,-31.972,8.163,-17.656
1747651579.63,-0.009,-0.027,-0.021,-1.498,0.035,-0.046,-32.822,8.269,-17.413
1747651579.64,-0.019,-0.028,-0.051,-1.480,0.032,-0.058,-33.667,8.346,-17.188
1747651579.65,-0.003,-0.039,-0.033,-1.489,0.101,-0.074,-34.511,8.441,-17.083
1747651579.66,-0.002,-0.055,0.009,-1.498,0.189,-0.076,-35.362,8.583,-16.861
1747651579.67,-0.027,-0.078,-0.015,-1.492,0.214,-0.050,-36.211,8.769,-16.746
1747651579.68,-0.063,-0.105,-0.077,-1.523,0.176,-0.033,-37.064,8.963,-16.484
1747651579.69,-0.088,-0.107,-0.057,-1.567,0.156,-0.011,-37.938,9.152,-16.325
1747651579.70,-0.065,-0.110,0.003,-1.601,0.201,-0.001,-38.832,9.365,-16.142
1747651579.71,-0.005,-0.098,0.037,-1.601,0.284,-0.027,-39.734,9.621,-15.958
1747651579.72,0.059,-0.068,0.035,-1.632,0.318,-0.043,-40.645,9.911,-15.779
1747651579.73,0.121,-0.044,0.029,-1.673,0.280,-0.042,-41.580,10.206,-15.593
1747651579.74,0.169,-0.028,-0.017,-1.693,0.193,-0.001,-42.528,10.484,-15.380
1747651579.75,0.194,-0.027,-0.060,-1.696,0.130,0.042,-43.477,10.753,-15.121
1747651579.76,0.174,-0.021,-0.048,-1.680,0.110,0.050,-44.418,11.022,-14.830
1747651579.77,0.114,0.004,-0.031,-1.676,0.091,0.026,-45.353,11.286,-14.538
1747651579.78,0.029,0.035,-0.015,-1.681,0.060,0.004,-46.292,11.534,-14.254
1747651579.79,-0.063,0.046,-0.013,-1.673,-0.021,-0.028,-47.233,11.742,-13.981
1747651579.80,-0.136,0.038,-0.044,-1.669,-0.022,-0.072,-48.171,11.911,-13.732
1747651579.81,-0.164,0.009,-0.040,-1.690,0.025,-0.137,-49.120,12.072,-13.519
1747651579.82,-0.154,-0.029,0.012,-1.688,0.100,-0.209,-50.085,12.230,-13.355
1747651579.83,-0.114,-0.067,0.029,-1.697,0.161,-0.222,-51.055,12.409,-13.223
1747651579.84,-0.051,-0.101,0.008,-1.736,0.151,-0.211,-52.038,12.615,-13.076
1747651579.85,0.008,-0.114,-0.017,-1.743,0.140,-0.204,-53.036,12.832,-12.906
1747651579.86,0.070,-0.106,-0.025,-1.743,0.119,-0.212,-54.031,13.049,-12.730
1747651579.87,0.120,-0.075,0.012,-1.783,0.047,-0.170,-55.037,13.271,-12.518
1747651579.88,0.130,-0.035,0.056,-1.790,-0.018,-0.158,-56.053,13.488,-12.264
1747651579.89,0.117,0.015,0.060,-1.777,-0.083,-0.145,-57.064,13.694,-11.981
1747651579.90,0.083,0.061,0.041,-1.756,-0.114,-0.174,-58.065,13.872,-11.701
1747651579.91,0.040,0.084,0.050,-1.728,-0.107,-0.208,-59.058,14.028,-11.443
1747651579.92,-0.005,0.071,0.058,-1.694,-0.115,-0.265,-60.038,14.148,-11.232
1747651579.93,-0.043,0.039,0.013,-1.684,-0.142,-0.282,-61.010,14.224,-11.060
1747651579.94,-0.061,-0.001,-0.014,-1.693,-0.140,-0.298,-61.986,14.284,-10.898
1747651579.95,-0.061,-0.029,0.000,-1.691,-0.093,-0.318,-62.967,14.347,-10.750
1747651579.96,-0.056,-0.035,0.025,-1.678,-0.070,-0.345,-63.945,14.412,-10.626
1747651579.97,-0.057,-0.026,0.071,-1.669,-0.036,-0.358,-64.921,14.474,-10.523
1747651579.98,-0.043,-0.013,0.113,-1.674,-0.002,-0.365,-65.896,14.549,-10.429
1747651579.99,-0.021,0.001,0.128,-1.691,0.015,-0.355,-66.880,14.649,-10.325
1747651580.00,-0.023,0.006,0.082,-1.638,0.031,-0.327,-67.850,14.792,-10.182
1747651580.01,-0.029,-0.012,-0.005,-1.596,0.084,-0.319,-68.787,14.969,-10.026
1747651580.02,-0.024,-0.037,-0.000,-1.630,0.123,-0.311,-69.722,15.206,-9.836
1747651580.03,-0.023,-0.045,0.042,-1.617,0.198,-0.327,-70.666,15.498,-9.623
1747651580.04,-0.032,-0.033,0.004,-1.585,0.221,-0.335,-71.596,15.806,-9.425
1747651580.05,-0.059,-0.002,-0.004,-1.534,0.200,-0.356,-72.508,16.100,-9.244
1747651580.06,-0.101,0.026,0.034,-1.467,0.245,-0.405,-73.390,16.323,-9.140
1747651580.07,-0.116,0.040,0.072,-1.409,0.305,-0.448,-74.246,16.477,-9.147
1747651580.08,-0.092,0.035,0.103,-1.415,0.330,-0.456,-75.091,16.579,-9.227
1747651580.09,-0.054,0.013,0.117,-1.428,0.365,-0.414,-75.941,16.759,-9.246
1747651580.10,-0.013,-0.022,0.090,-1.410,0.394,-0.384,-76.782,17.050,-9.169
1747651580.11,0.011,-0.062,0.032,-1.403,0.352,-0.353,-77.612,17.432,-8.998
1747651580.12,0.033,-0.093,-0.021,-1.401,0.238,-0.313,-78.433,17.885,-8.711
1747651580.13,0.057,-0.093,-0.063,-1.370,0.083,-0.277,-79.238,18.425,-8.254
1747651580.14,0.068,-0.067,-0.068,-1.322,0.002,-0.296,-80.018,18.952,-7.741
1747651580.15,0.064,-0.034,-0.055,-1.275,-0.021,-0.341,-80.778,19.374,-7.304
1747651580.16,0.052,-0.014,-0.028,-1.256,-0.005,-0.342,-81.525,19.721,-6.944
1747651580.17,0.039,-0.007,-0.011,-1.201,0.071,-0.334,-82.252,20.151,-6.527
1747651580.18,0.034,-0.015,-0.013,-1.129,0.148,-0.339,-82.941,20.614,-6.127
1747651580.19,0.040,-0.015,-0.009,-1.079,0.192,-0.325,-83.599,21.104,-5.732
1747651580.20,0.044,-0.007,-0.014,-1.034,0.165,-0.293,-84.225,21.731,-5.206
1747651580.21,0.032,0.004,-0.049,-0.999,0.128,-0.275,-84.823,22.550,-4.467
1747651580.22,-0.000,0.008,-0.055,-0.949,0.160,-0.280,-85.398,23.473,-3.620
1747651580.23,-0.022,-0.018,-0.027,-0.873,0.257,-0.258,-85.937,24.531,-2.681
1747651580.24,-0.009,-0.056,0.013,-0.824,0.237,-0.198,-86.429,26.002,-1.355
1747651580.25,-0.023,-0.070,0.055,-0.840,0.194,-0.174,-86.896,28.282,0.807
1747651580.26,-0.073,-0.062,0.034,-0.844,0.152,-0.220,-87.371,31.277,3.707
1747651580.27,-0.109,-0.051,-0.023,-0.779,0.104,-0.270,-87.838,34.542,6.903
1747651580.28,-0.097,-0.036,-0.079,-0.710,0.129,-0.275,-88.272,38.324,10.624
1747651580.29,-0.052,-0.005,-0.059,-0.662,0.183,-0.258,-88.668,43.741,15.954
1747651580.30,0.004,0.031,-0.019,-0.615,0.273,-0.245,-89.020,52.602,24.688
1747651580.31,0.044,0.052,-0.017,-0.548,0.357,-0.209,-89.300,68.077,39.985
1747651580.32,0.055,0.039,-0.019,-0.467,0.383,-0.176,-89.458,93.339,65.034
1747651580.33,0.038,0.012,-0.029,-0.420,0.328,-0.181,-89.477,123.069,94.560
1747651580.34,0.022,-0.012,-0.025,-0.398,0.216,-0.165,-89.380,147.015,118.349
1747651580.35,0.032,-0.019,-0.006,-0.334,0.147,-0.136,-89.226,161.083,132.316
1747651580.36,0.054,-0.011,-0.026,-0.238,0.136,-0.115,-89.088,168.762,139.918
1747651580.37,0.070,0.005,-0.025,-0.198,0.122,-0.072,-88.976,173.191,144.268
1747651580.38,0.066,0.023,0.036,-0.223,0.011,-0.016,-88.859,175.125,146.164
1747651580.39,0.030,0.018,0.081,-0.252,-0.050,-0.024,-88.724,176.005,147.059
1747651580.40,-0.008,-0.003,0.091,-0.251,-0.063,-0.063,-88.581,177.391,148.477
1747651580.41,-0.023,-0.026,0.059,-0.221,-0.083,-0.074,-88.447,179.027,150.156
1747651580.42,-0.016,-0.037,0.029,-0.193,-0.093,-0.087,-88.330,-179.416,151.765
1747651580.43,-0.007,-0.024,0.026,-0.164,-0.032,-0.108,-88.225,-177.705,153.515
1747651580.44,0.006,0.001,0.044,-0.098,0.025,-0.093,-88.147,-175.981,155.239
1747651580.45,0.022,0.020,0.052,-0.031,-0.039,-0.037,-88.107,-174.912,156.310
1747651580.46,0.008,0.025,0.029,0.044,-0.176,0.018,-88.110,-174.829,156.453
1747651580.47,-0.032,0.025,0.016,0.130,-0.256,0.036,-88.161,-175.385,156.024
1747651580.48,-0.075,0.026,0.018,0.180,-0.247,0.013,-88.253,-175.765,155.791
1747651580.49,-0.107,0.021,0.040,0.191,-0.198,-0.007,-88.358,-175.681,156.003
1747651580.50,-0.116,-0.003,0.052,0.228,-0.086,-0.016,-88.475,-175.142,156.625
1747651580.51,-0.097,-0.019,0.053,0.252,0.037,0.016,-88.611,-174.634,157.146
1747651580.52,-0.061,-0.013,0.082,0.273,0.107,0.064,-88.759,-175.035,156.701
1747651580.53,-0.045,-0.001,0.125,0.300,0.096,0.085,-88.922,-176.577,155.099
1747651580.54,-0.059,0.005,0.136,0.335,0.036,0.084,-89.103,-178.936,152.700
1747651580.55,-0.080,-0.004,0.117,0.374,-0.026,0.086,-89.302,177.656,149.289
1747651580.56,-0.074,-0.014,0.091,0.412,-0.056,0.085,-89.520,171.418,143.076
1747651580.57,-0.039,-0.021,0.077,0.442,-0.016,0.092,-89.738,154.293,125.973
1747651580.58,0.006,-0.018,0.095,0.475,0.032,0.103,-89.829,81.482,53.156
1747651580.59,0.036,0.006,0.109,0.525,0.016,0.106,-89.614,36.503,8.162
1747651580.60,0.031,0.025,0.070,0.584,-0.016,0.084,-89.312,24.405,-3.936
1747651580.61,0.014,0.033,0.030,0.641,-0.036,0.049,-88.972,18.256,-10.071
1747651580.62,0.004,0.031,0.019,0.695,-0.090,0.033,-88.600,14.221,-14.072
1747651580.63,0.008,0.040,0.007,0.742,-0.173,0.057,-88.195,11.684,-16.534
1747651580.64,0.013,0.059,0.004,0.799,-0.312,0.127,-87.754,10.574,-17.509
1747651580.65,0.003,0.058,0.033,0.844,-0.423,0.191,-87.274,10.473,-17.398
1747651580.66,-0.037,0.016,0.087,0.830,-0.449,0.189,-86.782,10.617,-17.000
1747651580.67,-0.085,-0.039,0.126,0.790,-0.412,0.159,-86.310,10.581,-16.789
1747651580.68,-0.104,-0.087,0.129,0.783,-0.360,0.139,-85.854,10.378,-16.772
1747651580.69,-0.076,-0.108,0.102,0.805,-0.305,0.147,-85.395,10.181,-16.779
1747651580.70,-0.022,-0.085,0.069,0.885,-0.246,0.153,-84.907,10.023,-16.779
1747651580.71,0.022,-0.016,-0.010,0.935,-0.187,0.169,-84.376,9.894,-16.785
1747651580.72,0.033,0.045,-0.006,0.933,-0.225,0.188,-83.832,9.866,-16.699
1747651580.73,0.006,0.070,0.035,0.974,-0.291,0.199,-83.278,9.867,-16.549
1747651580.74,-0.039,0.064,-0.020,1.066,-0.239,0.187,-82.687,9.779,-16.481
1747651580.75,-0.058,0.033,-0.050,1.153,-0.127,0.227,-82.040,9.730,-16.424
1747651580.76,-0.032,-0.008,0.004,1.146,-0.030,0.275,-81.366,9.895,-16.212
1747651580.77,-0.041,-0.050,0.065,1.125,0.033,0.270,-80.702,10.166,-15.939
1747651580.78,-0.099,-0.083,0.079,1.170,0.003,0.251,-80.034,10.354,-15.763
1747651580.79,-0.154,-0.106,0.024,1.246,-0.089,0.252,-79.330,10.422,-15.667
1747651580.80,-0.177,-0.103,-0.056,1.306,-0.100,0.253,-78.585,10.415,-15.616
1747651580.81,-0.163,-0.073,-0.106,1.326,-0.010,0.246,-77.820,10.400,-15.595
1747651580.82,-0.111,-0.040,-0.091,1.356,0.176,0.253,-77.041,10.444,-15.596
1747651580.83,-0.039,-0.002,-0.066,1.333,0.418,0.313,-76.253,10.675,-15.529
1747651580.84,0.010,0.038,0.028,1.223,0.645,0.388,-75.496,11.217,-15.289
1747651580.85,0.029,0.051,0.214,1.101,0.640,0.430,-74.802,11.960,-14.909
1747651580.86,-0.012,0.024,0.174,1.066,0.413,0.452,-74.146,12.682,-14.477
1747651580.87,-0.047,-0.042,0.038,1.053,0.228,0.467,-73.497,13.271,-14.046
1747651580.88,0.030,-0.083,0.057,1.031,0.292,0.476,-72.858,13.817,-13.620
1747651580.89,0.189,-0.084,0.124,1.133,0.449,0.500,-72.195,14.411,-13.221
1747651580.90,0.311,-0.043,0.086,1.267,0.415,0.496,-71.460,14.985,-12.887
1747651580.91,0.299,0.022,-0.025,1.373,0.165,0.411,-70.661,15.310,-12.722
1747651580.92,0.141,0.073,-0.085,1.346,-0.057,0.319,-69.852,15.322,-12.738
1747651580.93,-0.031,0.077,-0.009,1.279,-0.168,0.247,-69.088,15.145,-12.856
1747651580.94,-0.159,0.050,-0.044,1.249,-0.194,0.214,-68.357,14.879,-13.026
1747651580.95,-0.229,0.012,-0.135,1.176,-0.090,0.208,-67.656,14.644,-13.187
1747651580.96,-0.221,-0.015,-0.043,1.122,0.119,0.202,-66.995,14.526,-13.321
1747651580.97,-0.136,-0.039,0.041,1.188,0.336,0.216,-66.330,14.539,-13.448
1747651580.98,-0.007,-0.058,0.026,1.228,0.445,0.265,-65.624,14.674,-13.551
1747651580.99,0.097,-0.059,0.014,1.230,0.410,0.302,-64.905,14.873,-13.604
1747651581.00,0.124,-0.056,0.023,1.242,0.324,0.318,-64.176,15.062,-13.630
1747651581.01,0.117,-0.057,0.025,1.222,0.224,0.314,-63.449,15.199,-13.651
1747651581.02,0.074,-0.052,0.041,1.171,0.200,0.325,-62.740,15.309,-13.661
1747651581.03,0.031,-0.037,0.039,1.103,0.191,0.352,-62.064,15.450,-13.631
1747651581.04,0.016,-0.013,0.019,1.064,0.130,0.371,-61.412,15.605,-13.558
1747651581.05,0.018,0.016,-0.012,1.041,0.115,0.368,-60.778,15.748,-13.473
1747651581.06,0.037,0.045,0.005,1.073,0.102,0.340,-60.144,15.869,-13.407
1747651581.07,0.067,0.056,0.011,1.165,0.029,0.284,-59.481,15.904,-13.413
1747651581.08,0.090,0.040,-0.007,1.272,-0.071,0.264,-58.768,15.824,-13.492
1747651581.09,0.122,0.002,-0.009,1.318,-0.187,0.244,-58.013,15.652,-13.609
1747651581.10,0.149,-0.039,-0.016,1.316,-0.196,0.214,-57.253,15.413,-13.752
1747651581.11,0.144,-0.080,0.016,1.304,-0.108,0.222,-56.497,15.205,-13.898
1747651581.12,0.121,-0.118,0.072,1.218,-0.058,0.259,-55.764,15.078,-13.996
1747651581.13,0.070,-0.127,0.030,1.085,-0.030,0.297,-55.087,15.032,-14.023
1747651581.14,0.000,-0.113,-0.008,0.996,-0.071,0.313,-54.471,15.025,-14.002
1747651581.15,-0.054,-0.083,-0.050,0.975,-0.178,0.383,-53.877,15.021,-13.920
1747651581.16,-0.088,-0.032,-0.057,0.999,-0.240,0.370,-53.277,14.987,-13.809
1747651581.17,-0.094,0.047,-0.015,1.075,-0.212,0.281,-52.659,14.895,-13.762
1747651581.18,-0.071,0.128,0.005,1.188,-0.202,0.195,-51.999,14.737,-13.815
1747651581.19,-0.091,0.144,-0.011,1.300,-0.187,0.072,-51.292,14.493,-13.981
1747651581.20,-0.142,0.132,-0.008,1.380,-0.077,-0.070,-50.548,14.180,-14.284
1747651581.21,-0.160,0.123,0.034,1.367,0.078,-0.149,-49.803,13.876,-14.681
1747651581.22,-0.157,0.051,0.068,1.298,0.210,-0.103,-49.079,13.661,-15.076
1747651581.23,-0.110,-0.024,0.045,1.161,0.209,0.002,-48.402,13.565,-15.372
1747651581.24,-0.024,-0.074,0.015,1.015,0.158,0.131,-47.790,13.546,-15.536
1747651581.25,0.092,-0.080,0.011,0.933,0.110,0.246,-47.228,13.598,-15.569
1747651581.26,0.220,-0.066,0.072,0.955,-0.005,0.308,-46.668,13.659,-15.527
1747651581.27,0.288,-0.009,0.068,1.031,-0.168,0.338,-46.075,13.658,-15.461
1747651581.28,0.274,0.039,0.044,1.145,-0.299,0.341,-45.427,13.565,-15.398
1747651581.29,0.201,0.073,0.041,1.227,-0.362,0.309,-44.720,13.400,-15.365
1747651581.30,0.098,0.107,0.036,1.231,-0.383,0.235,-44.000,13.173,-15.380
1747651581.31,0.000,0.108,-0.004,1.187,-0.310,0.152,-43.300,12.928,-15.447
1747651581.32,-0.072,0.062,-0.021,1.099,-0.269,0.091,-42.648,12.691,-15.556
1747651581.33,-0.119,0.028,-0.039,0.984,-0.305,0.101,-42.057,12.460,-15.661
1747651581.34,-0.128,-0.007,-0.034,0.923,-0.326,0.161,-41.513,12.237,-15.719
1747651581.35,-0.085,-0.038,0.031,0.914,-0.300,0.222,-40.978,12.055,-15.723
1747651581.36,-0.028,-0.043,0.067,0.970,-0.261,0.246,-40.425,11.912,-15.695
1747651581.37,0.016,-0.006,0.040,1.050,-0.241,0.187,-39.832,11.783,-15.693
1747651581.38,0.015,0.038,0.005,1.125,-0.307,0.131,-39.206,11.596,-15.740
1747651581.39,0.001,0.073,-0.011,1.160,-0.354,0.050,-38.554,11.342,-15.780
1747651581.40,-0.018,0.077,0.006,1.174,-0.343,-0.033,-37.898,11.042,-15.938
1747651581.41,-0.015,0.037,0.037,1.143,-0.255,-0.061,-37.255,10.752,-16.134
1747651581.42,0.017,-0.020,0.018,1.099,-0.277,0.024,-36.627,10.504,-16.299
1747651581.43,0.060,-0.076,-0.037,1.035,-0.338,0.128,-36.020,10.280,-16.305
1747651581.44,0.059,-0.103,-0.003,0.974,-0.350,0.271,-35.435,10.089,-16.291
1747651581.45,0.064,-0.118,0.035,0.962,-0.276,0.336,-34.860,9.962,-16.110
1747651581.46,0.050,-0.062,0.058,1.009,-0.190,0.311,-34.275,9.891,-16.004
1747651581.47,0.012,0.004,0.036,1.077,-0.186,0.243,-33.661,9.825,-15.860
1747651581.48,-0.033,0.047,0.025,1.167,-0.223,0.143,-33.011,9.709,-15.858
1747651581.49,-0.066,0.052,0.067,1.222,-0.226,0.034,-32.330,9.536,-15.867
1747651581.50,-0.045,0.014,0.048,1.236,-0.167,-0.028,-31.635,9.352,-16.004
1747651581.51,0.019,-0.012,-0.005,1.156,-0.237,-0.036,-30.962,9.163,-16.117
1747651581.52,0.016,-0.013,-0.071,1.037,-0.374,0.061,-30.343,8.932,-16.229
1747651581.53,0.007,-0.013,-0.054,0.973,-0.424,0.186,-29.767,8.690,-16.231
1747651581.54,0.025,0.047,0.017,0.950,-0.280,0.258,-29.201,8.526,-16.186
1747651581.55,0.047,0.136,0.046,0.953,-0.173,0.320,-28.641,8.449,-16.071
1747651581.56,0.061,0.217,0.013,0.991,-0.208,0.297,-28.067,8.395,-15.964
1747651581.57,0.006,0.232,-0.024,1.059,-0.268,0.202,-27.467,8.287,-15.891
1747651581.58,-0.045,0.188,0.019,1.145,-0.302,0.085,-26.834,8.114,-15.902
1747651581.59,-0.045,0.095,0.024,1.188,-0.286,-0.018,-26.167,7.910,-15.994
1747651581.60,-0.045,-0.047,0.006,1.163,-0.239,-0.062,-25.505,7.700,-16.122
1747651581.61,-0.087,-0.168,0.007,1.106,-0.154,-0.096,-24.867,7.528,-16.263
1747651581.62,-0.140,-0.238,-0.031,1.022,-0.066,-0.095,-24.272,7.400,-16.411
1747651581.63,-0.185,-0.258,-0.089,0.933,0.032,-0.053,-23.725,7.340,-16.531
1747651581.64,-0.174,-0.197,-0.071,0.853,0.109,-0.008,-23.223,7.346,-16.620
1747651581.65,-0.108,-0.070,-0.007,0.844,0.162,0.007,-22.745,7.397,-16.697
1747651581.66,0.028,0.094,0.043,0.923,0.203,-0.088,-22.250,7.467,-16.793
1747651581.67,0.169,0.236,0.045,1.031,0.060,-0.132,-21.704,7.495,-16.962
1747651581.68,0.191,0.254,0.000,1.069,-0.162,-0.152,-21.117,7.402,-17.132
1747651581.69,0.106,0.189,-0.036,1.047,-0.282,-0.177,-20.528,7.206,-17.340
1747651581.70,0.019,0.076,-0.049,1.045,-0.220,-0.168,-19.947,6.992,-17.523
1747651581.71,-0.036,-0.047,-0.007,0.998,-0.060,-0.148,-19.377,6.855,-17.724
1747651581.72,-0.072,-0.153,-0.034,0.888,0.041,-0.108,-18.850,6.805,-17.870
1747651581.72,-0.064,-0.186,-0.111,0.788,0.045,-0.041,-18.382,6.797,-18.008
1747651581.74,0.008,-0.136,-0.124,0.745,0.067,0.018,-17.950,6.809,-18.068
1747651581.75,0.113,-0.021,-0.032,0.719,0.019,0.068,-17.532,6.829,-18.131
1747651581.75,0.153,0.115,0.025,0.720,-0.074,0.035,-17.122,6.807,-18.153
1747651581.77,0.145,0.209,-0.008,0.734,-0.145,0.072,-16.705,6.736,-18.206
1747651581.78,0.110,0.184,-0.023,0.742,-0.146,0.115,-16.280,6.652,-18.202
1747651581.78,0.045,0.092,-0.026,0.731,-0.115,0.128,-15.854,6.583,-18.217
1747651581.80,-0.015,0.010,-0.058,0.695,-0.041,0.110,-15.441,6.542,-18.194
1747651581.80,-0.044,-0.062,-0.078,0.657,0.065,0.077,-15.052,6.553,-18.233
1747651581.82,-0.031,-0.120,-0.079,0.606,0.078,0.062,-14.689,6.597,-18.268
1747651581.82,-0.013,-0.164,-0.103,0.564,0.014,0.095,-14.353,6.626,-18.263
1747651581.84,0.013,-0.141,-0.056,0.538,-0.042,0.116,-14.035,6.622,-18.267
1747651581.84,0.068,-0.049,0.016,0.535,-0.072,0.126,-13.724,6.598,-18.232
1747651581.85,0.137,0.048,0.068,0.568,-0.138,0.132,-13.403,6.549,-18.217
1747651581.86,0.139,0.119,0.049,0.584,-0.202,0.155,-13.065,6.462,-18.172
1747651581.87,0.093,0.107,-0.039,0.553,-0.232,0.189,-12.731,6.350,-18.133
1747651581.88,0.054,0.042,-0.071,0.544,-0.188,0.188,-12.410,6.245,-18.058
1747651581.89,0.046,-0.013,-0.061,0.556,-0.103,0.185,-12.084,6.178,-18.014
1747651581.90,0.058,-0.050,-0.019,0.532,-0.069,0.165,-11.764,6.146,-17.947
1747651581.91,0.063,-0.075,-0.023,0.530,-0.088,0.179,-11.453,6.115,-17.918
1747651581.92,0.067,-0.102,-0.041,0.474,-0.122,0.195,-11.153,6.071,-17.840
1747651581.93,0.052,-0.093,-0.066,0.426,-0.163,0.221,-10.886,6.006,-17.782
1747651581.94,0.011,-0.058,-0.115,0.404,-0.106,0.245,-10.636,5.943,-17.672
1747651581.95,-0.069,0.015,-0.039,0.376,0.079,0.257,-10.400,5.956,-17.586
1747651581.96,-0.098,0.115,0.047,0.371,0.182,0.230,-10.173,6.058,-17.468
1747651581.97,-0.085,0.193,0.019,0.375,0.136,0.171,-9.950,6.169,-17.418
1747651581.98,-0.071,0.178,-0.047,0.373,0.042,0.112,-9.728,6.231,-17.360
1747651581.99,-0.048,0.081,-0.092,0.354,-0.082,0.050,-9.517,6.224,-17.383
1747651582.00,-0.032,-0.003,-0.104,0.354,-0.174,-0.023,-9.317,6.148,-17.394
1747651582.01,-0.040,-0.038,-0.077,0.346,-0.151,-0.059,-9.121,6.042,-17.499
1747651582.02,-0.050,-0.076,0.006,0.340,-0.072,-0.070,-8.929,5.971,-17.557
1747651582.03,-0.052,0.000,0.045,0.332,-0.017,-0.069,-8.742,5.938,-17.680
1747651582.04,-0.068,0.065,0.003,0.311,0.000,-0.071,-8.563,5.924,-17.739
1747651582.05,-0.095,0.091,-0.050,0.284,0.058,-0.078,-8.398,5.930,-17.851
1747651582.06,-0.101,0.068,-0.061,0.257,0.176,-0.089,-8.249,5.985,-17.914
1747651582.07,-0.062,0.022,-0.060,0.220,0.235,-0.117,-8.119,6.098,-18.042
1747651582.08,0.015,-0.015,-0.084,0.189,0.118,-0.125,-8.012,6.192,-18.124
1747651582.09,0.102,-0.044,-0.133,0.184,-0.046,-0.114,-7.914,6.202,-18.263
1747651582.10,0.176,-0.036,-0.120,0.179,-0.197,-0.072,-7.817,6.123,-18.329
1747651582.11,0.205,-0.008,-0.065,0.187,-0.320,-0.023,-7.717,5.968,-18.430
1747651582.12,0.138,0.040,-0.016,0.198,-0.319,0.020,-7.607,5.779,-18.442
1747651582.13,0.028,0.066,0.031,0.203,-0.163,0.041,-7.491,5.638,-18.500
1747651582.14,-0.053,0.032,0.058,0.192,0.031,0.054,-7.374,5.603,-18.484
1747651582.15,-0.090,-0.016,0.033,0.159,0.128,0.054,-7.271,5.656,-18.520
1747651582.16,-0.065,-0.044,-0.054,0.119,0.115,0.046,-7.188,5.730,-18.500
1747651582.17,0.010,-0.053,-0.107,0.075,0.084,0.049,-7.131,5.791,-18.536
1747651582.18,0.104,-0.042,-0.077,0.054,-0.010,0.061,-7.090,5.817,-18.508
1747651582.19,0.177,-0.014,-0.085,0.038,-0.147,0.071,-7.061,5.775,-18.527
1747651582.20,0.172,0.022,-0.066,0.042,-0.222,0.061,-7.034,5.671,-18.491
1747651582.21,0.099,0.043,-0.015,0.034,-0.221,0.047,-7.009,5.545,-18.522
1747651582.22,-0.005,0.021,0.018,0.005,-0.173,0.043,-6.997,5.433,-18.498
1747651582.23,-0.087,-0.036,-0.011,-0.027,-0.071,0.037,-7.000,5.365,-18.526
1747651582.24,-0.127,-0.081,-0.019,-0.086,0.033,0.020,-7.030,5.357,-18.507
1747651582.25,-0.076,-0.088,-0.070,-0.140,0.064,0.019,-7.094,5.390,-18.547
1747651582.26,0.026,-0.073,-0.146,-0.200,0.016,0.068,-7.188,5.420,-18.515
1747651582.27,0.123,-0.034,-0.149,-0.247,-0.093,0.154,-7.308,5.411,-18.485
1747651582.28,0.194,0.024,-0.163,-0.287,-0.225,0.173,-7.453,5.334,-18.375
1747651582.29,0.171,0.064,-0.164,-0.307,-0.283,0.139,-7.614,5.200,-18.310
1747651582.30,0.090,0.066,-0.140,-0.335,-0.250,0.087,-7.791,5.057,-18.229
1747651582.31,-0.010,0.036,-0.122,-0.371,-0.207,0.035,-7.987,4.935,-18.210
1747651582.32,-0.113,-0.007,-0.112,-0.455,-0.152,-0.006,-8.221,4.834,-18.181
1747651582.33,-0.173,-0.061,-0.119,-0.518,-0.039,-0.035,-8.499,4.779,-18.190
1747651582.34,-0.139,-0.098,-0.082,-0.588,0.071,-0.046,-8.814,4.791,-18.187
1747651582.35,-0.035,-0.062,-0.058,-0.651,0.077,-0.053,-9.171,4.837,-18.184
1747651582.36,0.052,0.014,-0.096,-0.690,0.033,-0.060,-9.557,4.870,-18.184
1747651582.37,0.081,0.051,-0.117,-0.728,0.003,-0.055,-9.964,4.880,-18.192
1747651582.38,0.071,0.046,-0.124,-0.772,-0.009,-0.057,-10.393,4.877,-18.187
1747651582.39,0.031,0.037,-0.138,-0.791,0.049,-0.068,-10.841,4.885,-18.196
1747651582.40,-0.016,0.023,-0.115,-0.832,0.169,-0.080,-11.306,4.946,-18.198
1747651582.41,-0.054,-0.001,-0.098,-0.883,0.192,-0.088,-11.797,5.052,-18.205
1747651582.42,-0.085,-0.039,-0.141,-0.973,0.184,-0.088,-12.328,5.157,-18.208
1747651582.43,-0.074,-0.059,-0.135,-1.055,0.216,-0.079,-12.910,5.271,-18.193
1747651582.44,-0.005,-0.060,-0.104,-1.120,0.210,-0.063,-13.532,5.399,-18.176
1747651582.45,0.059,-0.045,-0.081,-1.159,0.151,-0.055,-14.184,5.510,-18.134
1747651582.46,0.084,-0.014,-0.081,-1.180,0.065,-0.094,-14.853,5.578,-18.110
1747651582.47,0.061,0.025,-0.094,-1.185,-0.009,-0.146,-15.532,5.592,-18.096
1747651582.48,0.005,0.039,-0.079,-1.206,-0.006,-0.174,-16.219,5.577,-18.122
1747651582.49,-0.040,0.007,-0.059,-1.241,0.009,-0.147,-16.923,5.571,-18.105
1747651582.50,-0.047,-0.061,-0.065,-1.306,0.033,-0.086,-17.653,5.583,-18.100
1747651582.51,0.016,-0.129,-0.066,-1.383,0.135,-0.028,-18.420,5.643,-18.007
1747651582.52,0.108,-0.165,-0.032,-1.433,0.218,0.019,-19.223,5.774,-17.924
1747651582.53,0.143,-0.176,-0.028,-1.434,0.194,0.064,-20.037,5.933,-17.748
1747651582.54,0.128,-0.143,-0.053,-1.414,0.160,0.094,-20.841,6.080,-17.607
1747651582.55,0.086,-0.088,-0.014,-1.377,0.180,0.079,-21.628,6.230,-17.397
1747651582.56,0.017,-0.047,0.032,-1.361,0.174,0.019,-22.401,6.379,-17.274
1747651582.57,-0.075,-0.037,0.024,-1.385,0.128,-0.030,-23.179,6.500,-17.099
1747651582.58,-0.148,-0.058,-0.027,-1.411,0.153,-0.043,-23.975,6.608,-17.024
1747651582.59,-0.158,-0.097,-0.060,-1.460,0.197,-0.017,-24.789,6.742,-16.848
1747651582.60,-0.112,-0.116,-0.085,-1.522,0.257,0.010,-25.637,6.918,-16.738
1747651582.61,-0.032,-0.103,-0.026,-1.549,0.298,0.026,-26.507,7.135,-16.506
1747651582.62,0.041,-0.068,0.055,-1.539,0.294,0.019,-27.382,7.370,-16.366
1747651582.63,0.077,-0.023,0.055,-1.507,0.234,-0.007,-28.244,7.584,-16.124
1747651582.64,0.067,0.015,0.022,-1.493,0.119,-0.048,-29.093,7.740,-16.011
1747651582.65,0.029,0.020,0.002,-1.485,0.036,-0.085,-29.941,7.826,-15.808
1747651582.66,0.010,-0.011,-0.016,-1.491,0.007,-0.108,-30.789,7.873,-15.738
1747651582.67,0.010,-0.063,-0.023,-1.544,-0.008,-0.106,-31.655,7.907,-15.547
1747651582.68,0.019,-0.112,-0.045,-1.617,-0.020,-0.069,-32.555,7.946,-15.460
1747651582.69,0.031,-0.131,-0.041,-1.685,0.003,0.001,-33.493,8.010,-15.191
1747651582.70,0.051,-0.116,0.014,-1.708,0.069,0.076,-34.451,8.135,-15.001
1747651582.71,0.065,-0.062,0.048,-1.707,0.089,0.119,-35.408,8.319,-14.622
1747651582.72,0.046,0.005,0.023,-1.698,0.081,0.081,-36.362,8.516,-14.372
1747651582.73,-0.017,0.036,-0.004,-1.634,0.023,0.016,-37.299,8.672,-14.068
1747651582.74,-0.058,0.054,-0.058,-1.587,-0.008,-0.033,-38.207,8.777,-13.901
1747651582.75,-0.054,0.067,-0.045,-1.595,0.013,-0.070,-39.109,8.866,-13.759
1747651582.76,-0.033,0.036,0.009,-1.613,0.059,-0.142,-40.025,8.955,-13.652
1747651582.77,-0.044,-0.006,0.007,-1.615,0.088,-0.180,-40.949,9.042,-13.585
1747651582.78,-0.041,-0.055,0.016,-1.642,0.109,-0.143,-41.882,9.142,-13.515
1747651582.79,-0.015,-0.093,0.035,-1.692,0.202,-0.063,-42.829,9.315,-13.387
1747651582.80,0.023,-0.099,0.019,-1.730,0.274,-0.027,-43.799,9.586,-13.196
1747651582.81,0.021,-0.076,0.015,-1.708,0.277,-0.016,-44.769,9.895,-12.983
1747651582.82,-0.001,-0.043,0.006,-1.694,0.268,-0.005,-45.726,10.216,-12.748
1747651582.83,-0.037,-0.009,0.003,-1.647,0.292,-0.042,-46.668,10.543,-12.517
1747651582.84,-0.081,0.031,0.010,-1.607,0.222,-0.108,-47.587,10.835,-12.324
1747651582.85,-0.131,0.050,-0.032,-1.591,0.184,-0.190,-48.500,11.047,-12.190
1747651582.86,-0.145,0.037,-0.037,-1.587,0.249,-0.250,-49.414,11.228,-12.111
1747651582.87,-0.097,-0.005,-0.012,-1.584,0.285,-0.306,-50.333,11.409,-12.078
1747651582.88,-0.031,-0.054,-0.027,-1.594,0.244,-0.339,-51.259,11.558,-12.082
1747651582.89,0.035,-0.095,-0.014,-1.643,0.181,-0.340,-52.203,11.672,-12.091
1747651582.90,0.096,-0.115,0.043,-1.696,0.136,-0.316,-53.177,11.776,-12.075
1747651582.91,0.145,-0.110,0.051,-1.687,0.072,-0.292,-54.158,11.875,-12.026
1747651582.92,0.161,-0.085,0.016,-1.713,0.017,-0.250,-55.138,11.968,-11.941
1747651582.93,0.160,-0.045,0.012,-1.739,-0.031,-0.239,-56.132,12.066,-11.820
1747651582.94,0.141,-0.005,0.029,-1.722,-0.130,-0.225,-57.128,12.140,-11.679
1747651582.95,0.101,0.021,0.045,-1.670,-0.197,-0.216,-58.102,12.169,-11.530
1747651582.96,0.062,0.040,0.059,-1.646,-0.158,-0.212,-59.051,12.197,-11.375
1747651582.97,0.037,0.044,0.065,-1.653,-0.068,-0.239,-59.998,12.254,-11.235
1747651582.98,0.021,0.030,0.028,-1.662,-0.049,-0.231,-60.952,12.346,-11.092
1747651582.99,0.003,0.003,-0.023,-1.664,-0.059,-0.238,-61.907,12.451,-10.938
1747651583.00,-0.015,-0.017,-0.006,-1.675,-0.094,-0.257,-62.868,12.539,-10.791
1747651583.01,-0.018,-0.028,0.031,-1.699,-0.108,-0.282,-63.842,12.601,-10.654
1747651583.02,0.004,-0.029,0.039,-1.674,-0.051,-0.286,-64.819,12.659,-10.536
1747651583.03,0.037,-0.019,0.051,-1.621,0.009,-0.273,-65.772,12.761,-10.413
1747651583.04,0.049,0.002,0.030,-1.567,-0.010,-0.282,-66.695,12.866,-10.299
1747651583.05,0.015,0.016,-0.015,-1.549,-0.056,-0.259,-67.595,12.958,-10.177
1747651583.06,-0.035,0.001,0.005,-1.574,-0.071,-0.265,-68.496,13.064,-10.023
1747651583.07,-0.095,-0.027,0.011,-1.575,-0.092,-0.295,-69.410,13.136,-9.894
1747651583.08,-0.137,-0.066,-0.041,-1.561,-0.048,-0.314,-70.320,13.190,-9.790
1747651583.09,-0.125,-0.101,-0.064,-1.563,0.069,-0.358,-71.233,13.245,-9.736
1747651583.10,-0.071,-0.117,-0.039,-1.556,0.221,-0.339,-72.147,13.355,-9.711
1747651583.11,-0.006,-0.109,0.008,-1.549,0.266,-0.276,-73.050,13.613,-9.590
1747651583.12,0.036,-0.074,0.023,-1.497,0.292,-0.256,-73.932,13.978,-9.374
1747651583.13,0.056,-0.016,-0.015,-1.453,0.253,-0.293,-74.785,14.337,-9.168
1747651583.14,0.068,0.045,-0.037,-1.420,0.143,-0.310,-75.621,14.590,-9.021
1747651583.15,0.064,0.078,-0.024,-1.431,0.094,-0.338,-76.453,14.757,-8.920
1747651583.16,0.052,0.076,0.067,-1.447,-0.015,-0.345,-77.300,14.878,-8.821
1747651583.17,0.027,0.030,0.107,-1.400,-0.123,-0.313,-78.137,14.948,-8.705
1747651583.18,0.006,-0.041,0.038,-1.299,-0.047,-0.251,-78.925,15.124,-8.470
1747651583.19,0.001,-0.094,-0.015,-1.184,0.091,-0.203,-79.639,15.464,-8.137
1747651583.20,-0.019,-0.102,-0.025,-1.190,0.189,-0.202,-80.319,15.958,-7.719
1747651583.21,-0.068,-0.076,0.030,-1.258,0.265,-0.235,-81.024,16.560,-7.242
1747651583.22,-0.110,-0.030,0.079,-1.267,0.336,-0.287,-81.761,17.190,-6.776
1747651583.23,-0.120,0.009,0.069,-1.241,0.360,-0.301,-82.495,17.781,-6.384
1747651583.24,-0.106,0.034,0.049,-1.197,0.306,-0.289,-83.211,18.420,-5.931
1747651583.25,-0.088,0.036,0.052,-1.130,0.371,-0.283,-83.893,19.151,-5.386
1747651583.26,-0.063,0.022,0.048,-1.035,0.486,-0.298,-84.533,19.884,-4.894
1747651583.27,-0.031,-0.019,0.025,-0.957,0.553,-0.273,-85.121,20.647,-4.429
1747651583.28,-0.007,-0.073,0.010,-0.940,0.600,-0.246,-85.677,21.688,-3.712
1747651583.29,0.011,-0.097,-0.009,-0.929,0.664,-0.240,-86.224,23.130,-2.631
1747651583.30,0.019,-0.074,0.005,-0.879,0.584,-0.224,-86.750,24.959,-1.160
1747651583.31,0.007,-0.032,-0.014,-0.845,0.559,-0.205,-87.246,27.241,0.802
1747651583.32,0.008,0.007,0.010,-0.813,0.553,-0.171,-87.714,30.663,3.907
1747651583.33,0.028,0.027,0.043,-0.729,0.496,-0.157,-88.135,35.515,8.460
1747651583.34,0.032,0.021,0.008,-0.629,0.451,-0.148,-88.491,41.642,14.319
1747651583.35,0.031,0.006,-0.016,-0.572,0.404,-0.136,-88.788,49.811,22.246
1747651583.36,0.027,-0.022,-0.012,-0.517,0.338,-0.136,-89.029,61.254,33.478
1747651583.37,0.029,-0.038,-0.029,-0.452,0.254,-0.122,-89.199,76.404,48.461
1747651583.38,0.037,-0.029,-0.037,-0.381,0.171,-0.103,-89.285,94.096,66.032
1747651583.39,0.031,-0.005,-0.017,-0.308,0.073,-0.088,-89.297,110.745,82.611
1747651583.40,0.012,0.018,-0.026,-0.242,-0.064,-0.087,-89.269,123.627,95.489
1747651583.41,-0.007,0.030,-0.060,-0.201,-0.182,-0.109,-89.233,133.742,105.678
1747651583.42,-0.008,0.021,-0.063,-0.171,-0.157,-0.140,-89.202,142.791,114.830
1747651583.43,0.033,0.003,-0.030,-0.156,-0.131,-0.080,-89.161,150.106,122.227
1747651583.44,0.073,0.001,0.002,-0.140,-0.126,-0.016,-89.098,154.235,126.429
1747651583.45,0.072,0.009,-0.003,-0.071,-0.105,-0.001,-89.044,155.916,128.177
1747651583.46,0.038,0.021,-0.027,0.009,-0.067,0.005,-89.027,156.249,128.560
1747651583.47,0.013,0.018,-0.034,0.052,-0.020,0.021,-89.041,155.388,127.723
1747651583.48,-0.000,0.009,-0.031,0.075,0.029,0.039,-89.066,153.498,125.831
1747651583.49,-0.025,-0.004,0.007,0.060,0.002,0.053,-89.088,150.799,123.120
1747651583.50,-0.069,-0.020,0.054,0.021,-0.057,0.058,-89.093,148.448,120.785
1747651583.51,-0.110,-0.024,0.040,0.011,-0.039,0.042,-89.084,146.553,118.923
1747651583.52,-0.119,-0.008,0.027,0.005,0.087,-0.006,-89.081,145.715,118.071
1747651583.53,-0.084,0.009,0.052,-0.007,0.211,-0.013,-89.082,145.969,118.239
1747651583.54,-0.030,-0.004,0.070,-0.009,0.283,-0.010,-89.082,146.481,118.608
1747651583.55,-0.001,-0.008,0.073,0.021,0.274,-0.016,-89.088,146.823,118.790
1747651583.56,0.002,0.007,0.068,0.072,0.227,-0.024,-89.118,146.628,118.451
1747651583.57,-0.004,0.022,0.053,0.130,0.172,-0.005,-89.172,145.175,116.885
1747651583.58,-0.004,0.024,0.022,0.188,0.141,0.028,-89.240,141.306,112.927
1747651583.59,-0.004,0.015,0.020,0.211,0.106,0.059,-89.312,134.419,105.968
1747651583.60,-0.010,0.006,0.032,0.230,0.078,0.063,-89.368,124.591,96.088
1747651583.61,-0.014,-0.004,0.033,0.263,0.071,0.052,-89.411,112.302,83.754
1747651583.62,-0.007,-0.012,0.037,0.293,0.063,0.067,-89.420,97.256,68.669
1747651583.63,0.006,-0.005,0.066,0.320,0.011,0.097,-89.371,81.485,52.873
1747651583.64,-0.004,0.013,0.073,0.340,-0.073,0.105,-89.266,68.116,39.522
1747651583.65,-0.041,0.016,0.059,0.357,-0.088,0.070,-89.133,57.410,28.863
1747651583.66,-0.063,0.009,0.068,0.368,-0.056,0.045,-88.986,48.684,20.179
1747651583.67,-0.050,-0.005,0.069,0.395,-0.023,0.033,-88.822,41.555,13.071
1747651583.68,-0.017,-0.017,0.051,0.434,-0.016,0.032,-88.626,35.571,7.096
1747651583.69,0.022,-0.018,0.030,0.497,-0.033,0.035,-88.395,30.533,2.070
1747651583.70,0.064,-0.008,0.001,0.565,-0.112,0.092,-88.112,26.710,-1.714
1747651583.71,0.101,0.007,-0.006,0.612,-0.229,0.170,-87.774,24.436,-3.893
1747651583.72,0.088,0.019,0.024,0.624,-0.358,0.211,-87.405,23.292,-4.868
1747651583.73,0.018,0.021,0.058,0.617,-0.400,0.186,-87.033,22.444,-5.496
1747651583.74,-0.052,0.010,0.069,0.625,-0.380,0.117,-86.673,21.285,-6.434
1747651583.75,-0.076,-0.010,0.055,0.671,-0.306,0.068,-86.310,19.778,-7.744
1747651583.76,-0.056,-0.025,0.045,0.718,-0.199,0.050,-85.924,18.192,-9.188
1747651583.77,-0.020,-0.031,0.063,0.785,-0.139,0.063,-85.505,16.788,-10.504
1747651583.78,0.015,-0.025,0.038,0.866,-0.239,0.115,-85.039,15.675,-11.519
1747651583.79,0.034,0.000,-0.023,0.947,-0.407,0.149,-84.519,14.803,-12.207
1747651583.80,0.027,0.033,-0.033,1.007,-0.430,0.174,-83.955,14.072,-12.693
1747651583.81,0.005,0.052,0.003,1.016,-0.333,0.211,-83.365,13.558,-12.994
1747651583.82,-0.014,0.033,0.112,0.999,-0.361,0.246,-82.776,13.302,-13.056
1747651583.83,-0.058,-0.009,0.129,0.999,-0.399,0.244,-82.190,13.134,-13.002
1747651583.84,-0.096,-0.044,0.083,1.028,-0.339,0.234,-81.595,12.937,-12.986
1747651583.85,-0.108,-0.063,0.083,1.055,-0.280,0.240,-80.986,12.757,-12.991
1747651583.86,-0.129,-0.058,0.078,1.084,-0.229,0.229,-80.359,12.599,-13.002
1747651583.87,-0.150,-0.019,0.012,1.096,-0.074,0.169,-79.726,12.380,-13.131
1747651583.88,-0.138,0.027,-0.033,1.113,0.199,0.103,-79.095,12.099,-13.451
1747651583.89,-0.077,0.066,-0.026,1.173,0.378,0.122,-78.446,11.881,-13.849
1747651583.90,-0.006,0.077,0.021,1.202,0.354,0.229,-77.759,11.891,-14.060
1747651583.91,0.010,0.047,0.061,1.130,0.208,0.310,-77.071,12.118,-13.994
1747651583.92,-0.049,-0.004,0.079,1.061,0.092,0.319,-76.425,12.393,-13.796
1747651583.93,-0.109,-0.069,0.054,1.100,0.159,0.295,-75.786,12.610,-13.638
1747651583.94,-0.086,-0.132,0.025,1.140,0.348,0.294,-75.123,12.837,-13.552
1747651583.95,0.008,-0.169,0.042,1.161,0.517,0.346,-74.443,13.193,-13.443
1747651583.96,0.099,-0.148,0.041,1.227,0.533,0.416,-73.729,13.686,-13.248
1747651583.97,0.148,-0.079,-0.016,1.299,0.398,0.426,-72.970,14.167,-13.027
1747651583.98,0.143,0.002,-0.043,1.264,0.249,0.360,-72.198,14.468,-12.905
1747651583.99,0.117,0.069,-0.017,1.169,0.134,0.257,-71.484,14.565,-12.915
1747651584.00,0.070,0.089,0.022,1.117,0.019,0.214,-70.820,14.500,-13.030
1747651584.01,0.007,0.054,-0.034,1.072,-0.091,0.252,-70.181,14.396,-13.119
1747651584.02,-0.048,-0.002,-0.030,1.032,-0.126,0.287,-69.562,14.338,-13.111
1747651584.03,-0.065,-0.048,-0.004,1.024,-0.102,0.293,-68.953,14.315,-13.067
1747651584.04,-0.031,-0.065,-0.007,1.032,-0.105,0.320,-68.341,14.318,-13.002
1747651584.05,0.042,-0.063,-0.034,1.089,-0.121,0.337,-67.711,14.336,-12.909
1747651584.06,0.117,-0.044,-0.061,1.225,-0.014,0.312,-67.025,14.336,-12.863
1747651584.07,0.161,-0.015,-0.057,1.338,0.067,0.252,-66.276,14.298,-12.927
1747651584.08,0.120,0.008,0.001,1.351,0.015,0.228,-65.493,14.190,-13.073
1747651584.09,0.003,0.008,0.024,1.183,0.026,0.258,-64.754,14.098,-13.181
1747651584.10,-0.110,-0.012,0.122,1.061,0.162,0.318,-64.098,14.158,-13.173
1747651584.11,-0.190,-0.030,0.144,1.027,0.206,0.364,-63.471,14.358,-13.074
1747651584.12,-0.248,-0.021,-0.001,0.938,0.223,0.394,-62.871,14.615,-12.920
1747651584.13,-0.207,0.005,-0.023,0.850,0.335,0.389,-62.323,14.943,-12.727
1747651584.14,-0.052,0.025,0.063,0.934,0.397,0.368,-61.780,15.305,-12.562
1747651584.15,0.107,0.028,0.033,1.058,0.250,0.328,-61.177,15.573,-12.474
1747651584.16,0.184,0.033,-0.055,1.167,0.040,0.248,-60.521,15.633,-12.496
1747651584.17,0.178,0.041,-0.088,1.280,-0.101,0.164,-59.814,15.482,-12.649
1747651584.18,0.125,0.032,-0.073,1.304,-0.244,0.109,-59.080,15.177,-12.888
1747651584.19,0.031,0.002,-0.097,1.278,-0.199,0.087,-58.352,14.809,-13.156
1747651584.20,-0.046,-0.046,-0.109,1.174,0.092,0.105,-57.658,14.573,-13.395
1747651584.21,-0.079,-0.099,0.033,1.057,0.286,0.166,-57.023,14.556,-13.554
1747651584.22,-0.124,-0.139,0.072,0.957,0.202,0.280,-56.436,14.669,-13.596
1747651584.23,-0.141,-0.151,-0.064,0.876,0.047,0.389,-55.881,14.816,-13.500
1747651584.24,-0.025,-0.122,-0.050,0.848,0.035,0.452,-55.346,14.991,-13.310
1747651584.25,0.189,-0.062,0.092,0.913,0.088,0.464,-54.795,15.204,-13.093
1747651584.26,0.351,0.003,0.129,1.076,0.086,0.420,-54.185,15.394,-12.926
1747651584.27,0.371,0.066,0.087,1.253,-0.099,0.343,-53.483,15.442,-12.871
1747651584.28,0.235,0.106,-0.020,1.308,-0.362,0.241,-52.730,15.263,-12.927
1747651584.29,0.040,0.108,-0.108,1.276,-0.417,0.161,-51.985,14.925,-13.062
1747651584.30,-0.108,0.074,-0.045,1.176,-0.326,0.093,-51.288,14.573,-13.238
1747651584.31,-0.211,0.017,0.059,1.118,-0.270,0.065,-50.646,14.255,-13.432
1747651584.32,-0.232,-0.050,0.010,1.035,-0.221,0.104,-50.036,13.986,-13.598
1747651584.33,-0.157,-0.095,-0.014,0.937,-0.108,0.197,-49.470,13.827,-13.681
1747651584.34,-0.033,-0.103,0.069,0.915,0.023,0.281,-48.927,13.813,-13.667
1747651584.35,0.103,-0.076,0.091,0.953,0.098,0.326,-48.368,13.899,-13.605
1747651584.36,0.195,-0.025,0.096,1.032,0.058,0.330,-47.774,14.002,-13.535
1747651584.37,0.212,0.049,0.070,1.140,-0.080,0.333,-47.126,14.034,-13.485
1747651584.38,0.158,0.094,0.010,1.217,-0.223,0.301,-46.427,13.961,-13.465
1747651584.39,0.079,0.131,-0.006,1.234,-0.300,0.236,-45.708,13.787,-13.492
1747651584.40,0.011,0.144,0.023,1.221,-0.263,0.170,-45.000,13.571,-13.567
1747651584.41,-0.051,0.115,0.038,1.160,-0.243,0.101,-44.317,13.347,-13.684
1747651584.42,-0.110,0.061,-0.053,1.039,-0.318,0.087,-43.694,13.094,-13.817
1747651584.43,-0.120,-0.005,-0.084,0.947,-0.355,0.147,-43.129,12.837,-13.902
1747651584.44,-0.094,-0.081,-0.020,0.910,-0.243,0.210,-42.591,12.648,-13.924
1747651584.45,-0.073,-0.096,0.080,0.922,-0.040,0.206,-42.056,12.574,-13.917
1747651584.46,-0.071,-0.031,0.125,0.983,0.026,0.168,-41.504,12.565,-13.935
1747651584.47,-0.093,0.060,0.061,1.052,0.000,0.124,-40.919,12.533,-13.995
1747651584.48,-0.117,0.127,0.002,1.105,-0.013,0.066,-40.305,12.458,-14.101
1747651584.49,-0.106,0.160,0.006,1.148,-0.013,0.008,-39.672,12.356,-14.256
1747651584.50,-0.057,0.160,0.067,1.192,-0.042,-0.015,-39.020,12.224,-14.442
1747651584.51,0.018,0.129,0.059,1.210,-0.097,-0.075,-38.351,12.047,-14.660
1747651584.52,0.070,0.085,-0.044,1.141,-0.154,-0.075,-37.703,11.835,-14.892
1747651584.53,0.100,-0.004,-0.071,1.065,-0.206,-0.022,-37.093,11.612,-15.088
1747651584.54,0.112,-0.091,-0.037,1.010,-0.264,0.050,-36.511,11.396,-15.226
1747651584.55,0.101,-0.131,-0.003,0.989,-0.217,0.107,-35.943,11.205,-15.307
1747651584.56,0.075,-0.087,0.046,1.011,-0.143,0.114,-35.372,11.070,-15.366
1747651584.57,0.026,-0.009,0.055,1.031,-0.104,0.097,-34.788,10.964,-15.399
1747651584.58,-0.033,0.058,0.052,1.093,-0.145,0.066,-34.185,10.848,-15.483
1747651584.59,-0.077,0.103,0.054,1.132,-0.222,0.031,-33.555,10.682,-15.531
1747651584.60,-0.064,0.121,0.057,1.153,-0.314,-0.012,-32.911,10.456,-15.667
1747651584.61,-0.008,0.088,0.002,1.118,-0.395,-0.038,-32.274,10.167,-15.751
1747651584.62,0.037,0.047,-0.076,1.067,-0.395,-0.008,-31.663,9.861,-15.898
1747651584.63,0.049,-0.003,-0.112,1.038,-0.378,0.065,-31.068,9.587,-15.940
1747651584.64,-0.006,-0.067,-0.080,0.989,-0.293,0.139,-30.487,9.370,-15.982
1747651584.65,-0.079,-0.060,0.014,0.939,-0.115,0.135,-29.931,9.247,-15.927
1747651584.66,-0.113,0.012,0.045,0.938,0.018,0.077,-29.396,9.209,-15.956
1747651584.67,-0.133,0.072,0.042,0.989,0.017,0.008,-28.844,9.201,-15.994
1747651584.68,-0.113,0.104,-0.002,1.018,-0.120,0.019,-28.278,9.128,-16.089
1747651584.69,-0.047,0.109,-0.019,1.027,-0.260,-0.027,-27.701,8.970,-16.165
1747651584.70,-0.004,0.073,0.005,0.989,-0.325,-0.088,-27.136,8.737,-16.300
1747651584.71,0.022,-0.005,-0.017,0.989,-0.323,-0.146,-26.590,8.477,-16.440
1747651584.72,0.001,-0.077,-0.073,0.956,-0.233,-0.121,-26.051,8.240,-16.617
1747651584.72,-0.043,-0.135,-0.050,0.880,-0.189,-0.058,-25.537,8.058,-16.744
1747651584.74,-0.087,-0.180,-0.028,0.814,-0.071,-0.041,-25.063,7.939,-16.843
1747651584.75,-0.066,-0.143,-0.009,0.802,0.109,-0.044,-24.613,7.906,-16.931
1747651584.75,0.014,-0.070,0.047,0.838,0.225,-0.074,-24.155,7.965,-17.036
1747651584.77,0.099,0.004,0.056,0.886,0.090,-0.063,-23.673,8.013,-17.141
1747651584.77,0.176,0.054,-0.004,0.892,-0.116,0.029,-23.169,7.970,-17.224
1747651584.79,0.217,0.067,-0.020,0.912,-0.242,-0.038,-22.659,7.835,-17.308
1747651584.80,0.232,0.057,0.010,0.872,-0.322,-0.005,-22.155,7.638,-17.396
1747651584.81,0.216,-0.011,0.018,0.873,-0.276,0.065,-21.661,7.444,-17.456
1747651584.81,0.175,-0.062,0.024,0.836,-0.166,0.133,-21.167,7.314,-17.463
1747651584.82,0.127,-0.080,0.004,0.766,-0.134,0.186,-20.703,7.246,-17.451
1747651584.83,0.091,-0.053,-0.043,0.731,-0.154,0.258,-20.265,7.189,-17.373
1747651584.84,0.063,0.022,-0.069,0.711,-0.074,0.301,-19.837,7.161,-17.274
1747651584.85,0.020,0.105,-0.011,0.723,0.039,0.319,-19.410,7.196,-17.142
1747651584.86,-0.016,0.160,0.006,0.742,0.065,0.304,-18.973,7.274,-17.029
1747651584.87,-0.019,0.172,-0.045,0.755,0.018,0.267,-18.527,7.335,-16.915
1747651584.88,-0.017,0.131,-0.068,0.783,-0.051,0.217,-18.073,7.354,-16.845
1747651584.90,-0.026,0.043,-0.057,0.751,-0.094,0.159,-17.623,7.326,-16.792
1747651584.90,-0.038,-0.044,-0.021,0.723,-0.075,0.108,-17.195,7.284,-16.793
1747651584.91,-0.032,-0.078,-0.003,0.675,-0.052,0.089,-16.792,7.248,-16.788
1747651584.92,-0.003,-0.062,-0.013,0.641,-0.034,0.094,-16.414,7.228,-16.809
1747651584.93,0.007,-0.019,-0.017,0.613,-0.102,0.104,-16.049,7.193,-16.797
1747651584.94,-0.038,0.051,-0.058,0.583,-0.151,0.111,-15.703,7.124,-16.804
1747651584.95,-0.074,0.085,-0.101,0.561,-0.133,0.115,-15.371,7.047,-16.779
1747651584.96,-0.078,0.075,-0.056,0.541,-0.061,0.106,-15.051,6.997,-16.796
1747651584.97,-0.032,0.057,-0.020,0.532,-0.028,0.057,-14.742,6.977,-16.786
1747651584.98,0.012,0.033,-0.033,0.532,-0.061,0.027,-14.437,6.950,-16.836
1747651584.99,0.009,-0.004,-0.042,0.537,-0.095,-0.000,-14.135,6.896,-16.867
1747651585.00,-0.018,-0.042,-0.029,0.572,-0.076,-0.036,-13.821,6.832,-16.944
1747651585.01,-0.023,-0.081,0.003,0.577,-0.033,-0.066,-13.496,6.784,-17.014
1747651585.02,-0.001,-0.100,0.012,0.542,0.014,-0.078,-13.185,6.761,-17.129
1747651585.03,0.022,-0.094,-0.031,0.502,0.031,-0.064,-12.894,6.759,-17.208
1747651585.04,0.018,-0.059,-0.061,0.428,0.018,-0.030,-12.634,6.758,-17.303
1747651585.05,-0.012,-0.012,-0.109,0.382,0.056,-0.007,-12.406,6.771,-17.341
1747651585.06,-0.016,0.001,-0.095,0.347,0.070,0.021,-12.199,6.804,-17.398
1747651585.07,0.027,-0.009,-0.040,0.339,0.041,0.032,-12.004,6.837,-17.406
1747651585.08,0.133,0.006,-0.010,0.365,-0.064,0.013,-11.803,6.830,-17.452
1747651585.09,0.192,0.048,-0.004,0.402,-0.158,0.024,-11.584,6.762,-17.470
1747651585.10,0.147,0.046,-0.000,0.440,-0.158,0.058,-11.343,6.667,-17.523
