Time,AccX,AccY,AccZ,GyroX,GyroY,GyroZ,Pitch,Roll,Yaw
1747653215.54,-0.006,-0.013,-0.004,0.002,0.016,-0.010,-87.270,-35.990,-18.772
1747653215.55,-0.016,-0.010,0.005,0.008,0.009,-0.008,-87.261,-36.002,-18.792
1747653215.56,-0.022,-0.006,0.008,0.003,0.004,-0.012,-87.252,-36.032,-18.824
1747653215.57,-0.020,-0.001,0.014,-0.012,0.004,-0.014,-87.250,-36.167,-18.961
1747653215.58,-0.018,0.018,0.011,-0.005,0.016,-0.020,-87.249,-36.380,-19.180
1747653215.59,-0.016,0.031,0.008,0.001,0.023,-0.024,-87.243,-36.607,-19.420
1747653215.60,-0.017,0.018,0.012,-0.006,0.026,-0.030,-87.236,-36.875,-19.703
1747653215.61,-0.025,-0.003,0.004,-0.020,0.050,-0.045,-87.228,-37.264,-20.111
1747653215.62,-0.033,-0.011,-0.001,-0.064,0.088,-0.082,-87.225,-38.191,-21.082
1747653215.63,-0.037,-0.014,0.002,-0.049,0.075,-0.062,-87.223,-39.296,-22.235
1747653215.64,-0.033,-0.007,0.014,-0.038,0.059,-0.032,-87.224,-40.037,-23.015
1747653215.65,-0.023,0.001,0.012,-0.039,0.057,-0.029,-87.230,-40.610,-23.620
1747653215.66,-0.003,-0.003,0.008,-0.051,0.077,-0.027,-87.239,-41.204,-24.254
1747653215.67,0.023,-0.018,0.004,-0.060,0.058,-0.014,-87.254,-41.812,-24.902
1747653215.68,0.043,-0.029,-0.010,-0.057,0.040,0.002,-87.278,-42.340,-25.458
1747653215.69,0.060,-0.026,-0.021,-0.047,0.038,0.014,-87.302,-42.674,-25.815
1747653215.70,0.065,-0.014,-0.021,-0.029,0.017,0.025,-87.323,-42.818,-25.976
1747653215.71,0.053,0.000,-0.027,-0.024,-0.009,0.030,-87.343,-42.787,-25.947
1747653215.72,0.035,0.010,-0.033,-0.007,-0.033,0.036,-87.362,-42.655,-25.803
1747653215.73,0.015,0.012,-0.039,0.021,-0.051,0.032,-87.371,-42.367,-25.490
1747653215.74,0.003,-0.004,-0.036,0.043,-0.038,0.035,-87.371,-41.812,-24.908
1747653215.75,-0.003,-0.025,-0.023,0.043,-0.018,0.043,-87.368,-41.102,-24.181
1747653215.76,-0.009,-0.017,-0.016,0.042,0.004,0.051,-87.369,-40.276,-23.350
1747653215.77,-0.020,-0.000,-0.011,0.037,0.010,0.059,-87.373,-39.361,-22.438
1747653215.78,-0.033,0.016,-0.014,0.038,0.006,0.047,-87.377,-38.495,-21.576
1747653215.79,-0.032,0.018,-0.011,0.029,0.008,0.041,-87.377,-37.732,-20.817
1747653215.80,-0.014,0.005,0.002,0.004,0.022,0.043,-87.384,-37.127,-20.219
1747653215.81,0.002,-0.007,0.016,-0.009,0.044,0.042,-87.399,-36.683,-19.793
1747653215.82,0.008,-0.013,0.016,-0.013,0.039,0.025,-87.415,-36.380,-19.514
1747653215.83,0.008,-0.012,0.019,-0.011,0.013,0.007,-87.424,-36.282,-19.431
1747653215.84,0.015,-0.011,0.019,-0.009,-0.014,0.006,-87.429,-36.294,-19.442
1747653215.85,0.025,-0.007,0.021,-0.005,-0.036,-0.001,-87.432,-36.360,-19.492
1747653215.86,0.023,0.006,0.011,0.003,-0.050,-0.017,-87.426,-36.530,-19.638
1747653215.87,0.015,0.021,-0.002,0.005,-0.058,-0.029,-87.412,-36.825,-19.903
1747653215.88,0.003,0.024,-0.002,-0.006,-0.091,-0.033,-87.400,-37.254,-20.289
1747653215.89,-0.012,0.019,-0.009,-0.005,-0.111,-0.035,-87.392,-37.738,-20.715
1747653215.90,-0.017,0.007,-0.020,0.009,-0.105,-0.029,-87.382,-38.112,-21.028
1747653215.91,-0.013,-0.011,-0.018,0.008,-0.073,-0.007,-87.374,-38.259,-21.122
1747653215.92,-0.007,-0.024,0.002,-0.013,-0.047,0.010,-87.379,-38.286,-21.116
1747653215.93,-0.014,-0.028,0.002,-0.015,-0.035,0.007,-87.393,-38.317,-21.124
1747653215.94,-0.026,-0.023,-0.011,-0.016,-0.024,0.001,-87.404,-38.377,-21.168
1747653215.95,-0.026,-0.007,-0.017,-0.022,-0.011,-0.003,-87.414,-38.498,-21.279
1747653215.96,-0.022,0.019,-0.017,-0.019,0.009,-0.012,-87.421,-38.709,-21.490
1747653215.97,-0.017,0.033,-0.010,-0.010,0.018,-0.016,-87.420,-38.947,-21.737
1747653215.98,-0.006,0.028,-0.005,0.008,0.011,-0.007,-87.413,-39.053,-21.851
1747653215.99,0.003,0.013,-0.007,0.008,0.001,-0.001,-87.405,-39.017,-21.818
1747653216.00,0.006,-0.005,0.001,0.002,-0.001,0.001,-87.401,-39.008,-21.809
1747653216.01,0.006,-0.016,0.009,-0.009,-0.012,0.009,-87.403,-39.024,-21.821
1747653216.02,-0.003,-0.023,0.013,-0.030,-0.026,0.011,-87.412,-39.100,-21.886
1747653216.03,-0.018,-0.021,0.020,-0.048,-0.044,0.010,-87.431,-39.348,-22.113
1747653216.04,-0.019,-0.018,0.008,-0.045,-0.039,0.010,-87.452,-39.676,-22.416
1747653216.05,-0.009,-0.010,-0.003,-0.033,-0.033,0.005,-87.470,-39.962,-22.682
1747653216.06,-0.004,-0.001,-0.009,-0.022,-0.037,-0.003,-87.481,-40.221,-22.920
1747653216.07,0.003,0.001,-0.010,-0.007,-0.033,-0.011,-87.485,-40.428,-23.107
1747653216.08,0.010,0.006,-0.010,0.021,-0.040,-0.011,-87.478,-40.499,-23.158
1747653216.09,0.010,0.021,-0.025,0.051,-0.058,-0.014,-87.458,-40.351,-22.982
1747653216.10,0.002,0.031,-0.033,0.066,-0.083,-0.013,-87.428,-40.081,-22.671
1747653216.11,-0.002,0.029,-0.027,0.058,-0.093,-0.003,-87.398,-39.769,-22.307
1747653216.12,0.001,0.014,-0.005,0.044,-0.082,0.014,-87.378,-39.393,-21.880
1747653216.13,-0.006,-0.010,0.013,0.050,-0.057,0.015,-87.363,-38.928,-21.375
1747653216.14,-0.020,-0.029,0.019,0.046,-0.029,0.016,-87.346,-38.432,-20.853
1747653216.15,-0.030,-0.034,0.025,0.021,0.006,0.020,-87.337,-38.002,-20.416
1747653216.16,-0.032,-0.024,0.026,-0.003,0.040,0.024,-87.342,-37.675,-20.102
1747653216.17,-0.034,-0.005,0.023,-0.025,0.045,0.026,-87.355,-37.469,-19.921
1747653216.18,-0.024,0.010,0.023,-0.034,0.049,0.022,-87.375,-37.369,-19.848
1747653216.19,-0.006,0.016,0.017,-0.026,0.035,0.008,-87.393,-37.373,-19.877
1747653216.20,0.013,0.015,0.004,-0.017,0.020,-0.004,-87.403,-37.510,-20.030
1747653216.21,0.031,0.006,0.006,-0.012,0.011,-0.011,-87.408,-37.717,-20.247
1747653216.22,0.039,0.005,0.005,-0.010,-0.019,-0.017,-87.408,-38.019,-20.547
1747653216.23,0.037,0.008,-0.016,-0.009,-0.052,-0.026,-87.404,-38.414,-20.921
1747653216.24,0.030,0.009,-0.018,-0.021,-0.065,-0.025,-87.401,-38.888,-21.362
1747653216.25,0.023,0.007,-0.003,-0.027,-0.050,-0.016,-87.405,-39.379,-21.819
1747653216.26,0.013,0.000,0.011,-0.023,-0.022,-0.008,-87.411,-39.777,-22.197
1747653216.27,-0.001,-0.011,0.016,-0.024,-0.007,0.005,-87.421,-40.014,-22.427
1747653216.28,-0.007,-0.023,0.010,-0.034,0.003,0.016,-87.438,-40.144,-22.556
1747653216.29,-0.000,-0.027,0.012,-0.047,-0.004,0.027,-87.466,-40.227,-22.639
1747653216.30,0.008,-0.024,0.013,-0.061,-0.035,0.028,-87.503,-40.360,-22.762
1747653216.31,0.012,-0.015,0.007,-0.055,-0.070,0.018,-87.538,-40.590,-22.961
1747653216.32,0.024,-0.011,0.001,-0.035,-0.099,0.005,-87.562,-40.829,-23.152
1747653216.33,0.043,-0.014,0.002,-0.011,-0.120,0.001,-87.574,-41.009,-23.270
1747653216.34,0.051,-0.010,-0.002,0.027,-0.153,-0.006,-87.572,-41.045,-23.228
1747653216.35,0.037,0.006,-0.012,0.070,-0.186,-0.012,-87.548,-40.811,-22.898
1747653216.36,0.007,0.028,-0.021,0.104,-0.205,-0.009,-87.506,-40.317,-22.292
1747653216.37,-0.027,0.039,-0.024,0.131,-0.223,-0.008,-87.452,-39.567,-21.417
1747653216.38,-0.055,0.032,-0.030,0.146,-0.200,-0.005,-87.388,-38.657,-20.382
1747653216.39,-0.061,0.012,-0.016,0.128,-0.121,0.007,-87.327,-37.687,-19.317
1747653216.40,-0.052,-0.010,0.012,0.097,-0.024,0.019,-87.280,-36.761,-18.349
1747653216.41,-0.045,-0.022,0.023,0.083,0.060,0.030,-87.248,-35.849,-17.446
1747653216.42,-0.047,-0.013,0.037,0.069,0.125,0.030,-87.223,-34.945,-16.595
1747653216.43,-0.057,-0.000,0.057,0.042,0.139,0.026,-87.207,-34.190,-15.917
1747653216.44,-0.061,0.003,0.060,0.034,0.125,0.018,-87.196,-33.645,-15.448
1747653216.45,-0.052,-0.003,0.046,0.034,0.101,0.009,-87.184,-33.240,-15.106
1747653216.46,-0.028,-0.007,0.034,0.036,0.095,0.016,-87.169,-32.886,-14.807
1747653216.47,0.006,-0.004,0.033,0.044,0.098,0.021,-87.155,-32.429,-14.406
1747653216.48,0.022,0.006,0.025,0.071,0.071,0.019,-87.134,-31.868,-13.893
1747653216.49,0.020,0.016,0.007,0.109,0.028,0.006,-87.093,-31.226,-13.278
1747653216.50,0.010,0.020,-0.010,0.153,0.011,-0.007,-87.028,-30.518,-12.578
1747653216.51,0.001,0.018,-0.017,0.196,0.006,-0.013,-86.940,-29.756,-11.818
1747653216.52,-0.001,0.013,-0.023,0.232,0.024,-0.013,-86.830,-28.854,-10.923
1747653216.53,-0.000,0.011,-0.025,0.238,0.038,-0.009,-86.709,-27.858,-9.943
1747653216.54,-0.009,0.006,-0.018,0.233,0.041,-0.003,-86.588,-26.858,-8.964
1747653216.55,-0.019,-0.007,-0.013,0.229,0.051,0.008,-86.473,-25.850,-7.981
1747653216.56,-0.020,-0.023,-0.021,0.232,0.049,0.017,-86.359,-24.815,-6.973
1747653216.57,-0.012,-0.031,-0.032,0.244,0.044,0.028,-86.242,-23.742,-5.924
1747653216.58,0.008,-0.031,-0.026,0.276,0.069,0.039,-86.115,-22.590,-4.801
1747653216.59,0.029,-0.024,-0.020,0.326,0.090,0.059,-85.964,-21.246,-3.498
1747653216.60,0.034,-0.011,-0.021,0.374,0.120,0.072,-85.789,-19.728,-2.036
1747653216.61,0.025,0.001,-0.015,0.395,0.125,0.078,-85.592,-18.163,-0.539
1747653216.62,0.008,0.006,-0.002,0.383,0.056,0.092,-85.395,-16.686,0.888
1747653216.63,-0.008,0.004,-0.013,0.390,-0.035,0.097,-85.199,-15.345,2.231
1747653216.64,-0.005,-0.002,-0.033,0.399,-0.052,0.103,-84.994,-14.050,3.558
1747653216.65,0.016,-0.010,-0.002,0.377,-0.007,0.112,-84.791,-12.808,4.821
1747653216.66,0.030,-0.015,0.042,0.361,0.012,0.119,-84.600,-11.627,6.003
1747653216.67,0.028,-0.026,0.045,0.386,-0.002,0.117,-84.406,-10.512,7.121
1747653216.68,0.027,-0.031,0.029,0.443,-0.007,0.121,-84.184,-9.442,8.199
1747653216.69,0.033,-0.021,0.031,0.474,0.031,0.134,-83.934,-8.354,9.288
1747653216.70,0.026,-0.008,0.049,0.499,0.039,0.132,-83.670,-7.286,10.338
1747653216.71,0.000,0.006,0.035,0.532,-0.013,0.128,-83.387,-6.320,11.301
1747653216.72,-0.022,0.019,0.010,0.551,-0.061,0.118,-83.087,-5.485,12.163
1747653216.73,-0.032,0.022,0.017,0.556,-0.074,0.116,-82.777,-4.763,12.933
1747653216.73,-0.032,0.013,0.040,0.550,-0.000,0.116,-82.466,-4.100,13.627
1747653216.74,-0.018,-0.003,0.080,0.544,0.065,0.133,-82.160,-3.407,14.304
1747653216.76,-0.017,-0.020,0.065,0.569,0.025,0.140,-81.849,-2.700,14.990
1747653216.77,-0.024,-0.025,0.010,0.618,-0.032,0.140,-81.515,-2.061,15.639
1747653216.77,-0.010,-0.011,0.006,0.628,-0.112,0.135,-81.160,-1.512,16.234
1747653216.78,-0.004,0.014,-0.006,0.619,-0.187,0.123,-80.806,-1.089,16.753
1747653216.79,-0.007,0.021,0.009,0.637,-0.107,0.112,-80.449,-0.741,17.196
1747653216.80,0.006,0.002,0.077,0.679,-0.012,0.116,-80.075,-0.372,17.602
1747653216.81,-0.002,-0.018,0.072,0.731,0.013,0.127,-79.672,0.023,18.002
1747653216.82,-0.026,-0.021,0.027,0.725,0.030,0.145,-79.253,0.439,18.413
1747653216.83,-0.040,-0.012,0.031,0.678,0.057,0.169,-78.852,0.900,18.857
1747653216.84,-0.053,-0.002,0.030,0.636,0.064,0.170,-78.475,1.386,19.316
1747653216.85,-0.060,0.005,0.012,0.614,0.073,0.163,-78.115,1.835,19.737
1747653216.86,-0.041,0.002,0.017,0.612,0.162,0.164,-77.763,2.274,20.120
1747653216.87,0.003,-0.007,0.058,0.665,0.220,0.162,-77.397,2.736,20.478
1747653216.88,0.029,-0.004,0.039,0.768,0.152,0.150,-76.985,3.144,20.785
1747653216.89,0.024,0.009,-0.016,0.825,0.102,0.137,-76.523,3.448,21.028
1747653216.90,0.014,0.018,0.011,0.782,0.140,0.122,-76.057,3.700,21.214
1747653216.91,-0.013,0.028,0.034,0.714,0.055,0.108,-75.629,3.906,21.363
1747653216.92,-0.074,0.028,-0.063,0.713,-0.040,0.099,-75.220,4.020,21.483
1747653216.93,-0.106,0.008,-0.062,0.717,0.027,0.116,-74.807,4.130,21.604
1747653216.94,-0.083,-0.015,0.004,0.694,0.090,0.144,-74.399,4.328,21.773
1747653216.95,-0.048,-0.022,0.007,0.678,0.171,0.160,-74.002,4.596,21.976
1747653216.96,-0.019,-0.018,0.025,0.676,0.285,0.162,-73.610,4.931,22.188
1747653216.97,-0.001,-0.003,0.053,0.691,0.263,0.148,-73.214,5.278,22.381
1747653216.98,0.006,0.008,0.000,0.720,0.216,0.134,-72.805,5.547,22.522
1747653216.99,0.036,0.010,-0.012,0.743,0.251,0.147,-72.381,5.804,22.653
1747653217.00,0.071,-0.005,0.009,0.754,0.267,0.144,-71.948,6.070,22.775
1747653217.01,0.070,-0.019,0.008,0.757,0.228,0.150,-71.509,6.320,22.887
1747653217.02,0.039,-0.019,0.034,0.733,0.176,0.159,-71.074,6.555,23.013
1747653217.03,-0.021,-0.000,0.032,0.662,0.134,0.147,-70.667,6.760,23.137
1747653217.04,-0.080,0.020,0.033,0.613,0.130,0.135,-70.298,6.937,23.247
1747653217.05,-0.100,0.032,0.024,0.587,0.110,0.125,-69.950,7.092,23.339
1747653217.06,-0.083,0.035,0.001,0.583,0.092,0.133,-69.610,7.236,23.430
1747653217.07,-0.051,0.018,-0.003,0.615,0.085,0.144,-69.262,7.381,23.532
1747653217.08,-0.016,0.003,-0.004,0.680,0.075,0.150,-68.886,7.523,23.632
1747653217.09,0.018,0.005,-0.010,0.749,0.046,0.149,-68.467,7.635,23.716
1747653217.10,0.024,0.022,0.006,0.745,0.085,0.104,-68.032,7.705,23.755
1747653217.11,0.001,0.030,0.060,0.732,0.195,0.066,-67.610,7.761,23.728
1747653217.12,-0.034,0.018,0.045,0.735,0.224,0.057,-67.191,7.828,23.669
1747653217.13,-0.070,0.002,-0.011,0.726,0.227,0.071,-66.770,7.902,23.611
1747653217.14,-0.080,-0.021,0.024,0.666,0.313,0.092,-66.372,8.037,23.596
1747653217.15,-0.085,-0.045,0.032,0.639,0.250,0.054,-65.991,8.159,23.547
1747653217.16,-0.046,-0.040,-0.030,0.606,0.196,0.135,-65.635,8.291,23.551
1747653217.17,0.016,-0.018,-0.026,0.619,0.167,0.176,-65.275,8.483,23.649
1747653217.18,0.048,0.006,-0.001,0.645,0.110,0.132,-64.905,8.639,23.732
1747653217.19,0.052,0.019,-0.010,0.661,0.054,0.084,-64.526,8.694,23.741
1747653217.20,0.037,0.013,-0.010,0.671,0.032,0.064,-64.144,8.682,23.701
1747653217.21,0.013,-0.001,-0.022,0.689,0.038,0.079,-63.753,8.662,23.657
1747653217.22,-0.004,-0.022,-0.007,0.698,0.026,0.120,-63.353,8.673,23.647
1747653217.23,0.006,-0.043,0.001,0.720,0.048,0.180,-62.941,8.737,23.699
1747653217.24,0.041,-0.056,-0.005,0.720,0.141,0.222,-62.515,8.892,23.815
1747653217.25,0.072,-0.058,0.026,0.669,0.188,0.215,-62.104,9.106,23.944
1747653217.26,0.077,-0.060,0.006,0.673,0.099,0.232,-61.707,9.309,24.077
1747653217.27,0.083,-0.057,-0.046,0.653,-0.013,0.256,-61.309,9.472,24.236
1747653217.28,0.089,-0.045,-0.034,0.624,-0.071,0.284,-60.924,9.613,24.429
1747653217.29,0.098,-0.027,-0.023,0.631,-0.115,0.291,-60.544,9.745,24.641
1747653217.30,0.096,-0.005,-0.034,0.662,-0.176,0.249,-60.154,9.817,24.820
1747653217.31,0.074,0.015,-0.014,0.730,-0.229,0.217,-59.742,9.809,24.944
1747653217.32,0.032,0.024,-0.036,0.810,-0.195,0.185,-59.288,9.748,25.018
1747653217.33,-0.022,0.024,-0.044,0.805,-0.118,0.144,-58.815,9.685,25.048
1747653217.34,-0.088,0.004,-0.033,0.769,-0.089,0.096,-58.360,9.612,25.031
1747653217.35,-0.137,-0.033,-0.035,0.736,-0.046,0.080,-57.928,9.533,24.984
1747653217.36,-0.129,-0.066,-0.031,0.668,0.024,0.126,-57.523,9.510,24.965
1747653217.37,-0.063,-0.082,-0.039,0.588,0.094,0.205,-57.153,9.597,25.026
1747653217.38,0.014,-0.073,-0.008,0.536,0.108,0.233,-56.818,9.772,25.161
1747653217.39,0.056,-0.032,0.013,0.544,0.045,0.208,-56.493,9.923,25.289
1747653217.40,0.073,0.025,0.004,0.569,0.017,0.209,-56.161,10.032,25.401
1747653217.41,0.072,0.071,0.024,0.617,-0.024,0.211,-55.807,10.120,25.508
1747653217.42,0.030,0.091,0.019,0.704,-0.084,0.189,-55.416,10.155,25.589
1747653217.43,-0.017,0.088,-0.002,0.801,-0.063,0.144,-54.975,10.138,25.622
1747653217.44,-0.041,0.077,-0.013,0.815,0.000,0.074,-54.506,10.093,25.588
1747653217.45,-0.046,0.052,-0.001,0.778,0.066,0.023,-54.053,10.038,25.497
1747653217.46,-0.054,0.006,0.022,0.740,0.065,0.023,-53.623,9.993,25.388
1747653217.47,-0.055,-0.038,-0.024,0.677,-0.040,0.072,-53.219,9.938,25.311
1747653217.48,-0.005,-0.063,-0.039,0.592,-0.050,0.160,-52.850,9.914,25.320
1747653217.49,0.076,-0.054,0.032,0.570,0.015,0.157,-52.512,9.950,25.376
1747653217.50,0.131,-0.010,0.079,0.609,0.025,0.152,-52.166,9.999,25.422
1747653217.51,0.109,0.031,0.059,0.745,0.028,-0.051,-51.777,10.017,25.366
1747653217.52,0.033,0.032,0.032,0.658,-0.017,0.094,-51.392,9.921,25.262
1747653217.53,0.090,0.070,0.067,0.715,0.016,0.214,-50.990,9.961,25.304
1747653217.54,0.032,0.072,-0.017,0.751,-0.083,0.177,-50.559,9.991,25.369
1747653217.55,-0.016,0.044,-0.054,0.762,-0.082,0.125,-50.115,9.949,25.383
1747653217.56,-0.000,-0.002,-0.055,0.686,-0.043,0.103,-49.695,9.904,25.369
1747653217.57,0.007,-0.058,-0.067,0.599,-0.081,0.102,-49.325,9.863,25.360
1747653217.58,0.011,-0.098,-0.051,0.550,-0.119,0.114,-48.993,9.809,25.366
1747653217.59,0.025,-0.091,0.006,0.534,-0.099,0.140,-48.677,9.768,25.396
1747653217.60,0.028,-0.038,0.050,0.559,-0.085,0.152,-48.355,9.750,25.441
1747653217.61,0.011,0.030,0.049,0.615,-0.085,0.156,-48.012,9.737,25.488
1747653217.62,-0.008,0.073,0.046,0.699,-0.094,0.146,-47.627,9.709,25.520
1747653217.63,-0.015,0.085,0.034,0.756,-0.086,0.129,-47.202,9.664,25.532
1747653217.64,-0.019,0.075,-0.008,0.774,-0.092,0.084,-46.761,9.603,25.513
1747653217.65,-0.032,0.042,-0.048,0.751,-0.118,0.055,-46.322,9.507,25.464
1747653217.66,-0.027,-0.004,-0.097,0.658,-0.145,0.027,-45.922,9.388,25.403
1747653217.67,-0.007,-0.053,-0.076,0.605,-0.136,0.016,-45.566,9.257,25.334
1747653217.68,-0.000,-0.089,0.003,0.577,-0.076,0.042,-45.231,9.155,25.279
1747653217.69,-0.005,-0.097,0.062,0.583,-0.007,0.076,-44.899,9.114,25.252
1747653217.70,-0.030,-0.073,0.036,0.585,-0.039,0.095,-44.561,9.102,25.246
1747653217.71,-0.056,-0.033,-0.017,0.574,-0.079,0.115,-44.225,9.072,25.257
1747653217.72,-0.024,0.002,-0.025,0.596,-0.043,0.122,-43.886,9.052,25.278
1747653217.73,0.028,0.020,-0.002,0.645,-0.017,0.104,-43.524,9.044,25.288
1747653217.74,0.049,0.027,0.007,0.669,-0.032,0.068,-43.146,9.022,25.275
1747653217.75,0.047,0.025,-0.032,0.687,-0.053,0.025,-42.759,8.965,25.229
1747653217.76,0.024,0.011,-0.059,0.649,-0.123,-0.004,-42.379,8.869,25.156
1747653217.77,-0.011,-0.004,-0.047,0.587,-0.182,0.013,-42.031,8.731,25.083
1747653217.78,-0.008,-0.021,-0.020,0.536,-0.172,0.066,-41.712,8.606,25.048
1747653217.79,0.008,-0.022,0.007,0.503,-0.167,0.118,-41.413,8.516,25.060
1747653217.80,0.025,0.002,0.006,0.499,-0.132,0.148,-41.121,8.461,25.105
1747653217.81,0.043,0.040,0.015,0.547,-0.124,0.160,-40.813,8.426,25.162
1747653217.82,0.039,0.069,0.007,0.602,-0.127,0.152,-40.475,8.390,25.215
1747653217.83,0.026,0.080,-0.005,0.625,-0.130,0.122,-40.115,8.339,25.250
1747653217.84,-0.009,0.064,-0.025,0.647,-0.157,0.062,-39.747,8.259,25.249
1747653217.85,-0.055,0.024,-0.066,0.642,-0.185,0.014,-39.378,8.132,25.207
1747653217.86,-0.075,-0.030,-0.063,0.594,-0.157,0.002,-39.027,7.996,25.149
1747653217.87,-0.073,-0.078,-0.021,0.565,-0.094,0.009,-38.699,7.888,25.094
1747653217.88,-0.052,-0.094,0.016,0.555,-0.028,0.027,-38.381,7.830,25.052
1747653217.89,-0.031,-0.071,0.019,0.537,0.010,0.022,-38.069,7.802,25.015
1747653217.90,-0.020,-0.013,0.016,0.523,0.031,0.003,-37.769,7.789,24.973
1747653217.91,-0.009,0.043,0.006,0.542,-0.013,-0.022,-37.468,7.759,24.915
1747653217.92,-0.006,0.075,-0.000,0.559,-0.043,-0.051,-37.159,7.694,24.836
1747653217.93,-0.034,0.071,-0.005,0.641,-0.061,-0.294,-36.818,7.620,24.649
1747653217.94,-0.068,0.029,-0.001,0.578,-0.117,-0.160,-36.503,7.419,24.424
1747653217.95,0.015,0.031,0.016,0.554,-0.121,-0.039,-36.184,7.286,24.307
1747653217.96,-0.003,0.019,-0.022,0.544,-0.157,-0.022,-35.879,7.166,24.241
1747653217.97,0.015,-0.006,-0.029,0.534,-0.145,-0.009,-35.574,7.044,24.182
1747653217.98,0.074,-0.014,-0.033,0.505,-0.129,0.039,-35.279,6.945,24.147
1747653217.99,0.122,-0.007,-0.004,0.484,-0.114,0.099,-34.994,6.880,24.155
1747653218.00,0.133,0.010,0.024,0.486,-0.077,0.132,-34.712,6.849,24.196
1747653218.01,0.108,0.036,0.028,0.486,-0.070,0.142,-34.428,6.841,24.251
1747653218.02,0.053,0.046,0.029,0.473,-0.083,0.153,-34.145,6.832,24.314
1747653218.03,0.019,0.034,0.009,0.444,-0.077,0.158,-33.875,6.825,24.384
1747653218.04,0.010,0.013,-0.015,0.454,-0.079,0.161,-33.611,6.821,24.456
1747653218.05,-0.014,-0.011,-0.029,0.452,-0.082,0.167,-33.342,6.815,24.530
1747653218.06,-0.039,-0.022,-0.035,0.427,-0.088,0.166,-33.080,6.809,24.608
1747653218.07,-0.051,-0.016,-0.045,0.436,-0.069,0.148,-32.826,6.802,24.681
1747653218.08,-0.045,0.006,-0.029,0.476,-0.022,0.119,-32.558,6.803,24.734
1747653218.09,-0.021,0.030,-0.035,0.452,0.010,0.090,-32.284,6.819,24.766
1747653218.10,0.001,0.042,-0.056,0.402,-0.013,0.068,-32.038,6.829,24.785
1747653218.11,-0.006,0.038,-0.031,0.395,-0.050,0.054,-31.809,6.815,24.795
1747653218.12,-0.037,0.025,0.001,0.393,-0.063,0.040,-31.581,6.783,24.793
1747653218.13,-0.061,0.000,-0.023,0.390,-0.095,0.047,-31.357,6.736,24.790
1747653218.14,-0.062,-0.017,-0.030,0.409,-0.072,0.048,-31.128,6.686,24.790
1747653218.15,-0.036,-0.010,0.002,0.403,0.011,0.030,-30.894,6.666,24.786
1747653218.16,-0.019,0.006,0.015,0.410,0.030,0.002,-30.663,6.670,24.765
1747653218.17,-0.030,0.008,0.001,0.403,0.013,-0.017,-30.432,6.661,24.727
1747653218.18,-0.034,0.001,-0.007,0.392,0.014,-0.014,-30.208,6.647,24.686
1747653218.19,-0.016,-0.007,-0.019,0.382,-0.009,-0.009,-29.988,6.632,24.649
1747653218.20,0.007,-0.011,-0.059,0.345,-0.040,-0.011,-29.781,6.600,24.616
1747653218.21,0.031,-0.009,-0.066,0.311,-0.042,-0.018,-29.597,6.559,24.582
1747653218.22,0.045,-0.003,-0.034,0.314,-0.033,-0.007,-29.421,6.522,24.550
1747653218.23,0.042,0.008,-0.012,0.316,-0.056,0.020,-29.241,6.490,24.532
1747653218.24,0.049,0.031,-0.023,0.304,-0.091,0.053,-29.062,6.450,24.534
1747653218.25,0.058,0.041,-0.011,0.304,-0.117,0.075,-28.889,6.400,24.554
1747653218.26,0.055,0.031,-0.001,0.328,-0.137,0.103,-28.703,6.343,24.588
1747653218.27,0.044,0.004,-0.014,0.319,-0.147,0.132,-28.510,6.291,24.641
1747653218.28,0.033,-0.027,-0.058,0.282,-0.169,0.138,-28.332,6.230,24.707
1747653218.29,0.038,-0.045,-0.056,0.290,-0.145,0.137,-28.162,6.170,24.776
1747653218.30,0.056,-0.042,-0.015,0.294,-0.093,0.141,-27.987,6.136,24.846
1747653218.31,0.042,-0.023,-0.016,0.271,-0.085,0.130,-27.818,6.119,24.914
1747653218.32,-0.014,-0.013,-0.039,0.227,-0.083,0.141,-27.668,6.102,24.983
1747653218.33,-0.066,-0.014,-0.042,0.197,-0.040,0.154,-27.540,6.103,25.063
1747653218.34,-0.085,-0.006,-0.035,0.186,-0.008,0.163,-27.421,6.132,25.152
1747653218.35,-0.084,0.017,-0.046,0.176,-0.002,0.144,-27.309,6.171,25.241
1747653218.36,-0.078,0.049,-0.058,0.191,-0.026,0.090,-27.198,6.192,25.302
1747653218.37,-0.066,0.060,-0.052,0.223,-0.071,0.044,-27.076,6.176,25.330
1747653218.38,-0.052,0.044,-0.026,0.210,-0.081,0.002,-26.949,6.130,25.329
1747653218.39,-0.055,0.013,0.006,0.196,-0.056,-0.052,-26.836,6.076,25.298
1747653218.40,-0.055,-0.028,0.003,0.196,-0.037,-0.064,-26.728,6.028,25.246
1747653218.41,-0.048,-0.052,-0.016,0.185,-0.037,-0.063,-26.624,5.983,25.194
1747653218.42,-0.048,-0.035,-0.011,0.192,0.029,-0.083,-26.521,5.951,25.136
1747653218.43,-0.031,0.005,-0.004,0.178,0.096,-0.112,-26.421,5.955,25.062
1747653218.44,-0.012,0.027,-0.032,0.160,0.111,-0.112,-26.333,5.979,24.976
1747653218.45,0.010,0.025,-0.037,0.151,0.100,-0.087,-26.251,6.004,24.901
1747653218.46,0.047,0.013,-0.007,0.147,0.065,-0.055,-26.173,6.027,24.845
1747653218.47,0.095,-0.001,-0.005,0.155,0.021,-0.029,-26.090,6.032,24.807
1747653218.48,0.136,-0.012,-0.001,0.147,-0.016,0.001,-26.003,6.024,24.788
1747653218.49,0.149,-0.014,-0.013,0.130,-0.063,0.037,-25.923,6.002,24.791
1747653218.50,0.129,-0.014,-0.028,0.106,-0.092,0.068,-25.853,5.965,24.815
1747653218.51,0.090,-0.006,-0.025,0.085,-0.072,0.104,-25.795,5.938,24.863
1747653218.52,0.058,0.005,-0.018,0.093,-0.041,0.133,-25.737,5.936,24.933
1747653218.53,0.029,0.022,-0.013,0.085,0.002,0.138,-25.677,5.960,25.014
1747653218.54,0.012,0.033,-0.006,0.067,0.030,0.121,-25.627,6.003,25.090
1747653218.55,0.023,0.022,-0.024,0.066,0.040,0.122,-25.583,6.056,25.162
1747653218.56,0.036,0.009,-0.020,0.053,0.009,0.131,-25.540,6.107,25.239
1747653218.57,0.030,0.016,-0.032,0.016,-0.028,0.132,-25.512,6.140,25.323
1747653218.58,0.017,0.043,-0.044,-0.030,-0.066,0.107,-25.509,6.148,25.401
1747653218.59,-0.011,0.058,-0.032,-0.012,-0.061,0.078,-25.517,6.138,25.462
1747653218.60,-0.037,0.035,-0.017,-0.002,-0.034,0.038,-25.516,6.127,25.499
1747653218.61,-0.062,0.006,-0.021,0.003,-0.005,0.002,-25.514,6.121,25.510
1747653218.62,-0.071,-0.010,-0.062,0.011,0.010,0.007,-25.510,6.123,25.511
1747653218.63,-0.059,0.016,-0.088,-0.027,-0.001,0.013,-25.513,6.128,25.518
1747653218.64,-0.030,0.074,-0.065,-0.055,0.012,0.008,-25.537,6.134,25.527
1747653218.65,-0.007,0.118,-0.038,-0.072,0.028,-0.004,-25.573,6.150,25.533
1747653218.66,-0.008,0.127,-0.028,-0.090,0.015,-0.022,-25.620,6.163,25.530
1747653218.67,-0.017,0.090,-0.042,-0.100,-0.026,-0.042,-25.676,6.155,25.517
1747653218.68,-0.013,0.019,-0.057,-0.117,-0.048,-0.080,-25.741,6.117,25.486
1747653218.69,0.008,-0.041,-0.067,-0.152,-0.025,-0.116,-25.824,6.069,25.433
1747653218.70,0.033,-0.056,-0.095,-0.196,-0.007,-0.128,-25.929,6.032,25.365
1747653218.71,0.023,-0.030,-0.109,-0.252,-0.023,-0.120,-26.065,5.995,25.300
1747653218.72,0.001,-0.007,-0.076,-0.297,-0.018,-0.087,-26.227,5.961,25.252
1747653218.73,-0.003,0.001,-0.039,-0.323,0.025,-0.068,-26.409,5.950,25.225
1747653218.74,0.019,0.002,-0.033,-0.321,0.045,-0.073,-26.598,5.961,25.203
1747653218.75,0.041,-0.005,-0.068,-0.335,0.051,-0.085,-26.787,5.976,25.174
1747653218.76,0.060,-0.016,-0.093,-0.400,0.036,-0.095,-27.001,5.989,25.142
1747653218.77,0.056,-0.034,-0.075,-0.429,-0.021,-0.101,-27.243,5.977,25.107
1747653218.78,0.041,-0.036,-0.076,-0.460,-0.043,-0.096,-27.500,5.943,25.074
1747653218.79,0.033,-0.023,-0.070,-0.490,-0.030,-0.097,-27.774,5.908,25.044
1747653218.80,0.021,-0.008,-0.061,-0.513,-0.038,-0.090,-28.065,5.876,25.018
1747653218.81,0.010,-0.005,-0.050,-0.517,-0.041,-0.090,-28.362,5.841,24.994
1747653218.82,0.001,-0.008,-0.031,-0.517,-0.028,-0.091,-28.660,5.811,24.971
1747653218.83,-0.002,-0.020,-0.045,-0.532,-0.022,-0.104,-28.964,5.783,24.942
1747653218.84,-0.001,-0.031,-0.062,-0.556,0.003,-0.112,-29.279,5.760,24.907
1747653218.85,0.007,-0.037,-0.043,-0.564,0.026,-0.111,-29.604,5.751,24.871
1747653218.86,0.009,-0.033,-0.040,-0.594,0.039,-0.102,-29.938,5.752,24.839
1747653218.87,0.014,-0.026,-0.059,-0.632,0.023,-0.086,-30.293,5.759,24.817
1747653218.88,0.021,-0.026,-0.063,-0.658,0.007,-0.065,-30.664,5.763,24.809
1747653218.89,0.032,-0.030,-0.065,-0.678,0.019,-0.040,-31.046,5.775,24.820
1747653218.90,0.045,-0.031,-0.065,-0.693,0.012,-0.043,-31.437,5.795,24.839
1747653218.91,0.033,-0.025,-0.047,-0.700,-0.019,-0.062,-31.836,5.801,24.852
1747653218.92,0.004,-0.022,-0.018,-0.694,-0.038,-0.077,-32.236,5.784,24.852
1747653218.93,-0.026,-0.027,-0.014,-0.705,-0.060,-0.077,-32.637,5.753,24.846
1747653218.94,-0.036,-0.042,-0.041,-0.714,-0.071,-0.070,-33.043,5.714,24.844
1747653218.95,-0.017,-0.055,-0.069,-0.749,-0.054,-0.059,-33.463,5.680,24.849
1747653218.96,0.015,-0.061,-0.070,-0.784,-0.004,-0.047,-33.902,5.673,24.866
1747653218.97,0.028,-0.056,-0.039,-0.807,0.040,-0.044,-34.357,5.697,24.890
1747653218.98,0.008,-0.043,-0.004,-0.820,0.067,-0.049,-34.822,5.742,24.915
1747653218.99,-0.027,-0.033,0.007,-0.811,0.070,-0.060,-35.290,5.792,24.935
1747653219.00,-0.061,-0.026,-0.015,-0.807,0.056,-0.066,-35.752,5.836,24.950
1747653219.01,-0.070,-0.024,-0.037,-0.828,0.052,-0.054,-36.220,5.875,24.966
1747653219.02,-0.041,-0.030,-0.035,-0.842,0.083,-0.036,-36.697,5.930,24.995
1747653219.03,0.001,-0.033,-0.020,-0.859,0.114,-0.019,-37.182,6.011,25.039
1747653219.04,0.030,-0.029,-0.021,-0.890,0.150,-0.015,-37.679,6.121,25.094
1747653219.05,0.040,-0.020,-0.039,-0.911,0.129,-0.025,-38.191,6.236,25.149
1747653219.06,0.036,-0.012,-0.037,-0.952,0.105,-0.012,-38.721,6.340,25.209
1747653219.07,0.049,-0.010,-0.015,-0.982,0.083,0.017,-39.270,6.445,25.289
1747653219.08,0.058,-0.011,-0.021,-0.992,0.028,0.030,-39.830,6.543,25.390
1747653219.09,0.050,-0.006,-0.021,-0.991,-0.028,0.030,-40.391,6.610,25.497
1747653219.10,0.049,0.002,-0.015,-0.970,-0.047,0.016,-40.947,6.656,25.601
1747653219.11,0.045,0.007,-0.016,-0.958,-0.073,-0.003,-41.493,6.682,25.691
1747653219.12,0.024,0.005,-0.024,-0.964,-0.068,-0.025,-42.038,6.689,25.766
1747653219.13,0.006,-0.008,-0.031,-0.978,-0.023,-0.041,-42.590,6.705,25.828
1747653219.14,-0.014,-0.021,-0.027,-1.008,0.015,-0.056,-43.155,6.741,25.882
1747653219.15,-0.043,-0.031,-0.013,-1.049,0.031,-0.060,-43.742,6.789,25.931
1747653219.16,-0.056,-0.037,0.002,-1.065,0.039,-0.051,-44.346,6.849,25.988
1747653219.17,-0.055,-0.034,-0.006,-1.071,0.032,-0.026,-44.954,6.919,26.059
1747653219.18,-0.037,-0.021,-0.015,-1.102,0.037,-0.011,-45.571,7.004,26.152
1747653219.19,-0.012,-0.003,-0.011,-1.103,0.022,-0.021,-46.198,7.092,26.253
1747653219.20,0.002,0.010,-0.026,-1.063,0.021,-0.055,-46.816,7.164,26.334
1747653219.21,0.004,0.020,-0.029,-1.030,0.038,-0.103,-47.414,7.212,26.379
1747653219.22,-0.006,0.022,-0.020,-1.027,0.053,-0.161,-48.005,7.238,26.377
1747653219.23,-0.031,0.013,-0.028,-1.055,0.047,-0.200,-48.608,7.235,26.336
1747653219.24,-0.052,-0.007,-0.021,-1.099,0.071,-0.212,-49.232,7.221,26.274
1747653219.25,-0.055,-0.026,0.004,-1.139,0.121,-0.196,-49.882,7.233,26.220
1747653219.26,-0.040,-0.036,0.005,-1.152,0.169,-0.180,-50.544,7.289,26.183
1747653219.27,-0.020,-0.033,0.011,-1.171,0.172,-0.166,-51.216,7.371,26.161
1747653219.28,0.006,-0.021,0.022,-1.171,0.167,-0.144,-51.892,7.466,26.158
1747653219.29,0.046,-0.005,-0.006,-1.171,0.159,-0.125,-52.564,7.575,26.179
1747653219.30,0.074,0.011,-0.012,-1.165,0.112,-0.127,-53.234,7.679,26.209
1747653219.31,0.076,0.020,-0.025,-1.146,0.031,-0.135,-53.899,7.741,26.234
1747653219.32,0.078,0.017,-0.030,-1.126,-0.014,-0.160,-54.552,7.750,26.242
1747653219.33,0.075,0.005,-0.025,-1.145,-0.051,-0.204,-55.208,7.710,26.215
1747653219.34,0.055,-0.014,-0.027,-1.161,-0.085,-0.243,-55.878,7.614,26.147
1747653219.35,0.033,-0.034,-0.030,-1.175,-0.099,-0.263,-56.559,7.476,26.045
1747653219.36,0.025,-0.048,-0.020,-1.192,-0.098,-0.266,-57.249,7.324,25.931
1747653219.37,0.026,-0.053,-0.024,-1.208,-0.110,-0.244,-57.947,7.172,25.821
1747653219.38,0.039,-0.053,-0.006,-1.230,-0.140,-0.205,-58.654,7.036,25.743
1747653219.39,0.054,-0.044,0.017,-1.247,-0.189,-0.161,-59.369,6.913,25.710
1747653219.40,0.065,-0.031,0.005,-1.248,-0.210,-0.146,-60.088,6.798,25.710
1747653219.41,0.064,-0.018,-0.012,-1.218,-0.224,-0.164,-60.799,6.667,25.701
1747653219.42,0.039,-0.011,-0.027,-1.177,-0.234,-0.206,-61.490,6.486,25.646
1747653219.43,0.006,-0.008,-0.048,-1.147,-0.234,-0.250,-62.165,6.247,25.526
1747653219.44,-0.025,-0.016,-0.047,-1.126,-0.218,-0.285,-62.826,5.955,25.344
1747653219.45,-0.045,-0.034,-0.037,-1.118,-0.165,-0.295,-63.479,5.647,25.122
1747653219.46,-0.056,-0.053,-0.028,-1.127,-0.101,-0.301,-64.134,5.352,24.877
1747653219.47,-0.055,-0.067,-0.030,-1.105,-0.052,-0.299,-64.784,5.072,24.614
1747653219.48,-0.053,-0.075,-0.033,-1.114,-0.059,-0.279,-65.428,4.804,24.352
1747653219.49,-0.054,-0.078,-0.019,-1.157,-0.077,-0.250,-66.086,4.550,24.117
1747653219.50,-0.040,-0.075,-0.018,-1.162,-0.042,-0.219,-66.758,4.328,23.914
1747653219.51,-0.007,-0.063,-0.035,-1.155,0.011,-0.210,-67.424,4.149,23.729
1747653219.52,0.011,-0.038,-0.016,-1.160,0.039,-0.215,-68.093,3.984,23.534
1747653219.53,0.018,-0.007,0.023,-1.147,0.057,-0.221,-68.760,3.814,23.321
1747653219.54,0.009,0.021,0.027,-1.088,0.042,-0.222,-69.407,3.619,23.083
1747653219.55,-0.008,0.037,0.011,-1.018,0.043,-0.226,-70.014,3.399,22.823
1747653219.56,-0.017,0.043,-0.001,-0.959,0.065,-0.259,-70.585,3.136,22.513
1747653219.57,-0.026,0.029,-0.019,-0.901,0.093,-0.306,-71.123,2.798,22.106
1747653219.58,-0.040,0.002,-0.045,-0.904,0.110,-0.348,-71.643,2.369,21.593
1747653219.59,-0.058,-0.035,-0.027,-0.944,0.165,-0.373,-72.179,1.872,20.988
1747653219.60,-0.066,-0.066,0.007,-0.940,0.223,-0.362,-72.724,1.364,20.338
1747653219.61,-0.056,-0.078,0.011,-0.932,0.264,-0.314,-73.261,0.907,19.713
1747653219.62,-0.033,-0.070,0.005,-0.960,0.278,-0.268,-73.802,0.528,19.155
1747653219.63,-0.004,-0.052,0.002,-0.976,0.279,-0.236,-74.355,0.196,18.644
1747653219.64,0.015,-0.035,-0.000,-1.013,0.277,-0.217,-74.922,-0.115,18.157
1747653219.65,0.024,-0.028,0.033,-1.041,0.269,-0.202,-75.509,-0.420,17.681
1747653219.66,0.029,-0.035,0.047,-1.005,0.262,-0.203,-76.094,-0.749,17.184
1747653219.67,0.035,-0.040,0.003,-0.941,0.235,-0.211,-76.648,-1.134,16.642
1747653219.68,0.043,-0.037,-0.022,-0.885,0.234,-0.212,-77.166,-1.575,16.053
1747653219.69,0.053,-0.020,-0.039,-0.868,0.234,-0.209,-77.658,-2.046,15.432
1747653219.70,0.050,0.002,-0.025,-0.939,0.176,-0.214,-78.166,-2.580,14.762
1747653219.71,0.025,0.015,0.003,-1.007,0.049,-0.241,-78.717,-3.288,13.973
1747653219.72,0.011,0.021,-0.028,-0.990,-0.050,-0.276,-79.281,-4.244,13.002
1747653219.73,0.035,0.016,-0.042,-0.914,-0.086,-0.273,-79.810,-5.390,11.878
1747653219.74,0.087,0.001,-0.030,-0.823,-0.078,-0.252,-80.289,-6.590,10.709
1747653219.75,0.124,-0.014,-0.020,-0.724,-0.087,-0.219,-80.709,-7.753,9.575
1747653219.75,0.114,-0.018,-0.030,-0.688,-0.156,-0.218,-81.088,-8.946,8.435
1747653219.76,0.067,-0.014,-0.038,-0.662,-0.265,-0.253,-81.446,-10.352,7.133
1747653219.77,0.002,-0.015,-0.072,-0.617,-0.309,-0.288,-81.774,-12.035,5.604
1747653219.79,-0.059,-0.015,-0.081,-0.575,-0.209,-0.297,-82.068,-13.884,3.889
1747653219.80,-0.102,-0.018,-0.060,-0.555,-0.122,-0.258,-82.338,-15.703,2.145
1747653219.80,-0.149,-0.027,-0.076,-0.548,-0.095,-0.216,-82.601,-17.425,0.470
1747653219.81,-0.179,-0.032,-0.086,-0.561,0.007,-0.185,-82.866,-19.073,-1.162
1747653219.83,-0.165,-0.028,-0.038,-0.586,0.201,-0.177,-83.138,-20.698,-2.859
1747653219.83,-0.133,-0.016,0.020,-0.614,0.360,-0.189,-83.419,-22.425,-4.761
1747653219.84,-0.106,0.007,0.050,-0.636,0.512,-0.204,-83.702,-24.344,-6.944
1747653219.85,-0.071,0.033,0.093,-0.648,0.595,-0.200,-83.984,-26.451,-9.385
1747653219.86,-0.040,0.053,0.098,-0.647,0.560,-0.172,-84.263,-28.698,-11.979
1747653219.87,-0.021,0.057,0.083,-0.631,0.486,-0.156,-84.533,-31.086,-14.678
1747653219.88,-0.005,0.032,0.103,-0.598,0.432,-0.165,-84.782,-33.667,-17.531
1747653219.89,0.010,-0.017,0.119,-0.576,0.439,-0.177,-84.999,-36.456,-20.579
1747653219.90,0.032,-0.063,0.130,-0.611,0.454,-0.181,-85.201,-39.557,-23.950
1747653219.91,0.056,-0.079,0.112,-0.671,0.413,-0.172,-85.410,-43.161,-27.817
1747653219.92,0.070,-0.062,0.078,-0.697,0.290,-0.170,-85.618,-47.371,-32.244
1747653219.93,0.059,-0.019,0.041,-0.671,0.127,-0.178,-85.796,-52.096,-37.101
1747653219.94,0.037,0.028,0.016,-0.605,0.031,-0.209,-85.918,-57.043,-42.102
1747653219.95,0.031,0.064,0.027,-0.555,-0.009,-0.230,-85.976,-61.958,-47.036
1747653219.96,0.043,0.066,0.056,-0.524,-0.044,-0.225,-85.992,-66.731,-51.807
1747653219.97,0.053,0.041,0.055,-0.496,-0.083,-0.203,-85.981,-71.265,-56.316
1747653219.98,0.059,0.009,0.022,-0.477,-0.176,-0.161,-85.961,-75.539,-60.529
1747653219.99,0.052,-0.027,-0.016,-0.437,-0.333,-0.105,-85.943,-79.534,-64.391
1747653220.00,0.035,-0.053,-0.051,-0.357,-0.489,-0.059,-85.933,-83.050,-67.677
1747653220.01,0.007,-0.064,-0.059,-0.252,-0.552,-0.054,-85.920,-85.843,-70.177
1747653220.02,-0.024,-0.063,-0.056,-0.164,-0.514,-0.079,-85.888,-87.820,-71.848
1747653220.03,-0.038,-0.050,-0.057,-0.129,-0.342,-0.099,-85.839,-89.222,-73.005
1747653220.04,-0.032,-0.020,-0.043,-0.117,-0.161,-0.105,-85.780,-90.337,-73.982
1747653220.05,-0.042,0.020,-0.056,-0.085,-0.044,-0.087,-85.725,-91.151,-74.743
1747653220.06,-0.080,0.045,-0.056,-0.051,-0.027,-0.052,-85.684,-91.663,-75.239
1747653220.07,-0.116,0.048,-0.051,0.014,-0.025,-0.028,-85.661,-91.818,-75.379
1747653220.08,-0.126,0.037,-0.057,0.092,0.012,-0.020,-85.649,-91.401,-74.957
1747653220.09,-0.116,0.032,-0.053,0.109,0.099,-0.021,-85.637,-90.575,-74.159
1747653220.10,-0.089,0.025,-0.009,0.056,0.228,-0.010,-85.628,-89.835,-73.508
1747653220.11,-0.056,0.013,0.050,-0.028,0.367,0.009,-85.627,-89.565,-73.409
1747653220.12,-0.028,-0.002,0.096,-0.053,0.422,0.015,-85.634,-89.666,-73.739
1747653220.13,-0.021,-0.020,0.080,-0.041,0.362,0.004,-85.640,-89.794,-74.095
1747653220.14,-0.014,-0.030,0.061,-0.037,0.260,-0.008,-85.639,-89.899,-74.379
1747653220.15,0.018,-0.025,0.058,-0.028,0.210,-0.010,-85.634,-90.004,-74.618
1747653220.16,0.062,-0.007,0.058,-0.014,0.156,-0.011,-85.629,-90.057,-74.778
1747653220.17,0.092,0.015,0.039,0.020,0.051,-0.002,-85.623,-89.981,-74.761
1747653220.18,0.095,0.021,0.037,0.052,-0.057,0.005,-85.623,-89.694,-74.473
1747653220.19,0.071,0.007,0.067,0.040,-0.192,0.008,-85.625,-89.419,-74.126
1747653220.20,0.028,-0.020,0.073,0.040,-0.301,0.002,-85.628,-89.282,-73.845
1747653220.21,-0.010,-0.029,0.046,0.044,-0.352,-0.024,-85.623,-89.157,-73.531
1747653220.22,-0.032,-0.006,0.024,0.052,-0.335,-0.055,-85.599,-88.997,-73.171
1747653220.23,-0.033,0.025,0.032,0.049,-0.281,-0.068,-85.563,-88.825,-72.821
1747653220.24,-0.027,0.042,0.045,0.042,-0.226,-0.050,-85.529,-88.652,-72.504
1747653220.25,-0.025,0.037,0.055,0.044,-0.185,-0.013,-85.512,-88.468,-72.202
1747653220.26,-0.039,0.013,0.069,0.040,-0.213,0.020,-85.518,-88.280,-71.903
1747653220.27,-0.065,-0.017,0.055,0.034,-0.269,0.040,-85.536,-88.159,-71.642
1747653220.28,-0.075,-0.045,0.040,0.011,-0.248,0.034,-85.559,-88.155,-71.487
1747653220.29,-0.064,-0.054,0.046,-0.016,-0.144,0.025,-85.576,-88.301,-71.519
1747653220.30,-0.044,-0.040,0.052,-0.022,-0.038,0.017,-85.587,-88.505,-71.671
1747653220.31,-0.029,-0.013,0.039,-0.004,0.031,0.021,-85.597,-88.608,-71.775
1747653220.32,-0.022,0.017,0.023,0.044,0.038,0.029,-85.611,-88.444,-71.633
1747653220.33,-0.026,0.041,0.000,0.083,0.007,0.024,-85.625,-87.965,-71.164
1747653220.34,-0.024,0.050,-0.000,0.106,-0.023,0.025,-85.635,-87.302,-70.495
1747653220.35,-0.017,0.036,0.012,0.108,-0.034,0.050,-85.649,-86.545,-69.718
1747653220.36,-0.004,0.007,0.019,0.102,-0.004,0.071,-85.676,-85.768,-68.927
1747653220.37,0.007,-0.013,0.027,0.082,0.050,0.074,-85.709,-85.072,-68.241
1747653220.38,0.006,-0.022,0.028,0.089,0.100,0.068,-85.743,-84.405,-67.616
1747653220.39,-0.002,-0.023,0.026,0.098,0.103,0.064,-85.773,-83.617,-66.886
1747653220.40,-0.007,-0.010,0.019,0.101,0.044,0.065,-85.802,-82.766,-66.077
1747653220.41,-0.008,0.008,0.017,0.117,-0.023,0.057,-85.827,-81.872,-65.187
1747653220.42,-0.008,0.014,0.017,0.151,-0.075,0.051,-85.843,-80.800,-64.082
1747653220.43,0.005,0.004,0.016,0.167,-0.085,0.059,-85.857,-79.543,-62.775
1747653220.44,0.027,-0.004,0.031,0.184,-0.095,0.063,-85.872,-78.180,-61.357
1747653220.45,0.040,-0.006,0.020,0.239,-0.110,0.062,-85.882,-76.577,-59.691
1747653220.46,0.042,-0.008,0.014,0.269,-0.114,0.062,-85.881,-74.614,-57.659
1747653220.47,0.039,-0.006,0.031,0.273,-0.121,0.085,-85.878,-72.516,-55.489
1747653220.48,0.031,-0.005,0.032,0.308,-0.144,0.096,-85.874,-70.248,-53.140
1747653220.49,0.009,0.000,0.011,0.340,-0.192,0.094,-85.858,-67.744,-50.532
1747653220.50,-0.013,0.010,0.012,0.367,-0.202,0.089,-85.826,-65.095,-47.760
1747653220.51,-0.030,0.022,0.037,0.380,-0.185,0.082,-85.778,-62.370,-44.917
1747653220.52,-0.058,0.027,0.047,0.387,-0.157,0.077,-85.716,-59.649,-42.090
1747653220.53,-0.083,0.014,0.047,0.398,-0.080,0.068,-85.633,-56.900,-39.263
1747653220.54,-0.082,-0.008,0.057,0.412,0.033,0.067,-85.533,-54.149,-36.490
1747653220.55,-0.060,-0.024,0.058,0.409,0.113,0.082,-85.425,-51.407,-33.782
1747653220.56,-0.035,-0.033,0.053,0.411,0.146,0.105,-85.316,-48.699,-31.141
1747653220.57,-0.010,-0.036,0.036,0.436,0.137,0.129,-85.201,-45.930,-28.444
1747653220.58,0.015,-0.030,0.018,0.484,0.086,0.149,-85.070,-43.026,-25.595
1747653220.59,0.034,-0.014,-0.002,0.548,0.011,0.162,-84.909,-40.018,-22.603
1747653220.60,0.038,0.012,-0.020,0.599,-0.027,0.170,-84.711,-36.960,-19.526
1747653220.61,0.021,0.034,-0.025,0.648,-0.019,0.173,-84.478,-33.953,-16.490
1747653220.62,-0.004,0.037,-0.018,0.702,0.060,0.160,-84.204,-31.045,-13.576
1747653220.63,-0.025,0.020,0.014,0.744,0.111,0.145,-83.888,-28.309,-10.878
1747653220.64,-0.039,-0.009,0.016,0.778,0.119,0.152,-83.539,-25.767,-8.386
1747653220.65,-0.042,-0.041,-0.002,0.776,0.162,0.163,-83.172,-23.399,-6.083
1747653220.66,-0.036,-0.056,0.015,0.762,0.176,0.166,-82.801,-21.242,-4.009
1747653220.67,-0.030,-0.055,0.002,0.773,0.147,0.169,-82.424,-19.289,-2.132
1747653220.68,-0.013,-0.035,-0.013,0.743,0.166,0.181,-82.042,-17.503,-0.417
1747653220.69,0.015,-0.015,0.051,0.689,0.184,0.215,-81.685,-15.826,1.174
1747653220.70,0.026,-0.002,0.054,0.723,0.145,0.239,-81.334,-14.194,2.727
1747653220.71,0.006,0.007,-0.020,0.816,0.054,0.220,-80.936,-12.660,4.221
1747653220.72,-0.017,0.017,-0.037,0.864,-0.003,0.194,-80.489,-11.331,5.556
1747653220.73,-0.014,0.005,0.004,0.870,0.049,0.184,-80.023,-10.164,6.731
1747653220.74,-0.002,-0.014,0.027,0.895,0.132,0.186,-79.545,-9.067,7.793
1747653220.75,0.003,-0.022,0.007,0.921,0.180,0.195,-79.046,-8.000,8.786
1747653220.76,-0.006,-0.009,0.018,0.890,0.150,0.198,-78.547,-7.008,9.700
1747653220.77,-0.047,0.005,0.033,0.832,0.100,0.213,-78.072,-6.102,10.551
1747653220.78,-0.086,0.005,0.004,0.814,0.028,0.222,-77.619,-5.272,11.363
1747653220.79,-0.092,-0.003,-0.042,0.819,0.017,0.219,-77.163,-4.530,12.114
1747653220.80,-0.051,-0.015,0.001,0.785,0.094,0.251,-76.716,-3.784,12.848
1747653220.81,0.025,-0.035,0.065,0.806,0.167,0.267,-76.275,-2.973,13.604
1747653220.82,0.078,-0.046,0.006,0.849,0.086,0.220,-75.808,-2.240,14.277
1747653220.83,0.091,-0.044,-0.073,0.865,-0.156,0.168,-75.322,-1.767,14.785
1747653220.84,0.110,-0.038,-0.127,0.890,-0.340,0.160,-74.824,-1.515,15.198
1747653220.85,0.139,-0.022,-0.119,0.912,-0.330,0.167,-74.311,-1.330,15.596
1747653220.86,0.134,0.007,-0.052,0.878,-0.160,0.169,-73.799,-1.101,15.982
1747653220.87,0.071,0.027,0.029,0.832,0.047,0.183,-73.314,-0.766,16.365
1747653220.88,-0.018,0.032,0.052,0.845,0.184,0.172,-72.838,-0.339,16.736
1747653220.89,-0.127,0.041,0.012,0.842,0.121,0.137,-72.354,0.038,17.032
1747653220.90,-0.207,0.026,-0.023,0.773,0.004,0.133,-71.891,0.297,17.272
1747653220.91,-0.189,-0.025,0.009,0.748,0.053,0.171,-71.458,0.558,17.535
1747653220.92,-0.104,-0.076,0.023,0.793,0.156,0.204,-71.019,0.920,17.853
1747653220.93,-0.028,-0.094,-0.017,0.884,0.190,0.199,-70.539,1.330,18.180
1747653220.94,0.015,-0.078,-0.082,0.961,0.249,0.169,-70.007,1.706,18.451
1747653220.95,0.031,-0.039,-0.071,0.868,0.439,0.128,-69.473,2.082,18.645
1747653220.96,-0.021,-0.006,0.071,0.696,0.522,0.091,-69.029,2.482,18.768
1747653220.97,-0.130,0.010,0.077,0.757,0.332,0.093,-68.620,2.816,18.858
1747653220.98,-0.195,0.016,-0.095,0.810,0.184,0.142,-68.162,3.059,18.970
1747653220.99,-0.142,0.017,-0.039,0.729,0.295,0.213,-67.718,3.377,19.174
1747653221.00,-0.009,0.006,0.073,0.744,0.439,0.258,-67.293,3.854,19.458
1747653221.01,0.101,-0.012,0.045,0.806,0.438,0.259,-66.840,4.383,19.756
1747653221.02,0.187,-0.022,0.021,0.887,0.360,0.240,-66.349,4.849,20.015
1747653221.03,0.235,-0.014,0.019,0.956,0.275,0.233,-65.808,5.226,20.230
1747653221.04,0.206,0.003,0.058,0.901,0.205,0.230,-65.265,5.542,20.426
1747653221.05,0.107,0.009,0.079,0.874,0.120,0.213,-64.751,5.798,20.606
1747653221.06,0.002,-0.007,0.012,0.877,0.030,0.204,-64.240,5.980,20.761
1747653221.07,-0.066,-0.024,-0.038,0.828,-0.043,0.188,-63.742,6.102,20.901
1747653221.08,-0.085,-0.022,-0.038,0.766,-0.048,0.162,-63.280,6.175,21.015
1747653221.09,-0.059,-0.020,-0.018,0.756,-0.014,0.157,-62.841,6.240,21.108
1747653221.10,-0.020,-0.010,-0.021,0.797,-0.003,0.180,-62.392,6.327,21.211
1747653221.11,0.001,0.010,-0.030,0.891,0.013,0.190,-61.901,6.429,21.324
1747653221.12,-0.009,0.038,-0.036,0.900,0.058,0.170,-61.375,6.529,21.417
1747653221.13,-0.034,0.048,-0.010,0.820,0.146,0.128,-60.877,6.637,21.474
1747653221.14,-0.064,0.031,0.017,0.793,0.205,0.103,-60.414,6.757,21.496
1747653221.15,-0.083,0.001,-0.007,0.749,0.252,0.138,-59.966,6.911,21.523
1747653221.16,-0.055,-0.026,-0.013,0.661,0.319,0.203,-59.554,7.155,21.617
1747653221.17,-0.010,-0.041,0.024,0.606,0.353,0.264,-59.179,7.499,21.789
1747653221.18,0.012,-0.041,0.045,0.628,0.295,0.289,-58.812,7.873,22.005
1747653221.19,0.030,-0.015,-0.014,0.672,0.191,0.283,-58.421,8.192,22.215
1747653221.20,0.053,0.027,-0.053,0.733,0.085,0.245,-58.003,8.418,22.388
1747653221.21,0.051,0.059,-0.064,0.790,-0.025,0.168,-57.553,8.521,22.491
1747653221.22,0.016,0.064,-0.042,0.808,-0.074,0.085,-57.091,8.495,22.497
1747653221.23,-0.038,0.039,-0.007,0.815,-0.072,0.025,-56.627,8.395,22.428
1747653221.24,-0.082,0.005,-0.013,0.832,-0.019,-0.020,-56.161,8.265,22.305
1747653221.25,-0.092,-0.024,-0.028,0.780,0.086,-0.033,-55.704,8.161,22.158
1747653221.26,-0.065,-0.060,-0.016,0.673,0.142,0.001,-55.295,8.128,22.036
1747653221.27,-0.008,-0.091,-0.025,0.574,0.154,0.102,-54.939,8.180,21.996
1747653221.28,0.085,-0.096,-0.006,0.513,0.169,0.237,-54.621,8.346,22.086
1747653221.29,0.175,-0.051,0.043,0.536,0.164,0.313,-54.304,8.602,22.282
1747653221.30,0.214,0.028,0.057,0.632,0.124,0.341,-53.947,8.875,22.515
1747653221.31,0.193,0.093,0.031,0.746,0.043,0.305,-53.528,9.091,22.723
1747653221.32,0.120,0.112,-0.007,0.787,-0.047,0.222,-53.069,9.195,22.855
1747653221.33,0.027,0.081,-0.018,0.800,-0.151,0.147,-52.605,9.179,22.906
1747653221.34,-0.040,0.022,-0.064,0.784,-0.217,0.112,-52.145,9.070,22.905
1747653221.35,-0.039,-0.038,-0.059,0.706,-0.199,0.110,-51.713,8.942,22.898
1747653221.36,0.000,-0.084,-0.029,0.610,-0.135,0.120,-51.332,8.854,22.909
1747653221.37,0.032,-0.099,0.005,0.558,-0.099,0.136,-50.994,8.815,22.940
1747653221.38,0.040,-0.076,-0.003,0.539,-0.096,0.180,-50.672,8.810,23.004
1747653221.39,0.036,-0.027,-0.013,0.537,-0.106,0.229,-50.352,8.837,23.114
1747653221.40,0.015,0.029,0.006,0.579,-0.134,0.250,-50.016,8.873,23.252
1747653221.41,-0.020,0.068,0.044,0.644,-0.120,0.250,-49.649,8.904,23.388
1747653221.42,-0.043,0.083,0.046,0.702,-0.121,0.210,-49.248,8.920,23.498
1747653221.43,-0.042,0.078,-0.004,0.712,-0.119,0.163,-48.829,8.899,23.561
1747653221.44,-0.024,0.051,-0.024,0.664,-0.104,0.131,-48.428,8.860,23.595
1747653221.45,-0.000,0.010,-0.053,0.650,-0.039,0.108,-48.048,8.832,23.611
1747653221.46,-0.010,-0.029,-0.064,0.618,-0.109,0.084,-47.682,8.793,23.608
1747653221.47,-0.043,-0.061,-0.057,0.589,-0.199,0.095,-47.333,8.698,23.603
1747653221.48,-0.024,-0.082,-0.020,0.567,-0.207,0.119,-46.999,8.594,23.621
1747653221.49,0.003,-0.078,0.021,0.592,-0.174,0.118,-46.662,8.503,23.648
1747653221.50,0.012,-0.048,0.048,0.641,-0.099,0.089,-46.306,8.431,23.659
1747653221.51,0.019,-0.006,0.058,0.692,-0.054,0.076,-45.920,8.379,23.644
1747653221.52,0.011,0.021,0.028,0.669,-0.079,0.080,-45.528,8.330,23.624
1747653221.53,0.013,0.028,-0.026,0.646,-0.151,0.103,-45.150,8.264,23.621
1747653221.54,0.042,0.016,-0.064,0.654,-0.176,0.094,-44.776,8.169,23.633
1747653221.55,0.049,-0.008,-0.055,0.597,-0.317,0.125,-44.414,8.022,23.641
1747653221.56,0.100,-0.022,0.003,0.600,-0.303,0.207,-44.063,7.891,23.708
1747653221.57,0.123,-0.023,0.024,0.599,-0.288,0.241,-43.706,7.801,23.820
1747653221.58,0.113,-0.016,0.028,0.617,-0.247,0.265,-43.343,7.736,23.953
1747653221.59,0.102,0.001,0.014,0.633,-0.153,0.281,-42.968,7.722,24.099
1747653221.60,0.073,0.021,-0.004,0.623,-0.092,0.264,-42.590,7.755,24.244
1747653221.61,0.018,0.039,-0.039,0.609,-0.144,0.230,-42.224,7.776,24.369
1747653221.62,-0.040,0.045,-0.068,0.585,-0.263,0.203,-41.869,7.728,24.472
1747653221.63,-0.073,0.036,-0.056,0.557,-0.291,0.198,-41.531,7.626,24.565
1747653221.64,-0.068,0.018,0.006,0.550,-0.240,0.180,-41.203,7.532,24.654
1747653221.65,-0.060,0.003,0.031,0.567,-0.182,0.141,-40.876,7.455,24.719
1747653221.66,-0.060,-0.009,0.032,0.594,-0.125,0.110,-40.538,7.391,24.756
1747653221.67,-0.068,-0.012,0.030,0.599,-0.049,0.071,-40.192,7.348,24.766
1747653221.68,-0.082,-0.011,0.005,0.591,-0.010,0.040,-39.851,7.323,24.750
1747653221.69,-0.093,-0.009,-0.060,0.548,-0.022,0.025,-39.524,7.298,24.719
1747653221.70,-0.113,0.001,-0.077,0.477,-0.055,0.013,-39.233,7.252,24.686
1747653221.71,-0.118,0.020,-0.038,0.440,-0.018,-0.001,-38.974,7.207,24.650
1747653221.72,-0.095,0.053,0.012,0.449,0.032,-0.029,-38.724,7.179,24.600
1747653221.73,-0.072,0.072,0.017,0.481,0.047,-0.057,-38.463,7.158,24.526
1747653221.74,-0.061,0.065,-0.008,0.498,0.017,-0.082,-38.189,7.118,24.431
1747653221.75,-0.026,0.041,-0.040,0.491,-0.030,-0.110,-37.916,7.045,24.318
1747653221.76,0.034,0.008,-0.068,0.501,-0.054,-0.137,-37.644,6.936,24.185
1747653221.77,0.089,-0.023,-0.047,0.511,-0.044,-0.134,-37.365,6.822,24.043
1747653221.78,0.114,-0.043,-0.052,0.478,-0.069,-0.099,-37.092,6.716,23.917
1747653221.79,0.107,-0.045,-0.074,0.453,-0.136,-0.045,-36.830,6.603,23.827
1747653221.80,0.092,-0.022,-0.038,0.394,-0.143,0.029,-36.590,6.498,23.788
1747653221.81,0.090,0.005,0.030,0.372,-0.126,0.082,-36.370,6.427,23.799
1747653221.82,0.087,0.022,0.023,0.372,-0.122,0.112,-36.151,6.380,23.837
1747653221.83,0.077,0.015,-0.007,0.325,-0.138,0.130,-35.945,6.341,23.894
1747653221.84,0.056,-0.007,-0.038,0.312,-0.149,0.138,-35.757,6.298,23.963
1747653221.85,0.030,-0.022,-0.034,0.310,-0.135,0.143,-35.571,6.259,24.037
1747653221.86,0.014,-0.019,-0.039,0.291,-0.120,0.141,-35.391,6.232,24.113
1747653221.87,-0.008,-0.005,-0.044,0.281,-0.107,0.115,-35.222,6.206,24.181
1747653221.88,-0.036,0.007,-0.016,0.267,-0.067,0.095,-35.059,6.185,24.233
1747653221.89,-0.048,0.009,0.006,0.227,-0.015,0.079,-34.914,6.186,24.274
1747653221.90,-0.045,-0.000,-0.004,0.201,-0.019,0.072,-34.788,6.199,24.311
1747653221.91,-0.020,-0.011,-0.015,0.192,-0.038,0.095,-34.672,6.206,24.353
1747653221.92,0.022,-0.008,-0.024,0.195,-0.080,0.129,-34.555,6.208,24.415
1747653221.93,0.062,0.014,-0.057,0.189,-0.119,0.143,-34.438,6.195,24.495
1747653221.94,0.070,0.045,-0.068,0.193,-0.108,0.135,-34.320,6.173,24.577
1747653221.95,0.043,0.056,-0.054,0.197,-0.051,0.114,-34.202,6.168,24.649
1747653221.96,-0.015,0.041,-0.033,0.193,0.001,0.090,-34.085,6.186,24.704
1747653221.97,-0.071,0.014,-0.032,0.184,0.027,0.066,-33.973,6.217,24.744
1747653221.98,-0.086,-0.010,-0.035,0.165,0.036,0.051,-33.870,6.251,24.770
1747653221.99,-0.060,-0.018,-0.035,0.126,0.015,0.058,-33.782,6.282,24.796
1747653222.00,-0.018,-0.006,-0.027,0.098,0.001,0.056,-33.716,6.304,24.828
1747653222.01,0.019,0.026,-0.001,0.097,-0.004,0.044,-33.657,6.320,24.856
1747653222.02,0.025,0.062,-0.012,0.080,-0.010,0.037,-33.604,6.328,24.878
1747653222.03,0.003,0.071,-0.051,0.036,-0.004,0.022,-33.569,6.334,24.893
1747653222.04,-0.020,0.054,-0.076,-0.000,0.009,0.028,-33.559,6.341,24.907
1747653222.05,-0.032,0.022,-0.087,-0.033,0.058,0.014,-33.567,6.367,24.924
1747653222.06,-0.054,0.005,-0.061,-0.056,0.103,-0.024,-33.593,6.411,24.923
1747653222.07,-0.062,-0.008,-0.034,-0.060,0.115,-0.032,-33.629,6.465,24.907
1747653222.08,-0.040,-0.014,-0.041,-0.065,0.104,-0.028,-33.664,6.517,24.891
1747653222.09,0.004,0.009,-0.054,-0.098,0.099,-0.049,-33.712,6.567,24.872
1747653222.10,0.049,0.038,-0.093,-0.132,0.015,-0.065,-33.782,6.584,24.841
1747653222.11,0.056,0.049,-0.121,-0.183,-0.056,-0.059,-33.876,6.554,24.810
1747653222.12,0.048,0.048,-0.092,-0.227,-0.063,-0.049,-33.997,6.507,24.790
1747653222.13,0.043,0.041,-0.068,-0.254,-0.043,-0.042,-34.137,6.468,24.778
1747653222.14,0.034,0.031,-0.047,-0.272,-0.009,-0.041,-34.288,6.447,24.769
1747653222.15,0.032,0.014,-0.031,-0.286,-0.012,-0.056,-34.448,6.435,24.756
1747653222.16,0.037,-0.020,-0.052,-0.322,-0.043,-0.071,-34.622,6.405,24.735
1747653222.17,0.058,-0.057,-0.090,-0.402,-0.020,-0.075,-34.831,6.372,24.713
1747653222.18,0.081,-0.069,-0.132,-0.490,0.016,-0.069,-35.088,6.364,24.696
1747653222.19,0.056,-0.058,-0.136,-0.569,-0.015,-0.036,-35.391,6.369,24.698
1747653222.20,-0.002,-0.035,-0.078,-0.623,-0.025,0.028,-35.729,6.380,24.742
1747653222.21,-0.010,-0.001,-0.027,-0.656,0.013,0.061,-36.090,6.428,24.826
1747653222.22,0.008,0.042,-0.023,-0.661,0.033,0.037,-36.462,6.494,24.914
1747653222.23,0.017,0.066,-0.030,-0.668,0.032,-0.003,-36.835,6.552,24.979
1747653222.24,0.032,0.060,-0.029,-0.693,-0.014,-0.022,-37.223,6.587,25.024
1747653222.25,0.051,0.029,-0.050,-0.679,-0.079,-0.026,-37.615,6.584,25.063
1747653222.26,0.056,-0.002,-0.059,-0.687,-0.129,-0.026,-38.004,6.546,25.101
1747653222.27,0.032,-0.026,-0.062,-0.709,-0.144,-0.039,-38.403,6.489,25.135
1747653222.28,-0.009,-0.044,-0.074,-0.726,-0.150,-0.046,-38.814,6.420,25.162
1747653222.29,-0.045,-0.059,-0.064,-0.740,-0.087,-0.049,-39.232,6.366,25.188
1747653222.30,-0.063,-0.064,-0.054,-0.779,-0.001,-0.060,-39.667,6.355,25.210
1747653222.31,-0.066,-0.067,-0.055,-0.813,0.049,-0.073,-40.124,6.381,25.226
1747653222.32,-0.054,-0.075,-0.047,-0.843,0.074,-0.069,-40.599,6.427,25.242
1747653222.33,-0.026,-0.075,-0.025,-0.855,0.125,-0.058,-41.086,6.499,25.267
1747653222.34,-0.001,-0.065,-0.024,-0.850,0.137,-0.054,-41.572,6.598,25.300
1747653222.35,-0.005,-0.051,-0.053,-0.856,0.082,-0.064,-42.059,6.680,25.330
1747653222.36,-0.014,-0.042,-0.066,-0.865,0.059,-0.081,-42.551,6.732,25.352
1747653222.37,-0.013,-0.040,-0.048,-0.875,0.068,-0.101,-43.052,6.774,25.362
1747653222.38,-0.008,-0.049,-0.054,-0.883,0.085,-0.117,-43.557,6.816,25.358
1747653222.39,-0.001,-0.061,-0.059,-0.921,0.103,-0.120,-44.076,6.863,25.349
1747653222.40,0.016,-0.071,-0.046,-0.972,0.121,-0.101,-44.620,6.928,25.352
1747653222.41,0.047,-0.072,-0.030,-1.001,0.141,-0.070,-45.186,7.023,25.381
1747653222.42,0.077,-0.058,-0.003,-1.006,0.150,-0.044,-45.759,7.146,25.436
1747653222.43,0.088,-0.029,0.008,-1.018,0.148,-0.031,-46.336,7.285,25.512
1747653222.44,0.074,0.002,0.004,-1.021,0.115,-0.036,-46.916,7.420,25.593
1747653222.45,0.040,0.023,-0.026,-1.015,0.037,-0.047,-47.496,7.521,25.669
1747653222.46,0.005,0.030,-0.056,-1.036,-0.055,-0.059,-48.080,7.565,25.737
1747653222.47,-0.007,0.023,-0.061,-1.092,-0.091,-0.068,-48.686,7.570,25.803
1747653222.48,0.003,0.006,-0.039,-1.108,-0.070,-0.077,-49.316,7.572,25.868
1747653222.49,0.015,-0.009,-0.012,-1.103,-0.052,-0.091,-49.949,7.580,25.923
1747653222.50,0.018,-0.013,-0.001,-1.116,-0.024,-0.102,-50.583,7.591,25.967
1747653222.51,0.019,-0.007,0.010,-1.128,0.021,-0.114,-51.225,7.620,26.004
1747653222.52,0.012,0.001,0.003,-1.140,0.026,-0.120,-51.877,7.661,26.037
1747653222.53,-0.005,0.010,-0.001,-1.149,0.012,-0.115,-52.534,7.698,26.071
1747653222.54,-0.016,0.015,0.012,-1.163,0.015,-0.113,-53.197,7.736,26.110
1747653222.55,-0.017,0.014,0.015,-1.156,0.037,-0.126,-53.863,7.780,26.148
1747653222.56,-0.014,0.008,-0.013,-1.143,0.059,-0.154,-54.524,7.822,26.165
1747653222.57,-0.013,-0.001,-0.028,-1.150,0.066,-0.184,-55.184,7.849,26.154
1747653222.58,-0.009,-0.010,-0.043,-1.189,0.066,-0.209,-55.860,7.855,26.117
1747653222.59,0.005,-0.020,-0.043,-1.208,0.081,-0.221,-56.557,7.856,26.066
1747653222.60,0.013,-0.024,-0.031,-1.206,0.068,-0.234,-57.257,7.847,26.003
1747653222.61,0.003,-0.022,-0.012,-1.214,0.081,-0.241,-57.959,7.824,25.928
1747653222.62,-0.008,-0.019,0.011,-1.207,0.096,-0.238,-58.664,7.808,25.849
1747653222.63,-0.025,-0.017,0.001,-1.179,0.052,-0.230,-59.358,7.784,25.769
1747653222.64,-0.042,-0.017,-0.043,-1.179,-0.033,-0.219,-60.041,7.727,25.698
1747653222.65,-0.042,-0.020,-0.056,-1.208,-0.070,-0.220,-60.733,7.638,25.633
1747653222.66,-0.021,-0.030,-0.046,-1.200,-0.057,-0.251,-61.434,7.526,25.545
1747653222.67,0.006,-0.041,-0.046,-1.162,-0.027,-0.297,-62.122,7.374,25.402
1747653222.68,0.023,-0.052,-0.029,-1.161,0.029,-0.341,-62.802,7.187,25.190
1747653222.69,0.024,-0.059,-0.014,-1.157,0.051,-0.371,-63.484,6.972,24.922
1747653222.70,0.017,-0.065,-0.037,-1.155,0.031,-0.372,-64.164,6.726,24.621
1747653222.71,0.009,-0.068,-0.051,-1.164,0.004,-0.360,-64.847,6.460,24.315
1747653222.72,0.011,-0.071,-0.047,-1.160,0.045,-0.325,-65.529,6.211,24.028
1747653222.73,0.024,-0.079,-0.024,-1.157,0.094,-0.304,-66.205,6.011,23.764
1747653222.74,0.038,-0.085,-0.034,-1.152,0.105,-0.296,-66.879,5.835,23.508
1747653222.75,0.057,-0.088,-0.042,-1.164,0.079,-0.282,-67.553,5.655,23.254
1747653222.76,0.080,-0.079,-0.036,-1.146,0.011,-0.250,-68.225,5.465,23.021
1747653222.77,0.087,-0.058,-0.035,-1.172,-0.019,-0.230,-68.894,5.271,22.820
1747653222.78,0.079,-0.028,0.028,-1.190,0.069,-0.228,-69.579,5.103,22.626
1747653222.79,0.056,-0.005,0.047,-1.174,0.107,-0.219,-70.262,4.972,22.428
1747653222.80,0.007,0.002,0.008,-1.176,0.065,-0.221,-70.942,4.832,22.225
1747653222.80,-0.032,-0.001,-0.006,-1.135,-0.002,-0.231,-71.612,4.633,21.996
1747653222.81,-0.038,-0.013,-0.036,-1.065,-0.029,-0.223,-72.248,4.375,21.736
1747653222.83,-0.013,-0.027,-0.048,-1.048,-0.012,-0.215,-72.855,4.106,21.468
1747653222.83,0.003,-0.026,-0.016,-1.085,0.066,-0.237,-73.472,3.838,21.172
1747653222.85,-0.011,-0.018,0.019,-1.059,0.146,-0.260,-74.094,3.549,20.808
1747653222.86,-0.044,0.000,0.013,-1.044,0.198,-0.272,-74.700,3.232,20.377
1747653222.86,-0.082,0.016,0.050,-1.081,0.242,-0.251,-75.314,2.922,19.926
1747653222.87,-0.106,0.009,0.065,-1.040,0.234,-0.251,-75.929,2.620,19.471
1747653222.88,-0.101,-0.011,-0.013,-1.020,0.194,-0.264,-76.518,2.245,18.960
1747653222.89,-0.059,-0.035,-0.031,-1.078,0.213,-0.264,-77.122,1.802,18.390
1747653222.90,0.002,-0.058,0.026,-1.097,0.248,-0.262,-77.749,1.339,17.777
1747653222.91,0.041,-0.064,0.023,-1.043,0.174,-0.266,-78.366,0.807,17.106
1747653222.92,0.051,-0.054,-0.037,-0.951,0.036,-0.263,-78.936,0.130,16.353
1747653222.93,0.056,-0.025,-0.068,-0.852,-0.038,-0.245,-79.450,-0.653,15.561
1747653222.94,0.071,0.012,-0.068,-0.758,0.010,-0.222,-79.906,-1.436,14.777
1747653222.95,0.062,0.045,-0.067,-0.711,0.100,-0.244,-80.318,-2.227,13.942
1747653222.96,0.015,0.047,-0.018,-0.710,0.173,-0.297,-80.715,-3.174,12.900
1747653222.97,-0.033,0.024,-0.000,-0.731,0.188,-0.316,-81.114,-4.346,11.609
1747653222.98,-0.072,0.013,-0.044,-0.749,0.221,-0.300,-81.520,-5.631,10.193
1747653222.99,-0.100,0.004,-0.011,-0.771,0.255,-0.274,-81.933,-6.938,8.732
1747653223.00,-0.121,-0.015,0.032,-0.806,0.263,-0.258,-82.361,-8.316,7.193
1747653223.01,-0.106,-0.047,0.028,-0.821,0.305,-0.246,-82.798,-9.809,5.523
1747653223.02,-0.051,-0.076,0.026,-0.804,0.290,-0.218,-83.231,-11.402,3.745
1747653223.03,0.000,-0.090,-0.001,-0.765,0.229,-0.189,-83.645,-13.061,1.925
1747653223.04,0.034,-0.065,-0.032,-0.738,0.138,-0.181,-84.035,-14.848,0.023
1747653223.05,0.043,-0.020,-0.038,-0.718,0.091,-0.213,-84.405,-16.967,-2.170
1747653223.06,0.045,0.012,-0.017,-0.659,0.101,-0.254,-84.737,-19.545,-4.815
1747653223.07,0.044,0.043,-0.014,-0.611,0.109,-0.275,-85.019,-22.511,-7.852
1747653223.08,0.019,0.066,-0.004,-0.596,0.111,-0.279,-85.268,-25.792,-11.209
1747653223.09,-0.015,0.071,0.010,-0.621,0.083,-0.289,-85.500,-29.519,-15.002
1747653223.10,-0.044,0.058,0.018,-0.629,0.134,-0.307,-85.714,-33.787,-19.343
1747653223.11,-0.057,0.015,0.067,-0.650,0.144,-0.311,-85.903,-38.596,-24.250
1747653223.12,-0.055,-0.043,0.061,-0.682,0.080,-0.304,-86.073,-43.994,-29.726
1747653223.13,-0.029,-0.085,0.015,-0.709,0.043,-0.287,-86.221,-49.997,-35.774
1747653223.14,0.014,-0.089,0.008,-0.699,0.041,-0.279,-86.333,-56.422,-42.236
1747653223.15,0.043,-0.067,0.015,-0.702,0.036,-0.262,-86.400,-63.060,-48.910
1747653223.16,0.052,-0.026,0.024,-0.705,0.010,-0.247,-86.429,-69.883,-55.760
1747653223.17,0.048,0.027,0.014,-0.665,-0.074,-0.247,-86.407,-76.561,-62.434
1747653223.18,0.022,0.068,-0.022,-0.588,-0.137,-0.261,-86.329,-82.597,-68.419
1747653223.19,0.006,0.080,-0.061,-0.503,-0.135,-0.272,-86.204,-87.634,-73.387
1747653223.20,0.006,0.065,-0.075,-0.446,-0.065,-0.277,-86.049,-91.686,-77.389
1747653223.21,0.003,0.035,-0.060,-0.433,0.057,-0.269,-85.877,-95.088,-80.796
1747653223.22,-0.002,0.004,-0.041,-0.416,0.194,-0.239,-85.705,-98.076,-83.863
1747653223.23,-0.011,-0.008,-0.035,-0.381,0.246,-0.203,-85.544,-100.610,-86.536
1747653223.24,-0.039,-0.001,-0.025,-0.367,0.172,-0.173,-85.395,-102.832,-88.885
1747653223.25,-0.071,0.009,-0.002,-0.405,0.131,-0.139,-85.256,-105.082,-91.226
1747653223.26,-0.078,0.004,0.038,-0.468,0.208,-0.101,-85.120,-107.615,-93.861
1747653223.27,-0.053,-0.031,0.070,-0.513,0.338,-0.060,-84.985,-110.358,-96.770
1747653223.28,-0.014,-0.072,0.075,-0.514,0.424,-0.023,-84.853,-113.125,-99.767
1747653223.29,0.013,-0.086,0.054,-0.459,0.444,-0.008,-84.731,-115.622,-102.528
1747653223.30,0.023,-0.068,0.012,-0.412,0.417,-0.025,-84.612,-117.707,-104.869
1747653223.31,0.021,-0.021,0.017,-0.372,0.375,-0.068,-84.482,-119.414,-106.811
1747653223.32,0.005,0.037,0.029,-0.317,0.282,-0.111,-84.339,-120.707,-108.301
1747653223.33,-0.025,0.071,0.013,-0.237,0.159,-0.128,-84.197,-121.572,-109.298
1747653223.34,-0.056,0.055,-0.004,-0.191,0.059,-0.110,-84.075,-122.152,-109.939
1747653223.35,-0.065,0.013,-0.011,-0.190,0.052,-0.073,-83.973,-122.733,-110.552
1747653223.36,-0.043,-0.017,-0.021,-0.189,0.075,-0.052,-83.884,-123.377,-111.237
1747653223.37,-0.012,-0.024,-0.043,-0.173,0.081,-0.042,-83.804,-123.995,-111.903
1747653223.38,0.012,-0.024,-0.041,-0.189,0.108,-0.027,-83.731,-124.596,-112.561
1747653223.39,0.030,-0.020,-0.008,-0.272,0.118,-0.005,-83.649,-125.450,-113.487
1747653223.40,0.038,-0.024,0.004,-0.348,0.115,0.007,-83.545,-126.675,-114.786
1747653223.41,0.043,-0.029,0.011,-0.381,0.148,0.001,-83.420,-128.074,-116.270
1747653223.42,0.045,-0.031,0.035,-0.363,0.139,-0.016,-83.282,-129.406,-117.694
1747653223.43,0.045,-0.022,0.033,-0.267,0.092,-0.036,-83.154,-130.436,-118.798
1747653223.44,0.048,0.004,0.012,-0.137,0.030,-0.046,-83.061,-130.987,-119.390
1747653223.45,0.050,0.027,-0.006,-0.045,-0.062,-0.051,-83.007,-131.157,-119.551
1747653223.46,0.039,0.039,-0.010,-0.028,-0.139,-0.057,-82.972,-131.167,-119.502
1747653223.47,0.018,0.034,-0.004,-0.074,-0.210,-0.051,-82.930,-131.264,-119.500
1747653223.48,0.002,0.001,-0.001,-0.147,-0.246,-0.053,-82.869,-131.621,-119.726
1747653223.49,-0.006,-0.035,0.023,-0.230,-0.224,-0.070,-82.773,-132.222,-120.196
1747653223.50,-0.005,-0.058,0.035,-0.279,-0.166,-0.092,-82.641,-132.968,-120.833
1747653223.51,0.003,-0.064,0.023,-0.261,-0.089,-0.126,-82.490,-133.622,-121.419
1747653223.52,0.006,-0.075,0.003,-0.209,-0.014,-0.154,-82.338,-133.967,-121.737
1747653223.53,-0.009,-0.101,-0.013,-0.178,0.034,-0.144,-82.201,-134.105,-121.883
1747653223.54,-0.028,-0.075,-0.013,-0.170,0.079,-0.125,-82.077,-134.198,-122.010
1747653223.55,-0.051,-0.052,-0.011,-0.187,0.101,-0.105,-81.961,-134.332,-122.198
1747653223.56,-0.072,-0.022,-0.002,-0.211,0.109,-0.085,-81.842,-134.580,-122.509
1747653223.57,-0.091,-0.000,0.001,-0.221,0.100,-0.084,-81.720,-134.889,-122.883
1747653223.58,-0.091,-0.002,0.006,-0.232,0.118,-0.067,-81.599,-135.239,-123.299
1747653223.59,-0.067,0.002,0.031,-0.268,0.121,-0.057,-81.473,-135.667,-123.801
1747653223.60,-0.030,0.004,0.033,-0.308,0.139,-0.024,-81.337,-136.235,-124.450
1747653223.61,0.024,-0.004,0.039,-0.312,0.207,0.022,-81.208,-136.927,-125.249
1747653223.62,0.073,-0.024,0.068,-0.341,0.257,0.064,-81.090,-137.718,-126.186
1747653223.63,0.095,-0.014,0.096,-0.394,0.312,0.088,-80.961,-138.650,-127.293
1747653223.64,0.090,-0.008,0.098,-0.339,0.299,0.093,-80.833,-139.597,-128.432
1747653223.65,0.055,0.001,0.051,-0.174,0.184,0.090,-80.754,-140.292,-129.279
1747653223.66,-0.002,0.036,0.002,-0.069,0.002,0.062,-80.732,-140.707,-129.753
1747653223.67,-0.045,0.077,0.008,-0.027,-0.173,0.025,-80.726,-140.982,-129.979
1747653223.68,-0.035,0.100,0.001,0.033,-0.319,0.003,-80.732,-141.159,-130.015
1747653223.69,0.003,0.090,-0.046,0.106,-0.433,-0.028,-80.759,-141.191,-129.828
1747653223.70,0.041,0.058,-0.065,0.156,-0.471,-0.051,-80.803,-141.047,-129.416
1747653223.71,0.068,0.041,-0.050,0.142,-0.444,-0.049,-80.853,-140.823,-128.923
1747653223.72,0.064,0.039,-0.028,0.083,-0.349,-0.019,-80.889,-140.702,-128.569
1747653223.73,0.017,0.034,-0.013,0.050,-0.249,0.012,-80.917,-140.718,-128.413
1747653223.74,-0.064,0.020,-0.010,0.042,-0.156,0.018,-80.942,-140.779,-128.358
1747653223.75,-0.137,0.001,-0.008,0.061,-0.066,0.008,-80.970,-140.761,-128.276
1747653223.76,-0.169,-0.032,-0.004,0.087,0.026,-0.003,-81.004,-140.612,-128.114
1747653223.77,-0.157,-0.055,0.003,0.102,0.138,0.000,-81.046,-140.345,-127.889
1747653223.78,-0.119,-0.042,0.002,0.097,0.247,0.012,-81.093,-140.013,-127.667
1747653223.79,-0.090,-0.001,0.005,0.091,0.279,0.026,-81.141,-139.697,-127.501
1747653223.80,-0.073,0.033,0.009,0.134,0.303,0.043,-81.201,-139.375,-127.342
1747653223.81,-0.047,0.039,0.018,0.184,0.331,0.068,-81.291,-138.953,-127.099
1747653223.82,-0.009,0.014,0.027,0.164,0.374,0.098,-81.398,-138.548,-126.892
1747653223.83,0.035,-0.025,0.032,0.114,0.413,0.124,-81.500,-138.294,-126.864
1747653223.84,0.065,-0.047,0.023,0.099,0.385,0.133,-81.593,-138.173,-126.973
1747653223.85,0.065,-0.035,0.002,0.104,0.305,0.113,-81.684,-138.069,-127.069
1747653223.86,0.048,-0.009,-0.011,0.108,0.192,0.077,-81.765,-137.928,-127.072
1747653223.87,0.024,0.018,-0.012,0.141,0.070,0.040,-81.840,-137.693,-126.911
1747653223.88,-0.005,0.026,-0.004,0.188,-0.052,0.016,-81.919,-137.314,-126.532
1747653223.89,-0.024,0.012,0.016,0.192,-0.107,0.015,-82.006,-136.870,-126.035
1747653223.90,-0.021,-0.011,0.038,0.156,-0.102,0.017,-82.085,-136.496,-125.597
1747653223.91,-0.006,-0.026,0.044,0.133,-0.087,0.009,-82.150,-136.180,-125.222
1747653223.92,0.006,-0.034,0.043,0.140,-0.081,0.014,-82.210,-135.870,-124.862
1747653223.93,0.005,-0.034,0.036,0.158,-0.095,0.011,-82.276,-135.523,-124.460
1747653223.94,-0.005,-0.021,0.032,0.167,-0.116,0.016,-82.348,-135.140,-124.014
1747653223.95,-0.011,-0.006,0.027,0.178,-0.148,0.020,-82.424,-134.749,-123.543
1747653223.96,-0.015,0.008,0.019,0.210,-0.163,0.027,-82.511,-134.317,-123.016
1747653223.97,-0.012,0.021,0.019,0.249,-0.154,0.033,-82.614,-133.777,-122.381
1747653223.98,-0.017,0.021,0.017,0.282,-0.153,0.037,-82.728,-133.129,-121.639
1747653223.99,-0.019,0.009,0.011,0.274,-0.144,0.046,-82.848,-132.445,-120.862
1747653224.00,-0.012,-0.010,0.005,0.247,-0.105,0.055,-82.964,-131.844,-120.183
1747653224.01,-0.004,-0.028,0.010,0.257,-0.063,0.063,-83.076,-131.272,-119.557
1747653224.02,-0.003,-0.029,0.008,0.305,-0.041,0.066,-83.200,-130.555,-118.805
1747653224.03,-0.014,-0.010,-0.001,0.375,-0.008,0.063,-83.345,-129.554,-117.782
1747653224.04,-0.030,0.014,-0.001,0.437,0.005,0.064,-83.513,-128.200,-116.420
1747653224.05,-0.050,0.024,-0.001,0.458,0.013,0.071,-83.700,-126.583,-114.798
1747653224.06,-0.066,0.015,0.011,0.442,0.022,0.081,-83.885,-124.882,-113.097
1747653224.07,-0.068,-0.010,0.014,0.435,0.072,0.102,-84.068,-123.161,-111.392
1747653224.08,-0.045,-0.035,0.010,0.446,0.108,0.123,-84.256,-121.363,-109.638
1747653224.09,-0.018,-0.041,-0.005,0.461,0.070,0.138,-84.452,-119.431,-107.749
1747653224.10,0.005,-0.030,-0.014,0.468,0.020,0.148,-84.650,-117.362,-105.697
1747653224.11,0.035,-0.017,-0.008,0.500,-0.021,0.167,-84.852,-115.111,-103.436
1747653224.12,0.065,-0.010,0.006,0.557,-0.047,0.183,-85.066,-112.465,-100.759
1747653224.13,0.074,0.002,0.013,0.614,-0.134,0.185,-85.284,-109.269,-97.502
1747653224.14,0.061,0.012,-0.009,0.682,-0.292,0.184,-85.495,-105.387,-93.487
1747653224.15,0.040,0.019,-0.045,0.719,-0.453,0.179,-85.687,-100.826,-88.697
1747653224.16,0.018,0.023,-0.034,0.726,-0.502,0.172,-85.847,-95.778,-83.355
1747653224.17,0.015,0.017,0.025,0.742,-0.393,0.171,-85.967,-90.271,-77.574
1747653224.18,0.011,0.008,0.076,0.767,-0.296,0.165,-86.042,-84.223,-71.317
1747653224.19,-0.014,0.009,0.085,0.793,-0.302,0.151,-86.061,-77.803,-64.715
1747653224.20,-0.051,0.012,0.067,0.796,-0.387,0.141,-86.020,-71.331,-58.032
1747653224.21,-0.086,0.005,0.066,0.761,-0.394,0.148,-85.931,-65.250,-51.708
1747653224.22,-0.090,-0.011,0.102,0.744,-0.335,0.165,-85.813,-59.639,-45.873
1747653224.23,-0.081,-0.027,0.100,0.785,-0.283,0.177,-85.657,-54.211,-40.255
1747653224.24,-0.069,-0.036,0.058,0.823,-0.254,0.186,-85.452,-48.889,-34.763
1747653224.25,-0.045,-0.018,0.022,0.835,-0.158,0.173,-85.199,-43.934,-29.671
1747653224.26,-0.019,0.017,0.032,0.827,-0.087,0.178,-84.909,-39.485,-25.138
1747653224.27,-0.003,0.046,0.032,0.802,-0.097,0.199,-84.605,-35.517,-21.102
1747653224.28,-0.010,0.063,0.013,0.775,-0.138,0.224,-84.299,-31.968,-17.469
1747653224.29,-0.034,0.056,-0.000,0.752,-0.117,0.229,-83.987,-28.804,-14.212
1747653224.30,-0.042,0.028,0.030,0.717,0.040,0.224,-83.674,-25.971,-11.337
1747653224.31,-0.035,-0.011,0.080,0.678,0.210,0.196,-83.363,-23.470,-8.893
1747653224.32,-0.028,-0.037,0.097,0.672,0.284,0.187,-83.049,-21.259,-6.813
1747653224.33,-0.015,-0.043,0.066,0.664,0.261,0.209,-82.728,-19.205,-4.902
1747653224.34,-0.002,-0.030,0.036,0.652,0.182,0.231,-82.411,-17.254,-3.065
1747653224.35,0.001,-0.010,0.003,0.663,0.056,0.228,-82.088,-15.480,-1.342
1747653224.36,0.006,0.007,-0.016,0.649,-0.034,0.221,-81.758,-13.930,0.221
1747653224.37,0.014,0.011,-0.000,0.662,-0.029,0.189,-81.423,-12.600,1.586
1747653224.38,0.011,-0.001,-0.014,0.693,0.029,0.140,-81.063,-11.477,2.723
1747653224.39,0.007,-0.018,-0.036,0.716,0.066,0.094,-80.679,-10.566,3.618
1747653224.40,0.015,-0.031,-0.071,0.727,0.124,0.076,-80.281,-9.803,4.338
1747653224.41,0.043,-0.031,-0.033,0.726,0.198,0.094,-79.881,-9.056,5.002
1747653224.42,0.057,-0.021,0.035,0.748,0.219,0.136,-79.475,-8.230,5.717
1747653224.43,0.026,-0.003,0.024,0.761,0.107,0.185,-79.059,-7.347,6.518
1747653224.44,-0.012,0.001,-0.022,0.759,-0.054,0.235,-78.642,-6.462,7.405
1747653224.45,-0.022,-0.012,-0.047,0.743,-0.085,0.267,-78.230,-5.586,8.348
1747653224.46,0.005,-0.027,-0.029,0.701,0.059,0.258,-77.832,-4.715,9.248
1747653224.47,0.039,-0.046,0.003,0.656,0.164,0.247,-77.458,-3.862,10.051
1747653224.48,0.054,-0.065,-0.009,0.679,0.129,0.249,-77.089,-3.055,10.789
1747653224.49,0.061,-0.074,-0.033,0.759,0.059,0.276,-76.687,-2.281,11.528
1747653224.50,0.069,-0.055,-0.014,0.836,-0.036,0.303,-76.236,-1.521,12.302
1747653224.51,0.057,-0.014,-0.030,0.841,-0.098,0.313,-75.757,-0.815,13.073
1747653224.52,0.031,0.024,-0.021,0.750,-0.085,0.308,-75.303,-0.164,13.801
1747653224.53,-0.012,0.032,0.029,0.701,-0.081,0.283,-74.892,0.422,14.456
1747653224.54,-0.076,0.020,0.009,0.731,-0.032,0.263,-74.481,0.939,15.027
1747653224.55,-0.105,0.003,0.005,0.717,0.046,0.256,-74.063,1.438,15.541
1747653224.56,-0.102,-0.009,0.016,0.684,0.098,0.247,-73.659,1.932,16.013
1747653224.57,-0.089,-0.014,0.001,0.689,0.142,0.229,-73.263,2.408,16.438
1747653224.58,-0.065,-0.013,-0.008,0.714,0.141,0.210,-72.857,2.844,16.808
1747653224.59,-0.043,0.002,-0.029,0.744,0.119,0.192,-72.436,3.213,17.118
1747653224.60,-0.020,0.025,-0.009,0.788,0.097,0.184,-71.994,3.528,17.383
1747653224.61,-0.005,0.043,0.006,0.821,0.073,0.184,-71.527,3.808,17.627
1747653224.62,-0.019,0.049,-0.005,0.784,0.040,0.174,-71.060,4.050,17.849
1747653224.63,-0.052,0.038,-0.017,0.721,0.062,0.148,-70.625,4.251,18.034
1747653224.64,-0.068,-0.002,-0.002,0.691,0.123,0.126,-70.220,4.434,18.173
1747653224.65,-0.061,-0.041,-0.010,0.688,0.201,0.118,-69.821,4.629,18.283
1747653224.66,-0.039,-0.060,-0.016,0.655,0.251,0.136,-69.432,4.866,18.398
1747653224.67,-0.006,-0.065,-0.012,0.663,0.299,0.150,-69.053,5.153,18.536
1747653224.68,0.036,-0.048,-0.022,0.729,0.270,0.179,-68.648,5.466,18.691
1747653224.69,0.075,-0.018,-0.043,0.762,0.146,0.186,-68.210,5.742,18.854
1747653224.70,0.103,0.014,-0.042,0.761,0.121,0.245,-67.767,6.004,19.057
1747653224.71,0.125,0.032,0.006,0.751,0.169,0.270,-67.320,6.336,19.328
1747653224.72,0.094,0.026,0.034,0.718,0.173,0.235,-66.888,6.667,19.577
1747653224.73,0.030,-0.003,0.009,0.730,0.057,0.196,-66.465,6.905,19.761
1747653224.74,-0.021,-0.033,-0.071,0.741,-0.128,0.196,-66.031,7.018,19.907
1747653224.75,-0.008,-0.056,-0.106,0.662,-0.223,0.230,-65.616,7.070,20.080
1747653224.76,0.055,-0.069,-0.036,0.618,-0.178,0.257,-65.240,7.158,20.306
1747653224.77,0.095,-0.071,0.021,0.646,-0.140,0.267,-64.864,7.294,20.553
1747653224.78,0.073,-0.052,0.030,0.701,-0.174,0.227,-64.464,7.401,20.769
1747653224.79,0.037,0.001,0.000,0.696,-0.193,0.176,-64.048,7.417,20.909
1747653224.80,0.024,0.065,0.003,0.578,-0.106,0.162,-63.675,7.426,21.016
1747653224.81,-0.012,0.112,0.049,0.541,-0.094,0.146,-63.351,7.465,21.117
1747653224.82,-0.083,0.126,0.024,0.566,-0.169,0.161,-63.026,7.476,21.214
1747653224.83,-0.100,0.098,0.004,0.586,-0.153,0.214,-62.686,7.499,21.351
1747653224.84,-0.068,0.052,0.011,0.610,-0.093,0.241,-62.330,7.601,21.543
1747653224.85,-0.050,0.009,-0.000,0.633,-0.092,0.198,-61.962,7.694,21.706
1747653224.86,-0.046,-0.029,-0.018,0.615,-0.067,0.183,-61.593,7.755,21.830
1747653224.87,-0.032,-0.058,0.004,0.589,-0.018,0.183,-61.239,7.837,21.950
1747653224.88,-0.032,-0.068,-0.026,0.565,-0.020,0.178,-60.897,7.930,22.068
1747653224.89,-0.039,-0.060,-0.044,0.554,0.016,0.173,-60.568,8.023,22.179
1747653224.90,-0.035,-0.040,-0.034,0.551,0.033,0.152,-60.243,8.126,22.279
1747653224.91,-0.022,-0.016,-0.034,0.571,0.023,0.123,-59.917,8.196,22.342
1747653224.92,0.017,-0.003,-0.021,0.614,0.019,0.120,-59.573,8.244,22.381
1747653224.93,0.064,-0.003,-0.006,0.669,-0.012,0.133,-59.202,8.279,22.418
1747653224.94,0.083,-0.006,-0.009,0.745,-0.050,0.148,-58.790,8.297,22.460
1747653224.95,0.066,-0.014,-0.055,0.796,-0.071,0.106,-58.339,8.289,22.470
1747653224.96,0.047,-0.025,-0.074,0.727,-0.056,0.155,-57.898,8.265,22.488
1747653224.97,0.061,-0.029,-0.063,0.661,0.023,0.187,-57.493,8.319,22.566
1747653224.98,0.049,-0.037,-0.038,0.618,0.077,0.186,-57.117,8.432,22.661
1747653224.99,0.018,-0.048,-0.011,0.612,0.036,0.193,-56.755,8.552,22.763
1747653225.00,-0.009,-0.058,-0.035,0.629,-0.020,0.211,-56.387,8.649,22.874
1747653225.01,-0.012,-0.057,-0.044,0.645,-0.040,0.213,-56.010,8.729,22.991
1747653225.02,-0.012,-0.051,-0.032,0.687,-0.071,0.182,-55.618,8.779,23.090
1747653225.03,-0.035,-0.043,-0.025,0.751,-0.076,0.130,-55.198,8.772,23.135
1747653225.04,-0.065,-0.033,-0.006,0.766,-0.046,0.079,-54.757,8.724,23.121
1747653225.05,-0.074,-0.027,0.007,0.712,0.028,0.068,-54.333,8.681,23.076
1747653225.06,-0.040,-0.030,0.034,0.647,0.096,0.109,-53.942,8.702,23.059
1747653225.07,0.017,-0.036,0.029,0.607,0.126,0.182,-53.577,8.806,23.107
1747653225.08,0.091,-0.022,0.010,0.593,0.077,0.237,-53.221,8.956,23.219
1747653225.09,0.166,0.014,0.011,0.581,-0.007,0.265,-52.868,9.094,23.367
1747653225.10,0.205,0.057,0.037,0.586,-0.091,0.265,-52.516,9.194,23.528
1747653225.11,0.180,0.089,0.034,0.641,-0.198,0.229,-52.149,9.222,23.666
1747653225.12,0.099,0.102,-0.006,0.683,-0.306,0.168,-51.754,9.142,23.749
1747653225.13,0.009,0.095,0.001,0.661,-0.356,0.110,-51.361,8.971,23.776
1747653225.14,-0.043,0.069,0.021,0.631,-0.301,0.095,-50.988,8.779,23.776
1747653225.15,-0.059,0.038,0.033,0.575,-0.244,0.098,-50.637,8.627,23.778
1747653225.16,-0.071,0.015,0.007,0.512,-0.198,0.119,-50.323,8.518,23.801
1747653225.17,-0.050,0.003,0.008,0.507,-0.182,0.159,-50.026,8.452,23.854
1747653225.18,-0.004,0.008,0.004,0.524,-0.190,0.210,-49.718,8.417,23.948
1747653225.19,0.046,0.034,0.010,0.532,-0.179,0.247,-49.400,8.412,24.081
1747653225.20,0.067,0.060,0.016,0.571,-0.205,0.235,-49.070,8.409,24.222
1747653225.21,0.022,0.069,0.023,0.615,-0.197,0.179,-48.717,8.369,24.326
1747653225.22,-0.047,0.054,0.029,0.637,-0.153,0.108,-48.351,8.302,24.369
1747653225.23,-0.091,0.011,-0.016,0.646,-0.156,0.060,-47.981,8.208,24.360
1747653225.24,-0.106,-0.052,-0.053,0.614,-0.134,0.057,-47.618,8.100,24.331
1747653225.25,-0.079,-0.105,-0.047,0.547,-0.028,0.072,-47.284,8.041,24.317
1747653225.26,-0.033,-0.124,-0.030,0.501,0.067,0.065,-46.984,8.051,24.312
1747653225.27,-0.008,-0.103,-0.009,0.472,0.067,0.079,-46.704,8.091,24.312
1747653225.28,0.007,-0.035,0.001,0.462,0.025,0.113,-46.432,8.135,24.336
1747653225.29,0.027,0.051,0.012,0.480,-0.003,0.138,-46.157,8.176,24.385
1747653225.30,0.030,0.106,0.035,0.532,-0.008,0.126,-45.861,8.209,24.436
1747653225.31,0.003,0.119,0.021,0.592,-0.039,0.084,-45.533,8.210,24.455
1747653225.32,-0.034,0.100,-0.025,0.619,0.042,-0.019,-45.188,8.169,24.423
1747653225.33,-0.105,0.054,-0.058,0.552,-0.127,-0.103,-44.856,8.038,24.289
1747653225.34,-0.082,0.021,-0.033,0.510,-0.050,-0.044,-44.562,7.906,24.173
1747653225.35,-0.073,0.007,-0.025,0.477,-0.023,-0.039,-44.287,7.827,24.088
1747653225.36,-0.105,-0.008,-0.007,0.481,-0.015,-0.036,-44.020,7.758,24.005
1747653225.37,-0.093,-0.023,-0.001,0.483,0.021,-0.007,-43.748,7.712,23.936
1747653225.38,-0.062,-0.022,-0.016,0.496,0.054,0.008,-43.472,7.698,23.885
1747653225.39,-0.030,-0.006,-0.030,0.528,0.062,-0.015,-43.182,7.697,23.831
1747653225.40,-0.006,0.015,-0.040,0.567,0.070,-0.058,-42.874,7.676,23.747
1747653225.41,0.015,0.025,-0.036,0.586,0.080,-0.106,-42.553,7.636,23.624
1747653225.42,0.013,0.017,-0.019,0.581,0.057,-0.143,-42.230,7.570,23.467
1747653225.43,-0.002,-0.012,-0.032,0.551,0.010,-0.143,-41.920,7.477,23.299
1747653225.44,0.001,-0.052,-0.040,0.495,-0.041,-0.102,-41.634,7.371,23.152
1747653225.45,0.037,-0.092,-0.018,0.473,-0.062,-0.021,-41.365,7.278,23.058
1747653225.46,0.098,-0.101,0.006,0.448,-0.048,0.048,-41.103,7.225,23.026
1747653225.47,0.131,-0.051,0.026,0.446,-0.026,0.052,-40.846,7.205,23.024
1747653225.48,0.120,0.034,0.029,0.447,-0.057,0.040,-40.589,7.177,23.016
1747653225.49,0.079,0.072,0.021,0.464,-0.116,0.049,-40.329,7.120,23.006
1747653225.50,0.040,0.052,0.005,0.493,-0.140,0.068,-40.054,7.044,23.005
1747653225.51,0.032,0.009,-0.025,0.494,-0.125,0.075,-39.767,6.973,23.014
1747653225.52,0.042,-0.038,-0.064,0.462,-0.126,0.064,-39.490,6.908,23.022
1747653225.53,0.024,-0.072,-0.076,0.417,-0.121,0.065,-39.237,6.841,23.030
1747653225.54,0.002,-0.089,-0.040,0.381,-0.086,0.089,-39.006,6.795,23.052
1747653225.55,-0.010,-0.085,-0.008,0.357,-0.062,0.118,-38.790,6.779,23.096
1747653225.56,-0.003,-0.059,0.000,0.348,-0.027,0.141,-38.581,6.796,23.161
1747653225.57,0.019,-0.021,0.004,0.363,-0.034,0.142,-38.370,6.824,23.234
1747653225.58,0.031,0.015,-0.015,0.383,-0.069,0.126,-38.149,6.835,23.299
1747653225.59,0.031,0.037,-0.019,0.416,-0.108,0.105,-37.915,6.816,23.347
1747653225.60,0.014,0.044,-0.033,0.435,-0.125,0.085,-37.666,6.767,23.379
1747653225.61,-0.014,0.041,-0.024,0.424,-0.097,0.062,-37.416,6.711,23.395
1747653225.62,-0.041,0.031,-0.018,0.415,-0.038,0.050,-37.176,6.674,23.400
1747653225.63,-0.055,0.021,-0.020,0.397,0.003,0.058,-36.941,6.668,23.403
1747653225.64,-0.070,0.014,-0.025,0.371,0.015,0.080,-36.720,6.683,23.419
1747653225.65,-0.067,0.010,-0.024,0.357,0.034,0.092,-36.506,6.716,23.451
1747653225.66,-0.029,0.016,-0.023,0.325,0.042,0.100,-36.305,6.762,23.491
1747653225.67,0.017,0.026,-0.021,0.318,0.057,0.076,-36.119,6.813,23.528
1747653225.68,0.037,0.033,-0.005,0.320,0.043,0.038,-35.933,6.849,23.541
1747653225.69,0.025,0.028,0.001,0.339,-0.007,0.010,-35.746,6.855,23.529
1747653225.70,0.002,0.009,-0.018,0.343,-0.067,0.007,-35.549,6.818,23.506
1747653225.71,-0.012,-0.010,-0.041,0.281,-0.051,0.010,-35.370,6.771,23.485
1747653225.72,-0.008,-0.015,-0.043,0.223,-0.030,0.020,-35.226,6.742,23.474
1747653225.73,-0.008,-0.003,-0.065,0.168,-0.023,0.022,-35.113,6.728,23.474
1747653225.74,-0.002,0.019,-0.066,0.109,-0.005,0.042,-35.033,6.724,23.484
1747653225.75,0.013,0.021,-0.042,0.071,0.035,0.066,-34.980,6.750,23.514
1747653225.76,0.024,0.012,-0.019,0.068,0.054,0.082,-34.937,6.802,23.561
1747653225.77,0.025,0.013,-0.024,0.081,0.028,0.074,-34.888,6.855,23.610
1747653225.78,0.031,0.021,-0.048,0.088,-0.008,0.062,-34.836,6.881,23.649
1747653225.79,0.049,0.021,-0.032,0.093,0.002,0.050,-34.779,6.897,23.679
1747653225.80,0.046,0.010,-0.025,0.065,0.011,0.038,-34.731,6.914,23.704
1747653225.81,0.022,-0.006,-0.073,0.029,-0.007,0.030,-34.701,6.927,23.722
1747653225.81,-0.006,-0.015,-0.129,-0.035,-0.041,0.049,-34.697,6.927,23.749
1747653225.83,-0.015,0.003,-0.115,-0.119,-0.028,0.071,-34.738,6.935,23.797
1747653225.83,-0.002,0.033,-0.074,-0.169,0.002,0.078,-34.814,6.965,23.862
1747653225.85,0.017,0.061,-0.057,-0.189,0.043,0.053,-34.911,7.016,23.925
1747653225.86,0.031,0.070,-0.047,-0.187,0.008,0.029,-35.015,7.058,23.969
1747653225.86,0.023,0.060,-0.057,-0.211,-0.045,0.020,-35.125,7.066,24.002
1747653225.87,0.015,0.048,-0.070,-0.245,-0.066,0.006,-35.254,7.051,24.032
1747653225.88,0.004,0.044,-0.073,-0.295,-0.055,-0.020,-35.406,7.026,24.050
1747653225.89,-0.026,0.044,-0.062,-0.365,-0.052,-0.033,-35.594,7.001,24.060
1747653225.90,-0.063,0.045,-0.095,-0.419,-0.041,-0.044,-35.820,6.977,24.067
1747653225.91,-0.080,0.043,-0.089,-0.441,0.009,-0.039,-36.066,6.972,24.074
1747653225.92,-0.089,0.032,-0.059,-0.479,0.048,-0.027,-36.327,6.999,24.090
1747653225.93,-0.082,0.015,-0.064,-0.515,0.047,-0.031,-36.611,7.041,24.114
1747653225.94,-0.035,0.000,-0.074,-0.539,0.048,-0.052,-36.913,7.078,24.132
1747653225.95,0.028,-0.000,-0.065,-0.560,0.044,-0.084,-37.229,7.105,24.132
1747653225.96,0.066,-0.003,-0.071,-0.573,-0.001,-0.111,-37.558,7.108,24.113
1747653225.97,0.068,-0.018,-0.096,-0.597,-0.071,-0.122,-37.896,7.067,24.081
1747653225.98,0.042,-0.043,-0.085,-0.637,-0.091,-0.128,-38.254,6.995,24.046
1747653225.99,0.021,-0.074,-0.086,-0.664,-0.076,-0.116,-38.632,6.929,24.016
1747653226.00,0.009,-0.105,-0.096,-0.683,-0.060,-0.089,-39.021,6.878,23.999
1747653226.01,-0.006,-0.122,-0.074,-0.716,0.006,-0.059,-39.422,6.867,24.007
1747653226.02,-0.009,-0.121,-0.053,-0.753,0.061,-0.047,-39.842,6.904,24.033
1747653226.03,-0.016,-0.105,-0.042,-0.779,0.071,-0.047,-40.281,6.966,24.068
1747653226.04,-0.017,-0.087,-0.030,-0.781,0.043,-0.037,-40.725,7.025,24.107
1747653226.05,-0.003,-0.070,-0.035,-0.787,0.009,-0.032,-41.172,7.069,24.153
1747653226.06,0.018,-0.059,-0.048,-0.796,0.005,-0.032,-41.623,7.104,24.202
1747653226.07,0.039,-0.055,-0.062,-0.815,0.018,-0.057,-42.083,7.140,24.245
1747653226.08,0.037,-0.055,-0.074,-0.844,0.013,-0.080,-42.557,7.167,24.271
1747653226.09,0.032,-0.057,-0.059,-0.875,0.027,-0.078,-43.050,7.193,24.292
1747653226.10,0.018,-0.059,-0.026,-0.895,0.026,-0.062,-43.557,7.231,24.324
1747653226.11,0.001,-0.052,-0.030,-0.906,0.018,-0.046,-44.071,7.278,24.372
1747653226.12,-0.007,-0.040,-0.035,-0.926,-0.004,-0.036,-44.593,7.325,24.433
1747653226.13,-0.002,-0.029,-0.026,-0.943,-0.030,-0.026,-45.124,7.365,24.504
1747653226.14,0.026,-0.021,-0.022,-0.965,-0.058,-0.016,-45.667,7.399,24.588
1747653226.15,0.058,-0.014,-0.022,-0.971,-0.043,-0.021,-46.217,7.433,24.678
1747653226.16,0.074,-0.007,-0.020,-0.985,-0.013,-0.047,-46.773,7.476,24.758
1747653226.17,0.060,-0.001,-0.019,-0.996,-0.025,-0.069,-47.338,7.511,24.817
1747653226.18,0.027,0.002,-0.025,-1.016,-0.058,-0.082,-47.912,7.520,24.863
1747653226.19,0.002,0.001,-0.018,-1.032,-0.065,-0.069,-48.498,7.522,24.913
1747653226.20,-0.006,-0.002,0.000,-1.037,-0.072,-0.042,-49.088,7.536,24.981
1747653226.21,-0.009,-0.004,-0.009,-1.074,-0.058,-0.012,-49.686,7.570,25.078
1747653226.22,0.010,0.001,-0.019,-1.150,0.015,-0.008,-50.316,7.650,25.199
1747653226.23,0.026,0.006,-0.004,-1.177,0.047,-0.032,-50.979,7.766,25.323
1747653226.24,0.009,0.009,-0.000,-1.158,0.042,-0.050,-51.644,7.875,25.430
1747653226.25,-0.013,0.021,0.011,-1.142,0.075,-0.077,-52.299,7.977,25.520
1747653226.26,-0.038,0.039,0.025,-1.118,0.089,-0.123,-52.945,8.071,25.576
1747653226.27,-0.081,0.057,0.018,-1.109,0.059,-0.176,-53.586,8.120,25.584
1747653226.28,-0.111,0.064,0.022,-1.126,0.047,-0.211,-54.232,8.120,25.549
1747653226.29,-0.099,0.059,0.023,-1.158,0.071,-0.219,-54.896,8.111,25.497
1747653226.30,-0.059,0.040,0.005,-1.190,0.072,-0.205,-55.576,8.116,25.452
1747653226.31,-0.010,0.017,-0.009,-1.253,0.089,-0.183,-56.281,8.144,25.431
1747653226.32,0.048,0.004,0.011,-1.290,0.106,-0.170,-57.017,8.207,25.439
1747653226.33,0.077,0.004,-0.007,-1.266,0.066,-0.180,-57.755,8.268,25.451
1747653226.34,0.083,0.011,-0.015,-1.222,0.026,-0.196,-58.474,8.286,25.441
1747653226.35,0.082,0.016,-0.002,-1.191,0.002,-0.213,-59.171,8.267,25.409
1747653226.36,0.075,0.012,0.001,-1.178,-0.062,-0.231,-59.858,8.203,25.353
1747653226.37,0.061,-0.008,-0.029,-1.168,-0.138,-0.248,-60.539,8.073,25.271
1747653226.38,0.054,-0.034,-0.045,-1.165,-0.147,-0.262,-61.219,7.899,25.166
1747653226.39,0.050,-0.059,-0.024,-1.162,-0.131,-0.281,-61.898,7.703,25.033
1747653226.40,0.041,-0.081,-0.037,-1.166,-0.154,-0.296,-62.579,7.477,24.869
1747653226.41,0.025,-0.094,-0.048,-1.173,-0.156,-0.309,-63.263,7.217,24.679
1747653226.42,0.020,-0.094,-0.038,-1.186,-0.134,-0.308,-63.952,6.947,24.470
1747653226.43,0.019,-0.085,-0.048,-1.210,-0.155,-0.298,-64.651,6.679,24.261
1747653226.44,0.012,-0.072,-0.062,-1.222,-0.178,-0.280,-65.360,6.401,24.060
1747653226.45,0.011,-0.062,-0.033,-1.229,-0.152,-0.244,-66.072,6.143,23.884
1747653226.46,0.020,-0.052,-0.014,-1.210,-0.100,-0.217,-66.780,5.938,23.739
1747653226.47,0.022,-0.040,-0.029,-1.156,-0.054,-0.204,-67.465,5.777,23.611
1747653226.48,0.025,-0.034,-0.023,-1.105,-0.052,-0.203,-68.117,5.626,23.477
1747653226.49,0.024,-0.035,-0.031,-1.098,-0.119,-0.228,-68.754,5.423,23.310
1747653226.50,0.014,-0.043,-0.062,-1.116,-0.143,-0.261,-69.396,5.137,23.086
1747653226.51,0.011,-0.056,-0.059,-1.148,-0.108,-0.286,-70.053,4.791,22.795
1747653226.52,0.013,-0.065,-0.032,-1.154,-0.050,-0.281,-70.723,4.442,22.472
1747653226.53,0.001,-0.059,-0.040,-1.119,-0.064,-0.274,-71.383,4.095,22.135
1747653226.54,-0.018,-0.043,-0.052,-1.090,-0.081,-0.252,-72.021,3.727,21.794
1747653226.55,-0.010,-0.030,-0.025,-1.094,-0.030,-0.237,-72.651,3.378,21.462
1747653226.56,0.015,-0.023,0.007,-1.090,-0.004,-0.228,-73.283,3.055,21.132
1747653226.57,0.020,-0.020,-0.018,-1.051,-0.073,-0.232,-73.900,2.693,20.774
1747653226.58,0.004,-0.012,-0.046,-1.014,-0.166,-0.233,-74.494,2.244,20.379
1747653226.59,-0.007,-0.004,-0.042,-1.008,-0.145,-0.214,-75.074,1.752,19.967
1747653226.60,-0.011,-0.007,-0.013,-1.000,-0.010,-0.205,-75.650,1.309,19.556
1747653226.61,-0.027,-0.025,0.036,-1.015,0.057,-0.201,-76.227,0.907,19.122
1747653226.62,-0.050,-0.048,0.022,-1.020,-0.021,-0.186,-76.811,0.491,18.680
1747653226.63,-0.059,-0.067,-0.042,-0.964,-0.103,-0.164,-77.380,0.029,18.245
1747653226.64,-0.033,-0.072,-0.067,-0.883,-0.104,-0.144,-77.907,-0.448,17.823
1747653226.65,0.015,-0.061,-0.064,-0.837,-0.069,-0.144,-78.394,-0.915,17.394
1747653226.66,0.040,-0.033,-0.057,-0.840,-0.075,-0.165,-78.871,-1.441,16.899
1747653226.67,0.031,0.001,-0.049,-0.804,-0.060,-0.205,-79.339,-2.113,16.257
1747653226.68,0.010,0.024,-0.051,-0.756,-0.030,-0.226,-79.777,-2.919,15.464
1747653226.69,-0.025,0.042,-0.040,-0.749,0.011,-0.239,-80.198,-3.822,14.555
1747653226.70,-0.047,0.041,-0.021,-0.755,0.075,-0.233,-80.615,-4.781,13.558
1747653226.71,-0.044,0.018,-0.001,-0.769,0.120,-0.221,-81.036,-5.772,12.495
1747653226.72,-0.026,-0.009,0.003,-0.783,0.140,-0.205,-81.463,-6.802,11.378
1747653226.73,0.007,-0.034,0.010,-0.826,0.153,-0.183,-81.903,-7.873,10.212
1747653226.74,0.052,-0.050,0.027,-0.916,0.166,-0.154,-82.381,-8.999,8.983
1747653226.75,0.075,-0.057,0.063,-0.895,0.123,-0.133,-82.884,-10.210,7.677
1747653226.76,0.059,-0.051,0.026,-0.791,-0.017,-0.141,-83.340,-11.562,6.282
1747653226.77,0.018,-0.026,0.001,-0.760,-0.117,-0.169,-83.751,-13.191,4.686
1747653226.78,-0.021,0.005,0.030,-0.727,-0.159,-0.208,-84.138,-15.244,2.701
1747653226.79,-0.051,0.032,-0.004,-0.689,-0.164,-0.257,-84.488,-17.771,0.257
1747653226.80,-0.069,0.046,-0.010,-0.660,-0.068,-0.303,-84.798,-20.810,-2.725
1747653226.81,-0.063,0.048,0.024,-0.656,0.001,-0.333,-85.074,-24.359,-6.271
1747653226.82,-0.064,0.041,0.044,-0.658,0.025,-0.331,-85.325,-28.374,-10.307
1747653226.83,-0.055,0.022,0.032,-0.695,0.085,-0.300,-85.564,-32.754,-14.732
1747653226.84,-0.045,-0.004,0.060,-0.756,0.182,-0.265,-85.810,-37.615,-19.682
1747653226.85,-0.034,-0.032,0.088,-0.767,0.237,-0.228,-86.053,-42.980,-25.184
1747653226.86,-0.024,-0.047,0.055,-0.718,0.230,-0.177,-86.266,-48.584,-30.935
1747653226.87,-0.017,-0.040,0.007,-0.695,0.214,-0.144,-86.447,-54.284,-36.774
1747653226.88,-0.017,-0.019,0.002,-0.711,0.163,-0.136,-86.597,-60.458,-43.069
1747653226.89,-0.022,-0.008,-0.005,-0.667,0.130,-0.139,-86.702,-67.038,-49.741
1747653226.90,-0.017,-0.008,-0.026,-0.633,0.190,-0.148,-86.751,-73.498,-56.301
1747653226.91,-0.014,-0.007,0.014,-0.657,0.287,-0.160,-86.749,-80.035,-62.984
1747653226.92,-0.027,-0.004,0.039,-0.673,0.398,-0.175,-86.698,-86.640,-69.797
1747653226.93,-0.039,0.006,0.023,-0.656,0.401,-0.188,-86.595,-92.920,-76.322
1747653226.94,-0.057,0.019,-0.042,-0.607,0.285,-0.194,-86.450,-98.437,-82.047
1747653226.95,-0.048,0.026,-0.100,-0.545,0.197,-0.193,-86.280,-103.085,-86.838
1747653226.96,0.010,0.027,-0.089,-0.464,0.216,-0.175,-86.103,-106.732,-90.609
1747653226.97,0.075,0.026,-0.038,-0.437,0.260,-0.146,-85.936,-109.659,-93.679
1747653226.98,0.105,0.022,0.030,-0.434,0.235,-0.124,-85.775,-112.344,-96.517
1747653226.99,0.085,0.007,0.023,-0.395,0.181,-0.114,-85.619,-114.779,-99.078
1747653227.00,0.039,-0.007,-0.020,-0.341,0.165,-0.117,-85.469,-116.733,-101.137
1747653227.01,-0.014,-0.015,-0.024,-0.322,0.183,-0.116,-85.322,-118.330,-102.837
1747653227.02,-0.039,-0.023,-0.023,-0.316,0.223,-0.101,-85.179,-119.775,-104.403
1747653227.03,-0.030,-0.036,-0.031,-0.306,0.269,-0.081,-85.045,-121.126,-105.899
1747653227.04,-0.010,-0.043,-0.042,-0.291,0.288,-0.080,-84.915,-122.347,-107.287
1747653227.05,-0.000,-0.031,-0.042,-0.237,0.240,-0.080,-84.793,-123.343,-108.439
1747653227.06,-0.003,-0.002,-0.015,-0.149,0.183,-0.072,-84.695,-123.946,-109.166
1747653227.07,-0.021,0.034,0.011,-0.106,0.125,-0.056,-84.625,-124.256,-109.565
1747653227.08,-0.050,0.053,-0.023,-0.082,0.104,-0.055,-84.568,-124.490,-109.864
1747653227.09,-0.047,0.044,-0.082,-0.027,0.109,-0.058,-84.523,-124.500,-109.934
1747653227.10,-0.012,0.018,-0.098,-0.024,0.140,-0.056,-84.490,-124.346,-109.851
1747653227.11,0.020,-0.004,-0.058,-0.075,0.184,-0.056,-84.449,-124.306,-109.905
1747653227.12,0.035,-0.018,-0.023,-0.077,0.190,-0.063,-84.395,-124.381,-110.088
1747653227.13,0.023,-0.017,0.006,-0.059,0.189,-0.078,-84.340,-124.370,-110.185
1747653227.14,0.001,-0.007,0.051,-0.046,0.169,-0.074,-84.286,-124.271,-110.190
1747653227.15,-0.015,0.001,0.051,-0.029,0.105,-0.054,-84.244,-124.166,-110.164
1747653227.16,-0.017,0.000,0.021,-0.001,0.011,-0.044,-84.214,-124.015,-110.047
1747653227.17,-0.002,-0.006,-0.008,0.008,-0.051,-0.034,-84.199,-123.828,-109.845
1747653227.18,0.027,-0.017,0.014,-0.000,-0.014,-0.029,-84.188,-123.694,-109.691
1747653227.19,0.051,-0.025,0.073,0.012,0.042,-0.018,-84.182,-123.570,-109.576
1747653227.20,0.039,-0.021,0.103,-0.012,0.038,-0.014,-84.178,-123.484,-109.515
1747653227.21,-0.010,-0.007,0.124,-0.077,0.011,-0.033,-84.153,-123.614,-109.658
1747653227.22,-0.055,0.001,0.120,-0.096,0.015,-0.046,-84.105,-123.913,-109.966
1747653227.23,-0.067,0.001,0.066,-0.084,0.015,-0.045,-84.055,-124.170,-110.234
1747653227.24,-0.056,-0.011,0.043,-0.084,0.010,-0.028,-84.009,-124.426,-110.498
1747653227.25,-0.041,-0.027,0.052,-0.056,0.019,-0.015,-83.976,-124.673,-110.754
1747653227.26,-0.035,-0.037,0.051,0.001,0.030,-0.023,-83.960,-124.735,-110.830
1747653227.27,-0.039,-0.028,0.046,0.033,0.048,-0.040,-83.952,-124.566,-110.683
1747653227.28,-0.052,-0.011,0.041,0.043,0.019,-0.042,-83.942,-124.318,-110.455
1747653227.29,-0.063,0.007,0.016,0.052,-0.024,-0.014,-83.939,-124.083,-110.217
1747653227.30,-0.056,0.020,-0.011,0.040,0.015,0.029,-83.950,-123.939,-110.066
1747653227.31,-0.032,0.027,0.002,0.024,0.104,0.051,-83.973,-123.899,-110.060
1747653227.32,-0.010,0.023,0.012,0.032,0.150,0.053,-84.003,-123.865,-110.103
1747653227.33,-0.005,0.007,0.014,0.022,0.104,0.036,-84.029,-123.814,-110.127
1747653227.34,-0.005,-0.008,0.028,0.022,0.055,0.014,-84.044,-123.776,-110.133
1747653227.35,0.003,-0.013,0.032,0.041,0.040,0.001,-84.053,-123.628,-110.011
1747653227.36,0.015,-0.015,0.019,0.016,0.008,0.009,-84.061,-123.493,-109.888
1747653227.37,0.009,-0.015,0.022,-0.011,0.006,0.017,-84.060,-123.514,-109.912
1747653227.38,-0.002,-0.009,0.026,0.001,0.024,0.023,-84.062,-123.554,-109.960
1747653227.39,-0.009,-0.003,0.009,0.030,0.020,0.031,-84.076,-123.514,-109.934
1747653227.40,-0.007,0.006,0.002,0.036,-0.004,0.020,-84.097,-123.441,-109.865
1747653227.41,0.006,0.013,0.003,0.022,-0.005,0.002,-84.109,-123.363,-109.783
1747653227.42,0.026,0.006,-0.019,0.038,-0.009,-0.016,-84.113,-123.242,-109.658
1747653227.43,0.034,-0.004,-0.037,0.057,-0.034,-0.022,-84.117,-123.000,-109.402
1747653227.44,0.026,-0.011,-0.026,0.061,-0.038,-0.004,-84.129,-122.743,-109.123
1747653227.45,0.013,-0.006,-0.014,0.101,-0.034,0.022,-84.157,-122.471,-108.829
1747653227.46,-0.003,0.007,-0.015,0.126,-0.060,0.042,-84.204,-122.094,-108.423
1747653227.47,-0.018,0.016,0.001,0.098,-0.058,0.050,-84.258,-121.738,-108.030
1747653227.48,-0.017,0.011,0.021,0.082,-0.046,0.046,-84.305,-121.497,-107.759
1747653227.49,0.004,-0.003,0.001,0.097,-0.032,0.042,-84.353,-121.234,-107.473
1747653227.50,0.020,-0.006,-0.019,0.101,-0.033,0.038,-84.409,-120.877,-107.094
1747653227.51,0.013,-0.004,0.015,0.121,-0.041,0.030,-84.468,-120.431,-106.626
1747653227.52,-0.010,-0.009,0.054,0.155,-0.074,0.024,-84.527,-119.830,-105.991
1747653227.53,-0.031,-0.007,0.049,0.184,-0.127,0.022,-84.589,-119.045,-105.144
1747653227.54,-0.045,-0.005,0.030,0.180,-0.143,0.022,-84.650,-118.191,-104.207
1747653227.55,-0.039,-0.007,0.022,0.165,-0.134,0.031,-84.704,-117.418,-103.352
1747653227.56,-0.020,-0.009,0.006,0.171,-0.113,0.039,-84.760,-116.696,-102.555
1747653227.57,-0.008,-0.000,0.006,0.180,-0.093,0.043,-84.824,-115.913,-101.708
1747653227.58,-0.010,0.008,0.021,0.213,-0.115,0.042,-84.897,-114.976,-100.712
1747653227.59,-0.030,0.009,0.022,0.257,-0.151,0.046,-84.975,-113.868,-99.521
1747653227.60,-0.044,-0.000,0.024,0.297,-0.132,0.066,-85.057,-112.578,-98.143
1747653227.61,-0.038,-0.014,0.022,0.347,-0.103,0.088,-85.154,-110.970,-96.462
1747653227.62,-0.037,-0.022,0.001,0.409,-0.070,0.107,-85.267,-108.896,-94.329
1747653227.63,-0.035,-0.017,-0.024,0.424,-0.003,0.129,-85.395,-106.412,-91.815
1747653227.64,-0.028,-0.004,-0.009,0.397,0.053,0.149,-85.530,-103.828,-89.239
1747653227.65,-0.033,0.007,0.027,0.379,0.054,0.152,-85.661,-101.243,-86.679
1747653227.66,-0.042,0.007,0.048,0.375,0.009,0.154,-85.784,-98.593,-84.040
1747653227.67,-0.038,0.002,0.064,0.392,-0.056,0.158,-85.900,-95.783,-81.210
1747653227.68,-0.029,-0.001,0.059,0.416,-0.116,0.166,-86.009,-92.667,-78.037
1747653227.69,-0.016,-0.005,0.038,0.428,-0.140,0.166,-86.110,-89.276,-74.563
1747653227.70,0.004,-0.009,0.021,0.479,-0.117,0.161,-86.191,-85.449,-70.653
1747653227.71,0.025,-0.008,0.009,0.550,-0.083,0.151,-86.245,-80.928,-66.065
1747653227.72,0.039,0.001,0.017,0.632,-0.129,0.138,-86.257,-75.695,-60.764
1747653227.73,0.035,0.014,0.001,0.727,-0.195,0.160,-86.222,-69.747,-54.709
1747653227.74,0.037,0.019,0.025,0.753,-0.232,0.210,-86.150,-63.374,-48.200
1747653227.75,0.027,0.023,0.067,0.773,-0.274,0.248,-86.048,-57.027,-41.694
1747653227.76,-0.014,0.019,0.040,0.801,-0.309,0.237,-85.895,-50.850,-35.335
1747653227.77,-0.056,0.010,0.007,0.766,-0.310,0.202,-85.687,-45.344,-29.634
1747653227.78,-0.071,-0.009,0.018,0.718,-0.249,0.175,-85.450,-40.767,-24.880
1747653227.79,-0.057,-0.031,0.044,0.678,-0.112,0.162,-85.200,-36.903,-20.897
1747653227.80,-0.030,-0.034,0.090,0.667,0.036,0.166,-84.941,-33.475,-17.436
1747653227.81,-0.026,-0.021,0.111,0.720,0.062,0.178,-84.659,-30.241,-14.223
1747653227.82,-0.046,-0.002,0.051,0.796,-0.024,0.188,-84.328,-27.119,-11.099
1747653227.83,-0.057,0.023,-0.002,0.839,-0.104,0.199,-83.952,-24.214,-8.140
1747653227.84,-0.052,0.045,-0.017,0.817,-0.139,0.204,-83.560,-21.624,-5.463
1747653227.85,-0.040,0.044,-0.025,0.801,-0.097,0.174,-83.167,-19.426,-3.179
1747653227.86,-0.022,0.006,-0.012,0.815,-0.003,0.138,-82.760,-17.590,-1.298
1747653227.87,0.010,-0.028,0.008,0.828,0.101,0.147,-82.331,-15.942,0.336
1747653227.88,0.058,-0.032,0.052,0.803,0.144,0.202,-81.908,-14.299,1.920
1747653227.89,0.061,-0.022,0.037,0.773,0.111,0.239,-81.500,-12.662,3.498
1747653227.90,0.026,-0.016,-0.018,0.765,0.082,0.234,-81.100,-11.145,4.977
1747653227.91,-0.007,-0.015,-0.040,0.792,0.014,0.204,-80.686,-9.851,6.261
1747653227.92,-0.020,-0.026,-0.040,0.795,0.028,0.195,-80.255,-8.749,7.372
1747653227.93,0.002,-0.040,-0.004,0.804,0.125,0.211,-79.823,-7.683,8.410
1747653227.94,0.024,-0.032,-0.007,0.845,0.182,0.226,-79.371,-6.599,9.419
1747653227.95,0.005,-0.008,-0.033,0.819,0.125,0.214,-78.909,-5.586,10.358
1747653227.96,-0.045,0.007,-0.035,0.772,0.076,0.180,-78.467,-4.765,11.139
1747653227.97,-0.070,-0.009,-0.015,0.753,0.107,0.179,-78.044,-4.072,11.796
1747653227.98,-0.053,-0.032,-0.015,0.794,0.152,0.196,-77.610,-3.371,12.437
1747653227.99,-0.020,-0.035,-0.063,0.840,0.201,0.217,-77.150,-2.637,13.087
1747653228.00,0.006,-0.024,-0.048,0.847,0.267,0.245,-76.670,-1.853,13.752
1747653228.01,0.013,-0.011,0.020,0.829,0.265,0.268,-76.196,-1.038,14.430
1747653228.02,0.001,-0.007,0.010,0.832,0.214,0.262,-75.724,-0.274,15.077
1747653228.03,0.003,-0.005,-0.014,0.829,0.237,0.245,-75.248,0.406,15.651
1747653228.04,0.032,-0.008,-0.001,0.780,0.291,0.242,-74.785,1.050,16.161
1747653228.05,0.055,-0.015,-0.010,0.726,0.263,0.242,-74.354,1.675,16.643
1747653228.06,0.019,-0.017,-0.013,0.729,0.206,0.218,-73.935,2.222,17.074
1747653228.07,-0.050,-0.014,0.022,0.757,0.163,0.189,-73.507,2.660,17.421
1747653228.08,-0.100,-0.016,0.017,0.785,0.093,0.192,-73.061,3.020,17.719
1747653228.09,-0.115,-0.014,-0.035,0.780,0.016,0.192,-72.607,3.324,18.006
1747653228.10,-0.087,-0.005,-0.072,0.793,0.017,0.172,-72.155,3.575,18.264
1747653228.11,-0.015,0.002,-0.071,0.848,0.103,0.127,-71.683,3.776,18.442
1747653228.12,0.051,0.002,-0.037,0.876,0.195,0.084,-71.186,3.945,18.528
1747653228.13,0.067,0.001,0.001,0.899,0.242,0.077,-70.677,4.094,18.553
1747653228.14,0.056,-0.007,0.024,0.869,0.321,0.127,-70.165,4.307,18.610
1747653228.15,0.025,-0.014,0.048,0.759,0.347,0.183,-69.693,4.646,18.763
1747653228.16,-0.041,-0.019,-0.001,0.673,0.256,0.215,-69.279,5.033,18.990
1747653228.17,-0.083,-0.034,-0.079,0.650,0.184,0.239,-68.894,5.405,19.258
1747653228.18,-0.059,-0.048,-0.060,0.652,0.205,0.255,-68.511,5.781,19.545
1747653228.19,-0.000,-0.052,-0.025,0.719,0.232,0.243,-68.110,6.162,19.821
1747653228.20,0.038,-0.049,-0.050,0.863,0.160,0.214,-67.648,6.475,20.034
1747653228.21,0.047,-0.035,-0.093,0.964,0.022,0.175,-67.114,6.643,20.163
1747653228.22,0.034,-0.017,-0.085,1.017,0.019,0.135,-66.540,6.701,20.215
1747653228.23,0.021,-0.010,-0.007,0.988,0.106,0.126,-65.960,6.748,20.229
1747653228.24,0.008,-0.015,0.078,0.918,0.146,0.129,-65.410,6.842,20.248
1747653228.25,-0.020,-0.032,0.028,0.772,0.071,0.154,-64.918,6.952,20.298
1747653228.26,-0.007,-0.046,-0.057,0.572,0.022,0.234,-64.522,7.110,20.444
1747653228.27,0.072,-0.050,-0.036,0.438,0.012,0.318,-64.220,7.368,20.722
1747653228.28,0.170,-0.033,0.063,0.477,-0.017,0.357,-63.942,7.695,21.085
1747653228.29,0.217,0.016,0.096,0.620,-0.143,0.348,-63.604,7.978,21.446
1747653228.30,0.203,0.071,0.026,0.775,-0.350,0.285,-63.184,8.089,21.727
1747653228.31,0.142,0.107,-0.060,0.955,-0.514,0.184,-62.677,7.968,21.872
1747653228.32,0.064,0.115,-0.113,1.116,-0.545,0.072,-62.078,7.641,21.852
1747653228.33,-0.010,0.088,-0.074,1.094,-0.359,-0.005,-61.442,7.256,21.716
1747653228.34,-0.094,0.030,0.086,0.929,-0.129,-0.039,-60.869,6.965,21.539
1747653228.35,-0.199,-0.048,0.124,0.776,-0.034,-0.009,-60.390,6.791,21.388
1747653228.36,-0.245,-0.114,-0.017,0.615,0.016,0.090,-59.991,6.739,21.336
1747653228.37,-0.179,-0.151,-0.081,0.457,0.070,0.246,-59.680,6.861,21.450
1747653228.38,-0.044,-0.147,-0.003,0.453,0.124,0.413,-59.404,7.185,21.762
1747653228.39,0.103,-0.100,0.038,0.537,0.122,0.463,-59.091,7.622,22.184
1747653228.40,0.194,-0.008,0.031,0.661,0.055,0.398,-58.720,8.006,22.571
1747653228.41,0.197,0.077,0.000,0.811,-0.041,0.302,-58.275,8.238,22.837
1747653228.42,0.127,0.135,-0.038,0.946,-0.080,0.161,-57.758,8.298,22.954
1747653228.43,0.034,0.143,-0.010,0.934,-0.011,0.073,-57.214,8.241,22.927
1747653228.44,-0.029,0.108,0.097,0.857,0.062,0.032,-56.703,8.190,22.843
1747653228.45,-0.089,0.038,0.076,0.729,0.039,0.056,-56.249,8.159,22.768
1747653228.46,-0.087,-0.039,-0.019,0.578,-0.081,0.134,-55.873,8.150,22.768
1747653228.47,-0.006,-0.079,-0.090,0.484,-0.187,0.240,-55.559,8.163,22.879
1747653228.48,0.110,-0.067,-0.053,0.441,-0.219,0.324,-55.276,8.226,23.098
1747653228.49,0.156,-0.016,0.031,0.486,-0.238,0.340,-54.991,8.312,23.364
1747653228.50,0.108,0.041,0.044,0.628,-0.238,0.313,-54.650,8.373,23.604
1747653228.51,0.012,0.073,-0.019,0.725,-0.220,0.266,-54.240,8.391,23.789
1747653228.52,-0.073,0.073,-0.060,0.731,-0.144,0.211,-53.807,8.387,23.916
1747653228.53,-0.109,0.049,-0.036,0.705,-0.040,0.173,-53.385,8.399,23.996
1747653228.54,-0.109,0.012,-0.018,0.654,0.043,0.154,-52.987,8.446,24.053
1747653228.55,-0.084,-0.022,-0.017,0.588,0.070,0.163,-52.621,8.531,24.115
1747653228.56,-0.038,-0.043,-0.018,0.548,0.021,0.173,-52.287,8.619,24.191
1747653228.57,0.012,-0.046,-0.011,0.509,-0.039,0.189,-51.973,8.685,24.282
1747653228.58,0.048,-0.032,0.019,0.483,-0.095,0.212,-51.677,8.737,24.396
1747653228.59,0.045,-0.007,0.017,0.501,-0.148,0.224,-51.380,8.770,24.526
1747653228.60,0.012,0.022,-0.007,0.502,-0.171,0.214,-51.077,8.777,24.654
1747653228.61,-0.022,0.037,-0.003,0.498,-0.119,0.197,-50.777,8.782,24.772
1747653228.62,-0.054,0.040,0.016,0.538,-0.049,0.174,-50.470,8.808,24.866
1747653228.63,-0.081,0.046,-0.014,0.579,-0.016,0.142,-50.139,8.840,24.929
1747653228.64,-0.082,0.051,-0.028,0.583,-0.017,0.104,-49.800,8.853,24.959
1747653228.65,-0.072,0.048,-0.029,0.585,-0.006,0.058,-49.463,8.839,24.951
1747653228.66,-0.055,0.032,-0.041,0.596,-0.008,0.001,-49.127,8.796,24.899
1747653228.67,-0.057,0.005,-0.026,0.604,-0.037,-0.042,-48.790,8.710,24.800
1747653228.68,-0.059,-0.032,-0.026,0.613,-0.057,-0.043,-48.450,8.593,24.682
1747653228.69,-0.024,-0.061,-0.035,0.593,-0.040,-0.022,-48.111,8.485,24.576
1747653228.70,0.008,-0.067,-0.024,0.539,0.002,-0.026,-47.793,8.408,24.487
1747653228.71,0.010,-0.048,-0.008,0.520,0.025,-0.039,-47.498,8.347,24.393
1747653228.72,0.014,-0.021,-0.016,0.526,0.040,-0.021,-47.204,8.297,24.303
1747653228.73,0.019,0.005,-0.007,0.486,0.088,0.007,-46.916,8.286,24.237
1747653228.74,0.024,0.024,0.016,0.476,0.107,0.014,-46.647,8.308,24.188
1747653228.75,0.017,0.018,0.006,0.520,0.025,0.018,-46.364,8.313,24.141
1747653228.76,0.007,-0.000,-0.016,0.545,-0.023,0.035,-46.060,8.278,24.097
1747653228.77,0.036,-0.021,-0.027,0.545,-0.013,0.055,-45.748,8.246,24.069
1747653228.78,0.061,-0.039,-0.037,0.528,0.007,0.035,-45.440,8.227,24.045
1747653228.79,0.052,-0.047,-0.027,0.513,0.005,0.003,-45.145,8.199,24.001
1747653228.80,0.040,-0.047,-0.032,0.483,-0.026,-0.014,-44.863,8.149,23.938
1747653228.81,0.030,-0.042,-0.039,0.426,-0.071,0.003,-44.607,8.081,23.880
1747653228.82,0.028,-0.038,-0.013,0.393,-0.083,0.049,-44.376,8.018,23.855
1747653228.83,0.036,-0.021,0.008,0.391,-0.090,0.080,-44.148,7.976,23.865
1747653228.84,0.041,0.013,0.029,0.445,-0.034,0.019,-43.914,7.939,23.871
1747653228.85,0.030,0.035,0.017,0.440,-0.100,0.067,-43.664,7.880,23.852
1747653228.86,0.060,0.058,-0.026,0.455,-0.117,0.107,-43.401,7.835,23.876
1747653228.87,0.042,0.059,-0.058,0.437,-0.158,0.092,-43.142,7.780,23.907
1747653228.88,0.028,0.031,-0.053,0.456,-0.178,0.078,-42.882,7.696,23.927
1747653228.88,0.037,-0.001,-0.031,0.464,-0.171,0.069,-42.615,7.601,23.936
1747653228.90,0.031,-0.022,-0.012,0.456,-0.154,0.064,-42.348,7.513,23.940
1747653228.90,0.011,-0.038,-0.013,0.447,-0.159,0.069,-42.088,7.425,23.943
1747653228.91,-0.002,-0.043,-0.009,0.431,-0.114,0.094,-41.833,7.357,23.961
1747653228.92,0.013,-0.040,0.010,0.405,-0.094,0.124,-41.588,7.328,24.002
1747653228.93,0.037,-0.037,-0.020,0.400,-0.114,0.167,-41.348,7.315,24.073
1747653228.94,0.074,-0.025,-0.039,0.352,-0.102,0.206,-41.120,7.321,24.179
1747653228.95,0.113,0.008,-0.028,0.316,-0.062,0.208,-40.918,7.358,24.305
1747653228.96,0.101,0.036,-0.001,0.300,-0.067,0.184,-40.729,7.399,24.422
1747653228.98,0.042,0.044,0.008,0.295,-0.070,0.172,-40.548,7.428,24.525
1747653228.98,-0.008,0.038,-0.011,0.285,-0.121,0.184,-40.369,7.444,24.629
1747653228.99,-0.053,0.036,-0.037,0.286,-0.172,0.196,-40.194,7.431,24.743
1747653229.00,-0.062,0.045,-0.018,0.297,-0.156,0.183,-40.016,7.411,24.858
1747653229.01,-0.062,0.054,0.005,0.336,-0.138,0.136,-39.825,7.384,24.946
1747653229.02,-0.077,0.044,-0.027,0.343,-0.141,0.091,-39.621,7.338,24.996
1747653229.03,-0.088,0.014,-0.043,0.314,-0.113,0.061,-39.430,7.277,25.019
1747653229.04,-0.071,-0.025,0.002,0.312,-0.045,0.052,-39.248,7.241,25.031
1747653229.05,-0.051,-0.047,0.007,0.321,-0.015,0.047,-39.066,7.228,25.037
1747653229.06,-0.036,-0.036,-0.028,0.305,-0.023,0.046,-38.883,7.221,25.041
1747653229.07,-0.019,-0.001,-0.036,0.259,-0.060,0.062,-38.719,7.203,25.052
1747653229.08,0.016,0.019,-0.030,0.236,-0.071,0.087,-38.574,7.186,25.084
1747653229.09,0.047,0.029,-0.022,0.216,-0.059,0.098,-38.438,7.177,25.131
1747653229.10,0.046,0.030,-0.036,0.192,-0.024,0.083,-38.317,7.185,25.178
1747653229.11,0.020,0.011,-0.036,0.191,-0.030,0.076,-38.204,7.195,25.217
1747653229.12,-0.003,-0.011,-0.036,0.201,-0.012,0.084,-38.087,7.205,25.257
1747653229.13,0.005,-0.008,-0.007,0.211,0.012,0.082,-37.965,7.231,25.298
1747653229.14,0.013,0.016,0.014,0.216,0.008,0.071,-37.838,7.259,25.333
1747653229.15,0.016,0.032,-0.005,0.205,-0.007,0.077,-37.712,7.282,25.367
1747653229.16,0.020,0.024,-0.023,0.203,-0.048,0.083,-37.592,7.291,25.406
1747653229.17,0.017,0.004,-0.035,0.198,-0.075,0.095,-37.472,7.282,25.451
1747653229.18,0.015,-0.014,-0.030,0.167,-0.090,0.101,-37.361,7.270,25.507
1747653229.19,0.017,-0.009,-0.037,0.138,-0.066,0.083,-37.270,7.258,25.561
1747653229.20,0.004,0.012,-0.018,0.137,-0.021,0.054,-37.185,7.254,25.596
1747653229.21,-0.025,0.033,-0.019,0.144,0.001,0.019,-37.104,7.258,25.610
1747653229.22,-0.053,0.033,-0.022,0.136,-0.006,0.007,-37.026,7.257,25.607
1747653229.23,-0.073,0.015,-0.027,0.134,-0.001,0.004,-36.952,7.251,25.600
1747653229.24,-0.071,-0.005,-0.031,0.130,0.030,-0.014,-36.878,7.253,25.586
1747653229.25,-0.071,-0.018,-0.033,0.102,0.048,-0.035,-36.815,7.260,25.559
1747653229.26,-0.057,-0.029,-0.047,0.102,0.050,-0.046,-36.760,7.266,25.522
1747653229.27,-0.024,-0.026,-0.065,0.111,0.049,-0.062,-36.701,7.267,25.475
1747653229.28,0.009,-0.011,-0.068,0.118,0.041,-0.079,-36.642,7.256,25.416
1747653229.29,0.025,-0.012,-0.048,0.111,0.043,-0.092,-36.585,7.236,25.344
1747653229.30,0.019,-0.034,-0.037,0.093,0.050,-0.097,-36.536,7.214,25.265
1747653229.31,0.001,-0.065,-0.054,0.086,0.045,-0.085,-36.492,7.190,25.188
1747653229.32,-0.014,-0.090,-0.061,0.047,0.056,-0.066,-36.458,7.176,25.125
1747653229.33,-0.010,-0.092,-0.068,0.013,0.071,-0.059,-36.446,7.180,25.075
1747653229.34,-0.007,-0.070,-0.077,-0.002,0.082,-0.062,-36.444,7.193,25.030
1747653229.35,-0.012,-0.035,-0.075,-0.025,0.089,-0.056,-36.453,7.216,24.988
1747653229.36,-0.002,-0.011,-0.070,-0.060,0.062,-0.048,-36.478,7.241,24.954
1747653229.37,0.014,-0.005,-0.053,-0.082,0.055,-0.041,-36.519,7.260,24.932
1747653229.38,0.032,-0.007,-0.037,-0.088,0.054,-0.030,-36.566,7.284,24.916
1747653229.39,0.034,-0.015,-0.022,-0.080,0.041,-0.029,-36.608,7.303,24.902
1747653229.40,0.012,-0.030,-0.007,-0.091,0.021,-0.022,-36.646,7.312,24.890
1747653229.41,-0.007,-0.033,-0.035,-0.113,0.037,-0.019,-36.692,7.322,24.885
1747653229.42,-0.001,-0.007,-0.106,-0.197,0.031,-0.031,-36.772,7.339,24.880
1747653229.43,-0.016,0.019,-0.105,-0.253,0.055,-0.024,-36.901,7.360,24.879
1747653229.44,-0.012,0.020,-0.055,-0.265,0.084,-0.007,-37.044,7.408,24.892
1747653229.45,-0.003,0.029,-0.039,-0.298,0.084,-0.020,-37.202,7.469,24.911
1747653229.46,-0.006,0.044,-0.026,-0.310,0.029,-0.050,-37.375,7.508,24.916
1747653229.47,-0.011,0.044,-0.028,-0.295,-0.034,-0.061,-37.550,7.499,24.904
1747653229.48,0.004,0.026,-0.026,-0.300,-0.065,-0.063,-37.720,7.460,24.889
1747653229.49,0.036,0.004,-0.038,-0.325,-0.088,-0.068,-37.898,7.406,24.871
1747653229.50,0.058,-0.017,-0.083,-0.377,-0.111,-0.073,-38.098,7.338,24.853
1747653229.51,0.046,-0.030,-0.119,-0.443,-0.090,-0.076,-38.334,7.267,24.837
1747653229.52,0.020,-0.040,-0.104,-0.486,-0.045,-0.068,-38.601,7.222,24.826
1747653229.53,0.009,-0.053,-0.090,-0.522,-0.033,-0.046,-38.890,7.203,24.829
1747653229.54,0.009,-0.059,-0.097,-0.563,-0.028,-0.048,-39.201,7.196,24.846
1747653229.55,0.012,-0.059,-0.097,-0.599,-0.022,-0.075,-39.536,7.187,24.856
1747653229.56,0.015,-0.061,-0.076,-0.616,-0.010,-0.090,-39.885,7.175,24.850
1747653229.57,0.020,-0.065,-0.044,-0.646,-0.044,-0.086,-40.249,7.156,24.843
1747653229.58,0.032,-0.061,-0.047,-0.667,-0.086,-0.064,-40.627,7.121,24.847
1747653229.59,0.069,-0.044,-0.047,-0.697,-0.087,-0.044,-41.017,7.085,24.870
1747653229.60,0.108,-0.020,-0.029,-0.713,-0.079,-0.023,-41.419,7.066,24.911
1747653229.61,0.121,0.007,-0.043,-0.736,-0.092,-0.011,-41.830,7.054,24.966
1747653229.62,0.104,0.030,-0.056,-0.761,-0.109,-0.021,-42.255,7.034,25.025
1747653229.63,0.071,0.044,-0.053,-0.789,-0.101,-0.038,-42.696,7.008,25.076
1747653229.64,0.030,0.046,-0.044,-0.816,-0.094,-0.061,-43.155,6.978,25.113
1747653229.65,-0.016,0.030,-0.026,-0.837,-0.079,-0.066,-43.627,6.948,25.142
1747653229.66,-0.046,0.005,-0.019,-0.855,-0.053,-0.060,-44.111,6.932,25.173
1747653229.67,-0.053,-0.016,-0.039,-0.889,-0.035,-0.055,-44.609,6.934,25.211
1747653229.68,-0.039,-0.033,-0.050,-0.938,-0.008,-0.050,-45.130,6.955,25.258
1747653229.69,-0.009,-0.041,-0.028,-0.980,0.022,-0.041,-45.678,7.001,25.317
1747653229.70,0.020,-0.040,-0.021,-0.998,0.009,-0.041,-46.241,7.059,25.382
1747653229.71,0.042,-0.027,-0.028,-1.024,-0.006,-0.040,-46.817,7.110,25.453
1747653229.72,0.055,-0.012,-0.024,-1.036,-0.024,-0.050,-47.405,7.153,25.522
1747653229.73,0.050,0.002,-0.038,-1.039,-0.046,-0.070,-47.997,7.176,25.580
1747653229.74,0.025,0.010,-0.045,-1.043,-0.069,-0.093,-48.592,7.173,25.621
1747653229.75,-0.011,0.006,-0.034,-1.059,-0.101,-0.118,-49.194,7.143,25.643
1747653229.76,-0.036,-0.012,-0.036,-1.086,-0.126,-0.125,-49.811,7.084,25.654
1747653229.77,-0.037,-0.032,-0.055,-1.125,-0.107,-0.124,-50.446,7.025,25.664
1747653229.78,-0.020,-0.049,-0.052,-1.155,-0.055,-0.126,-51.101,6.988,25.677
1747653229.79,0.002,-0.056,-0.039,-1.164,-0.006,-0.130,-51.768,6.979,25.688
1747653229.80,0.024,-0.054,-0.018,-1.183,0.009,-0.124,-52.441,6.992,25.702
1747653229.81,0.037,-0.044,0.001,-1.237,-0.014,-0.105,-53.135,7.015,25.732
1747653229.82,0.043,-0.029,0.016,-1.268,-0.045,-0.086,-53.854,7.044,25.789
1747653229.83,0.049,-0.010,0.015,-1.282,-0.084,-0.063,-54.582,7.074,25.870
1747653229.84,0.050,0.013,0.011,-1.286,-0.100,-0.056,-55.315,7.102,25.970
1747653229.85,0.049,0.039,0.005,-1.274,-0.081,-0.077,-56.044,7.128,26.065
1747653229.86,0.033,0.060,0.006,-1.253,-0.073,-0.132,-56.769,7.133,26.123
1747653229.87,0.001,0.072,-0.004,-1.203,-0.047,-0.199,-57.477,7.087,26.111
1747653229.88,-0.023,0.068,-0.009,-1.190,-0.018,-0.250,-58.169,6.997,26.027
1747653229.89,-0.044,0.049,-0.001,-1.204,-0.032,-0.287,-58.866,6.867,25.890
1747653229.90,-0.061,0.015,-0.020,-1.233,-0.055,-0.289,-59.576,6.703,25.728
1747653229.91,-0.043,-0.027,-0.003,-1.254,-0.086,-0.263,-60.301,6.533,25.579
1747653229.92,-0.001,-0.062,-0.019,-1.258,-0.098,-0.224,-61.028,6.378,25.462
1747653229.93,0.041,-0.077,-0.036,-1.284,-0.077,-0.215,-61.763,6.246,25.370
1747653229.94,0.064,-0.073,0.000,-1.282,-0.077,-0.238,-62.507,6.110,25.264
1747653229.95,0.063,-0.057,0.020,-1.250,-0.104,-0.249,-63.241,5.937,25.127
1747653229.96,0.052,-0.041,0.021,-1.225,-0.141,-0.258,-63.958,5.722,24.966
1747653229.97,0.031,-0.028,0.008,-1.196,-0.164,-0.267,-64.659,5.464,24.777
1747653229.98,0.002,-0.018,-0.014,-1.183,-0.165,-0.286,-65.351,5.169,24.556
1747653229.99,-0.033,-0.012,-0.059,-1.141,-0.118,-0.306,-66.027,4.846,24.289
1747653230.00,-0.062,-0.007,-0.087,-1.152,-0.113,-0.332,-66.691,4.489,23.969
1747653230.01,-0.082,-0.016,-0.068,-1.171,-0.111,-0.342,-67.369,4.088,23.603
1747653230.02,-0.076,-0.040,-0.040,-1.154,-0.073,-0.343,-68.044,3.666,23.206
1747653230.03,-0.058,-0.063,-0.027,-1.135,-0.047,-0.342,-68.706,3.241,22.784
1747653230.04,-0.052,-0.079,-0.027,-1.147,-0.023,-0.336,-69.367,2.802,22.337
1747653230.05,-0.041,-0.090,-0.023,-1.149,0.045,-0.326,-70.031,2.376,21.878
1747653230.06,-0.019,-0.086,-0.041,-1.145,0.082,-0.300,-70.692,1.982,21.418
1747653230.07,0.004,-0.070,-0.037,-1.157,0.102,-0.269,-71.355,1.623,20.985
1747653230.08,0.027,-0.051,-0.027,-1.143,0.180,-0.258,-72.016,1.301,20.563
1747653230.09,0.052,-0.037,-0.009,-1.123,0.266,-0.279,-72.667,0.991,20.104
1747653230.10,0.060,-0.036,0.009,-1.083,0.280,-0.286,-73.301,0.651,19.581
1747653230.11,0.051,-0.045,-0.019,-1.021,0.201,-0.258,-73.902,0.271,19.040
1747653230.12,0.039,-0.048,-0.066,-0.989,0.143,-0.230,-74.474,-0.124,18.529
1747653230.13,0.030,-0.031,-0.091,-1.012,0.117,-0.221,-75.042,-0.528,18.033
1747653230.14,0.004,-0.013,-0.096,-1.028,0.099,-0.252,-75.625,-1.007,17.475
1747653230.15,-0.027,-0.006,-0.093,-1.009,0.116,-0.309,-76.203,-1.641,16.759
1747653230.16,-0.032,-0.008,-0.047,-1.004,0.163,-0.327,-76.771,-2.415,15.883
1747653230.17,-0.001,-0.031,0.004,-0.990,0.229,-0.297,-77.332,-3.202,14.960
1747653230.18,0.034,-0.048,-0.003,-0.945,0.246,-0.263,-77.874,-3.943,14.059
1747653230.19,0.045,-0.050,-0.022,-0.949,0.193,-0.234,-78.400,-4.680,13.179
1747653230.20,0.047,-0.045,0.009,-0.990,0.199,-0.222,-78.941,-5.457,12.274
1747653230.21,0.045,-0.023,0.023,-0.987,0.192,-0.232,-79.490,-6.326,11.274
1747653230.22,0.013,0.010,-0.014,-0.967,0.133,-0.258,-80.028,-7.369,10.118
1747653230.23,-0.019,0.032,-0.027,-0.946,0.086,-0.277,-80.548,-8.640,8.768
1747653230.24,-0.023,0.032,-0.027,-0.938,0.121,-0.267,-81.053,-10.070,7.263
1747653230.25,-0.004,0.016,0.002,-0.941,0.173,-0.247,-81.552,-11.583,5.646
1747653230.26,-0.013,-0.008,0.034,-0.933,0.182,-0.264,-82.045,-13.267,3.841
1747653230.27,-0.044,-0.031,0.005,-0.887,0.133,-0.296,-82.509,-15.269,1.729
1747653230.28,-0.056,-0.037,-0.057,-0.861,0.125,-0.317,-82.935,-17.628,-0.719
1747653230.29,-0.042,-0.027,-0.046,-0.872,0.222,-0.321,-83.344,-20.298,-3.505
1747653230.30,-0.038,-0.014,0.019,-0.846,0.325,-0.312,-83.734,-23.240,-6.628
1747653230.31,-0.064,-0.002,0.025,-0.797,0.278,-0.291,-84.086,-26.370,-9.952
1747653230.32,-0.092,0.001,-0.025,-0.772,0.227,-0.268,-84.405,-29.709,-13.449
1747653230.33,-0.090,0.002,-0.028,-0.796,0.268,-0.258,-84.707,-33.350,-17.246
1747653230.34,-0.063,0.001,0.034,-0.884,0.407,-0.262,-85.011,-37.587,-21.691
1747653230.35,-0.024,-0.016,0.102,-0.953,0.536,-0.258,-85.317,-42.666,-27.062
1747653230.36,-0.011,-0.043,0.094,-0.914,0.550,-0.260,-85.589,-48.478,-33.209
1747653230.37,-0.013,-0.049,0.014,-0.820,0.430,-0.250,-85.782,-54.526,-39.559
1747653230.38,0.001,-0.028,-0.049,-0.818,0.349,-0.229,-85.913,-60.710,-45.976
1747653230.39,0.044,0.012,-0.013,-0.858,0.374,-0.219,-86.009,-67.405,-52.894
1747653230.40,0.065,0.039,0.042,-0.825,0.387,-0.237,-86.046,-74.401,-60.126
1747653230.41,0.055,0.047,0.053,-0.704,0.307,-0.281,-85.995,-80.800,-66.744
1747653230.42,0.035,0.038,0.041,-0.624,0.155,-0.279,-85.877,-86.179,-72.270
1747653230.43,0.020,0.013,0.030,-0.649,0.019,-0.251,-85.733,-91.098,-77.251
1747653230.44,0.009,-0.008,0.017,-0.739,-0.027,-0.215,-85.575,-96.177,-82.337
1747653230.45,0.004,-0.025,0.013,-0.821,0.057,-0.197,-85.390,-101.543,-87.725
1747653230.46,0.006,-0.036,-0.001,-0.795,0.243,-0.207,-85.165,-106.605,-92.888
1747653230.47,-0.000,-0.031,-0.017,-0.651,0.377,-0.215,-84.918,-110.501,-96.980
1747653230.48,-0.023,-0.015,0.007,-0.569,0.387,-0.202,-84.678,-113.303,-100.016
1747653230.49,-0.059,0.002,0.055,-0.573,0.322,-0.174,-84.445,-115.728,-102.658
1747653230.50,-0.085,0.004,0.064,-0.618,0.264,-0.146,-84.209,-118.194,-105.303
1747653230.51,-0.082,0.002,0.055,-0.653,0.227,-0.134,-83.961,-120.745,-108.007
1747653230.52,-0.056,-0.006,0.019,-0.623,0.203,-0.146,-83.701,-123.108,-110.508
1747653230.53,-0.019,-0.017,-0.002,-0.582,0.208,-0.169,-83.434,-125.067,-112.598
1747653230.54,0.024,-0.014,0.020,-0.550,0.166,-0.187,-83.161,-126.678,-114.330
1747653230.55,0.060,-0.003,0.019,-0.509,0.117,-0.185,-82.893,-128.040,-115.783
1747653230.56,0.071,0.007,0.006,-0.474,0.117,-0.182,-82.638,-129.176,-116.995
1747653230.57,0.060,0.019,0.013,-0.505,0.114,-0.179,-82.381,-130.233,-118.129
1747653230.58,0.035,0.027,0.018,-0.516,0.082,-0.178,-82.111,-131.317,-119.280
1747653230.59,0.008,0.025,-0.009,-0.436,0.044,-0.168,-81.855,-132.259,-120.269
1747653230.60,-0.018,0.012,-0.035,-0.361,-0.017,-0.147,-81.637,-132.974,-120.998
1747653230.61,-0.042,-0.018,-0.014,-0.377,-0.083,-0.130,-81.436,-133.659,-121.663
1747653230.62,-0.054,-0.049,0.019,-0.360,-0.179,-0.110,-81.238,-134.425,-122.363
1747653230.63,-0.053,-0.059,-0.022,-0.280,-0.214,-0.083,-81.070,-135.129,-122.959
1747653230.64,-0.048,-0.036,-0.054,-0.206,-0.135,-0.064,-80.944,-135.652,-123.384
1747653230.65,-0.049,0.015,-0.027,-0.206,0.003,-0.054,-80.837,-136.043,-123.742
1747653230.66,-0.044,0.046,-0.008,-0.223,0.137,-0.056,-80.727,-136.388,-124.134
1747653230.67,-0.024,0.038,-0.016,-0.210,0.177,-0.069,-80.612,-136.658,-124.501
1747653230.68,0.010,0.017,-0.037,-0.195,0.143,-0.076,-80.498,-136.859,-124.800
1747653230.69,0.060,-0.005,-0.056,-0.177,0.063,-0.067,-80.392,-137.047,-125.052
1747653230.70,0.108,-0.030,-0.070,-0.151,-0.067,-0.031,-80.305,-137.310,-125.318
1747653230.71,0.130,-0.062,-0.080,-0.109,-0.147,0.001,-80.246,-137.633,-125.582
1747653230.72,0.120,-0.069,-0.065,-0.120,-0.166,0.002,-80.201,-137.975,-125.838
1747653230.73,0.077,-0.014,-0.024,-0.137,-0.197,-0.031,-80.139,-138.335,-126.100
1747653230.74,0.019,0.007,-0.007,-0.077,-0.251,-0.088,-80.069,-138.559,-126.197
1747653230.75,-0.021,0.009,-0.034,-0.009,-0.294,-0.120,-80.012,-138.544,-126.024
1747653230.76,-0.035,0.033,-0.027,0.032,-0.279,-0.128,-79.971,-138.380,-125.689
1747653230.77,-0.041,0.041,-0.001,0.054,-0.157,-0.108,-79.945,-138.129,-125.305
1747653230.78,-0.042,0.043,0.015,0.071,-0.036,-0.081,-79.938,-137.816,-124.936
1747653230.79,-0.055,0.044,0.006,0.079,-0.042,-0.064,-79.946,-137.505,-124.600
1747653230.80,-0.078,0.034,-0.003,0.075,-0.027,-0.048,-79.958,-137.235,-124.302
1747653230.81,-0.077,0.017,0.004,0.085,0.073,-0.039,-79.975,-136.946,-124.020
1747653230.82,-0.065,-0.002,0.014,0.085,0.221,-0.014,-80.002,-136.612,-123.765
1747653230.83,-0.065,-0.013,0.041,0.068,0.384,0.006,-80.033,-136.251,-123.575
1747653230.84,-0.082,-0.017,0.073,0.048,0.448,0.021,-80.062,-135.906,-123.472
1747653230.85,-0.106,-0.020,0.078,0.043,0.375,0.029,-80.091,-135.623,-123.426
1747653230.86,-0.117,-0.026,0.074,0.047,0.290,0.029,-80.120,-135.396,-123.388
1747653230.87,-0.097,-0.031,0.071,0.023,0.267,0.031,-80.146,-135.220,-123.369
1747653230.88,-0.042,-0.039,0.070,-0.008,0.308,0.040,-80.161,-135.118,-123.430
1747653230.89,0.026,-0.049,0.058,-0.025,0.336,0.048,-80.168,-135.061,-123.560
1747653230.90,0.072,-0.041,0.040,-0.046,0.304,0.041,-80.173,-135.063,-123.749
1747653230.91,0.094,-0.024,0.038,-0.067,0.211,0.030,-80.164,-135.133,-123.972
1747653230.92,0.100,-0.011,0.032,-0.062,0.083,0.008,-80.142,-135.251,-124.178
1747653230.93,0.094,0.001,0.011,-0.026,-0.063,-0.016,-80.120,-135.339,-124.273
1747653230.94,0.081,0.016,0.002,0.014,-0.188,-0.026,-80.108,-135.373,-124.234
1747653230.95,0.055,0.027,0.009,0.038,-0.278,-0.036,-80.104,-135.376,-124.099
1747653230.96,0.021,0.031,0.015,0.051,-0.326,-0.048,-80.104,-135.349,-123.896
1747653230.97,-0.013,0.028,0.002,0.075,-0.359,-0.047,-80.110,-135.294,-123.641
1747653230.98,-0.043,0.015,-0.015,0.104,-0.337,-0.044,-80.128,-135.176,-123.318
1747653230.99,-0.058,-0.007,-0.016,0.092,-0.278,-0.033,-80.153,-135.034,-122.995
1747653231.00,-0.054,-0.026,-0.006,0.082,-0.209,-0.006,-80.180,-134.927,-122.746
1747653231.01,-0.043,-0.029,-0.005,0.086,-0.150,0.024,-80.218,-134.854,-122.570
1747653231.02,-0.036,-0.009,-0.010,0.088,-0.136,0.046,-80.269,-134.824,-122.457
1747653231.03,-0.036,0.018,-0.012,0.108,-0.144,0.049,-80.328,-134.795,-122.346
1747653231.04,-0.037,0.027,-0.008,0.152,-0.143,0.048,-80.399,-134.690,-122.155
1747653231.05,-0.030,0.018,-0.001,0.183,-0.118,0.044,-80.485,-134.466,-121.853
1747653231.06,-0.024,0.002,0.010,0.186,-0.067,0.051,-80.577,-134.172,-121.500
1747653231.07,-0.024,-0.013,0.041,0.183,0.006,0.070,-80.673,-133.871,-121.179
1747653231.08,-0.040,-0.018,0.056,0.201,0.005,0.085,-80.778,-133.557,-120.867
1747653231.09,-0.071,-0.015,0.025,0.215,-0.045,0.092,-80.894,-133.240,-120.534
1747653231.10,-0.091,-0.012,0.004,0.243,-0.066,0.091,-81.019,-132.887,-120.144
1747653231.11,-0.084,-0.014,-0.000,0.266,-0.045,0.086,-81.150,-132.421,-119.640
1747653231.12,-0.053,-0.021,0.008,0.267,0.002,0.086,-81.281,-131.871,-119.071
1747653231.13,-0.020,-0.025,0.018,0.266,0.046,0.091,-81.411,-131.311,-118.520
1747653231.14,0.000,-0.021,0.016,0.302,0.073,0.097,-81.549,-130.699,-117.935
1747653231.15,0.009,-0.005,0.001,0.369,0.053,0.108,-81.710,-129.951,-117.218
1747653231.16,0.009,0.019,-0.005,0.403,-0.010,0.114,-81.890,-129.051,-116.321
1747653231.17,0.007,0.037,0.007,0.413,-0.070,0.129,-82.080,-128.075,-115.311
1747653231.18,0.016,0.037,0.025,0.438,-0.093,0.138,-82.288,-127.064,-114.244
1747653231.19,0.033,0.025,0.036,0.465,-0.142,0.144,-82.508,-125.929,-113.033
1747653231.20,0.030,0.013,0.049,0.467,-0.214,0.152,-82.732,-124.730,-111.722
1747653231.21,0.010,-0.003,0.075,0.455,-0.285,0.154,-82.951,-123.533,-110.373
1747653231.22,-0.015,-0.019,0.071,0.473,-0.365,0.148,-83.167,-122.283,-108.927
1747653231.23,-0.027,-0.034,0.041,0.529,-0.403,0.138,-83.386,-120.802,-107.214
1747653231.24,-0.015,-0.036,0.025,0.600,-0.389,0.129,-83.613,-118.902,-105.073
1747653231.25,0.008,-0.024,0.028,0.648,-0.340,0.135,-83.846,-116.560,-102.508
1747653231.26,0.020,-0.005,0.049,0.679,-0.278,0.141,-84.079,-113.809,-99.566
1747653231.27,0.008,0.012,0.048,0.712,-0.272,0.137,-84.303,-110.644,-96.227
1747653231.28,-0.012,0.022,0.033,0.735,-0.262,0.136,-84.511,-107.054,-92.466
1747653231.29,-0.025,0.024,0.050,0.731,-0.282,0.145,-84.698,-103.130,-88.370
1747653231.30,-0.046,0.023,0.075,0.707,-0.369,0.159,-84.863,-99.094,-84.133
1747653231.31,-0.073,0.020,0.086,0.753,-0.455,0.186,-85.011,-94.820,-79.605
1747653231.32,-0.084,0.014,0.069,0.825,-0.480,0.201,-85.140,-89.901,-74.398
1747653231.33,-0.083,0.004,0.060,0.851,-0.407,0.217,-85.237,-84.391,-68.610
1747653231.34,-0.062,-0.014,0.065,0.841,-0.205,0.231,-85.292,-78.555,-62.574
1747653231.35,-0.033,-0.031,0.068,0.827,0.010,0.231,-85.302,-72.618,-56.564
1747653231.36,-0.017,-0.036,0.040,0.853,0.104,0.225,-85.257,-66.604,-50.567
1747653231.37,-0.014,-0.027,-0.005,0.892,0.078,0.219,-85.147,-60.551,-44.547
1747653231.38,-0.010,-0.003,-0.008,0.861,0.085,0.232,-84.986,-54.768,-38.787
